welc_advance.keys,welc_advance.rt,participant,session,date,expName,psychopyVersion,OS,frameRate,consent_advance.keys,consent_advance.rt,consent_advance_2.keys,consent_advance_2.rt,consentClick.x,consentClick.y,consentClick.leftButton,consentClick.midButton,consentClick.rightButton,consentClick.time,consentClick.clicked_name,quitClick.x,quitClick.y,quitClick.leftButton,quitClick.midButton,quitClick.rightButton,quitClick.time,quitClick.clicked_name,instr_advance_3.keys,instr_advance_3.rt,spec_instr_adv.keys,spec_instr_adv.rt,spec_instr_adv2.keys,spec_instr_adv2.rt,instr_loop.thisRepN,instr_loop.thisTrialN,instr_loop.thisN,instr_loop.thisIndex,instr_loop.ran,steps,fams,face_file,cond,instr,term,key_map,attnKeyResp1.keys,attnKeyResp1.rt,q1.thisRepN,q1.thisTrialN,q1.thisN,q1.thisIndex,q1.ran,attnKeyResp2.keys,attnKeyResp2.rt,q2.thisRepN,q2.thisTrialN,q2.thisN,q2.thisIndex,q2.ran,attnKeyResp3.keys,attnKeyResp3.rt,q3.thisRepN,q3.thisTrialN,q3.thisN,q3.thisIndex,q3.ran,practiceStart.keys,practiceStart.rt,practiceResp.keys,practiceResp.rt,timesRedone,practiceRepeat.thisRepN,practiceRepeat.thisTrialN,practiceRepeat.thisN,practiceRepeat.thisIndex,practiceRepeat.ran,attrRating.keys,attrRating.rt,practiceTrial.thisRepN,practiceTrial.thisTrialN,practiceTrial.thisN,practiceTrial.thisIndex,practiceTrial.ran,key_resp_3.keys,key_resp_3.rt,attnChecker.thisRepN,attnChecker.thisTrialN,attnChecker.thisN,attnChecker.thisIndex,attnChecker.ran,catResp.keys,catResp.rt,repeat_loop.thisRepN,repeat_loop.thisTrialN,repeat_loop.thisN,repeat_loop.thisIndex,repeat_loop.ran,contResp.keys,contResp.rt,trials.thisRepN,trials.thisTrialN,trials.thisN,trials.thisIndex,trials.ran,redo_keypress.keys,redo_keypress.rt,redo_feedback_loop.thisRepN,redo_feedback_loop.thisTrialN,redo_feedback_loop.thisN,redo_feedback_loop.thisIndex,redo_feedback_loop.ran,contResp_2.keys,contResp_2.rt,respQ1.response,respQ1.rt,respQ2.response,respQ2.rt,respQ3.response,respQ3.rt,respQ4.response,respQ4.rt,nextClick1.x,nextClick1.y,nextClick1.leftButton,nextClick1.midButton,nextClick1.rightButton,nextClick1.clicked_name,respQ5.response,respQ5.rt,respQ6.response,respQ6.rt,respQ7.response,respQ7.rt,respQ8.response,respQ8.rt,nextClick2.x,nextClick2.y,nextClick2.leftButton,nextClick2.midButton,nextClick2.rightButton,nextClick2.clicked_name,respQ9.response,respQ9.rt,respQ10.response,respQ10.rt,respQ11.response,respQ11.rt,respQ12.response,respQ12.rt,nextClick3.x,nextClick3.y,nextClick3.leftButton,nextClick3.midButton,nextClick3.rightButton,nextClick3.clicked_name,respQ13.response,respQ13.rt,respQ14.response,respQ14.rt,respQ15.response,respQ15.rt,nextClick4.x,nextClick4.y,nextClick4.leftButton,nextClick4.midButton,nextClick4.rightButton,nextClick4.clicked_name,respAge.response,respAge.rt,genderResp1.response,genderResp1.rt,genderResp2.text,demographClick.x,demographClick.y,demographClick.leftButton,demographClick.midButton,demographClick.rightButton,demographClick.clicked_name,textbox.text,openanswerClick.x,openanswerClick.y,openanswerClick.leftButton,openanswerClick.midButton,openanswerClick.rightButton,openanswerClick.time,openanswerClick.clicked_name,exitKey.keys,exitKey.rt
space,25.0816,001749,001,03-30-2023_09h21.46.549,fluency,2022.2.5,Win32,59.16459591,,,,,,,,,,,,,,,,,,,,,,,,,,,,,,,,,,,,,,,,,,,,,,,,,,,,,,,,,,,,,,,,,,,,,,,,,,,,,,,,,,,,,,,,,,,,,,,,,,,,,,,,,,,,,,,,,,,,,,,,,,,,,,,,,,,,,,,,,,,,,,,,,,,,,,,,,,,,,,,,,,,,,,,,,,,,,,,,,,,
,,001749,001,03-30-2023_09h21.46.549,fluency,2022.2.5,Win32,59.16459591,space,1.033,,,,,,,,,,,,,,,,,,,,,,,,,,,,,,,,,,,,,,,,,,,,,,,,,,,,,,,,,,,,,,,,,,,,,,,,,,,,,,,,,,,,,,,,,,,,,,,,,,,,,,,,,,,,,,,,,,,,,,,,,,,,,,,,,,,,,,,,,,,,,,,,,,,,,,,,,,,,,,,,,,,,,,,,,,,,,,,,,
,,001749,001,03-30-2023_09h21.46.549,fluency,2022.2.5,Win32,59.16459591,,,space,0.6016,,,,,,,,,,,,,,,,,,,,,,,,,,,,,,,,,,,,,,,,,,,,,,,,,,,,,,,,,,,,,,,,,,,,,,,,,,,,,,,,,,,,,,,,,,,,,,,,,,,,,,,,,,,,,,,,,,,,,,,,,,,,,,,,,,,,,,,,,,,,,,,,,,,,,,,,,,,,,,,,,,,,,,,,,,,,,,,
,,001749,001,03-30-2023_09h21.46.549,fluency,2022.2.5,Win32,59.16459591,,,,,0.307291667,-0.358072917,1,0,0,6.7191,iAgree,[],[],[],[],[],[],[],,,,,,,,,,,,,,,,,,,,,,,,,,,,,,,,,,,,,,,,,,,,,,,,,,,,,,,,,,,,,,,,,,,,,,,,,,,,,,,,,,,,,,,,,,,,,,,,,,,,,,,,,,,,,,,,,,,,,,,,,,,,,,,,,,,,,,,,,,,,,,,,,,,,,,,,,,,,,,,,,
,,001749,001,03-30-2023_09h21.46.549,fluency,2022.2.5,Win32,59.16459591,,,,,,,,,,,,,,,,,,,space,14.3199,,,,,,,,,,,,,,,,,,,,,,,,,,,,,,,,,,,,,,,,,,,,,,,,,,,,,,,,,,,,,,,,,,,,,,,,,,,,,,,,,,,,,,,,,,,,,,,,,,,,,,,,,,,,,,,,,,,,,,,,,,,,,,,,,,,,,,,,,,,,,,,,,,,,,,,,,,,,,,,
,,001749,001,03-30-2023_09h21.46.549,fluency,2022.2.5,Win32,59.16459591,,,,,,,,,,,,,,,,,,,,,space,17.5493,space,9.0582,0,0,0,28,1,6,3,img/B03_06.jpg,MF,Press J if the face is FEMALE and K if the face is MALE, ,KJ,,,,,,,,,,,,,,,,,,,,,,,,,,,,,,,,,,,,,,,,,,,,,,,,,,,,,,,,,,,,,,,,,,,,,,,,,,,,,,,,,,,,,,,,,,,,,,,,,,,,,,,,,,,,,,,,,,,,,,,,,,,,,,,,,,,,,,,,,,,,,,,
,,001749,001,03-30-2023_09h21.46.549,fluency,2022.2.5,Win32,59.16459591,,,,,,,,,,,,,,,,,,,,,,,,,,,,,,,,,,,,,c,9.34,0,0,0,0,1,,,,,,,,,,,,,,,,,,,,,,,,,,,,,,,,,,,,,,,,,,,,,,,,,,,,,,,,,,,,,,,,,,,,,,,,,,,,,,,,,,,,,,,,,,,,,,,,,,,,,,,,,,,,,,,,,,,,,,,,,,,,,,,,,,,,,,,,
,,001749,001,03-30-2023_09h21.46.549,fluency,2022.2.5,Win32,59.16459591,,,,,,,,,,,,,,,,,,,,,,,,,,,,,,,,,,,,,,,,,,,,a,3.7287,0,0,0,0,1,,,,,,,,,,,,,,,,,,,,,,,,,,,,,,,,,,,,,,,,,,,,,,,,,,,,,,,,,,,,,,,,,,,,,,,,,,,,,,,,,,,,,,,,,,,,,,,,,,,,,,,,,,,,,,,,,,,,,,,,,,,,,,,,,
,,001749,001,03-30-2023_09h21.46.549,fluency,2022.2.5,Win32,59.16459591,,,,,,,,,,,,,,,,,,,,,,,,,,,,,,,,,,,,,,,,,,,,,,,,,,,c,9.0249,0,0,0,0,1,,,,,,,,,,,,,,,,,,,,,,,,,,,,,,,,,,,,,,,,,,,,,,,,,,,,,,,,,,,,,,,,,,,,,,,,,,,,,,,,,,,,,,,,,,,,,,,,,,,,,,,,,,,,,,,,,,,,,,,,,,
,,001749,001,03-30-2023_09h21.46.549,fluency,2022.2.5,Win32,59.16459591,,,,,,,,,,,,,,,,,,,,,,,,,,,,,,,,,,,,,,,,,,,,,,,,,,,,,,,,,,space,3.3785,k,0.8732,0,0,0,0,0,1,,,,,,,,,,,,,,,,,,,,,,,,,,,,,,,,,,,,,,,,,,,,,,,,,,,,,,,,,,,,,,,,,,,,,,,,,,,,,,,,,,,,,,,,,,,,,,,,,,,,,,,,,,,,,,,,
,,001749,001,03-30-2023_09h21.46.549,fluency,2022.2.5,Win32,59.16459591,,,,,,,,,,,,,,,,,,,,,,,,,,,,,,,,,,,,,,,,,,,,,,,,,,,,,,,,,,,,,,,,,,,,8,21.6453,0,0,0,0,1,,,,,,,,,,,,,,,,,,,,,,,,,,,,,,,,,,,,,,,,,,,,,,,,,,,,,,,,,,,,,,,,,,,,,,,,,,,,,,,,,,,,,,,,,,,,,,,,,,,,,,,,,
,,001749,001,03-30-2023_09h21.46.549,fluency,2022.2.5,Win32,59.16459591,,,,,,,,,,,,,,,,,,,,,,,,,,,,,,,,,,,,,,,,,,,,,,,,,,,,,,,,,,,,,,,,,,,,,,,,,,,space,9.4078,0,0,0,0,1,,,,,,,,,,,,,,,,,,,,,,,,,,,,,,,,,,,,,,,,,,,,,,,,,,,,,,,,,,,,,,,,,,,,,,,,,,,,,,,,,,,,,,,,,,,,,,,,,,
,,001749,001,03-30-2023_09h21.46.549,fluency,2022.2.5,Win32,59.16459591,,,,,,,,,,,,,,,,,,,,,,,,,,,,,,,,,,,,,,,,,,,,,,,,,,,,,,,,,,,,,,0,,,,,,,,,,,,,,,,,,,,k,0.6629,0,0,0,0,1,,,,,,,,,,,,,,,,,,,,,,,,,,,,,,,,,,,,,,,,,,,,,,,,,,,,,,,,,,,,,,,,,,,,,,,,,,,,,,,,,,,,,,,,,,,
,,001749,001,03-30-2023_09h21.46.549,fluency,2022.2.5,Win32,59.16459591,,,,,,,,,,,,,,,,,,,,,,,,,,,,,,2,10,img/B10_02.jpg,MF,Press J if the face is FEMALE and K if the face is MALE, ,KJ,,,,,,,,,,,,,,,,,,,,,,,,,,,,,,,,8,1.2406,,,,,,,,,,,,,,,,,,,,space,5.8779,0,0,0,101,1,,,,,,,,,,,,,,,,,,,,,,,,,,,,,,,,,,,,,,,,,,,,,,,,,,,,,,,,,,,,,,,,,,,,,,,,,,,,,,,,,,,,
,,001749,001,03-30-2023_09h21.46.549,fluency,2022.2.5,Win32,59.16459591,,,,,,,,,,,,,,,,,,,,,,,,,,,,,,,,,,,,,,,,,,,,,,,,,,,,,,,,,,,,,,0,,,,,,,,,,,,,,,,,,,,j,1.0091,0,0,0,0,1,,,,,,,,,,,,,,,,,,,,,,,,,,,,,,,,,,,,,,,,,,,,,,,,,,,,,,,,,,,,,,,,,,,,,,,,,,,,,,,,,,,,,,,,,,,
,,001749,001,03-30-2023_09h21.46.549,fluency,2022.2.5,Win32,59.16459591,,,,,,,,,,,,,,,,,,,,,,,,,,,,,,6,1,img/B01_06.jpg,MF,Press J if the face is FEMALE and K if the face is MALE, ,KJ,,,,,,,,,,,,,,,,,,,,,,,,,,,,,,,,9,2.2372,,,,,,,,,,,,,,,,,,,,space,2.1407,0,1,1,6,1,,,,,,,,,,,,,,,,,,,,,,,,,,,,,,,,,,,,,,,,,,,,,,,,,,,,,,,,,,,,,,,,,,,,,,,,,,,,,,,,,,,,
,,001749,001,03-30-2023_09h21.46.549,fluency,2022.2.5,Win32,59.16459591,,,,,,,,,,,,,,,,,,,,,,,,,,,,,,,,,,,,,,,,,,,,,,,,,,,,,,,,,,,,,,0,,,,,,,,,,,,,,,,,,,,j,1.4096,0,0,0,0,1,,,,,,,,,,,,,,,,,,,,,,,,,,,,,,,,,,,,,,,,,,,,,,,,,,,,,,,,,,,,,,,,,,,,,,,,,,,,,,,,,,,,,,,,,,,
,,001749,001,03-30-2023_09h21.46.549,fluency,2022.2.5,Win32,59.16459591,,,,,,,,,,,,,,,,,,,,,,,,,,,,,,9,1,img/B01_09.jpg,MF,Press J if the face is FEMALE and K if the face is MALE, ,KJ,,,,,,,,,,,,,,,,,,,,,,,,,,,,,,,,8,1.4093,,,,,,,,,,,,,,,,,,,,space,1.8593,0,2,2,9,1,,,,,,,,,,,,,,,,,,,,,,,,,,,,,,,,,,,,,,,,,,,,,,,,,,,,,,,,,,,,,,,,,,,,,,,,,,,,,,,,,,,,
,,001749,001,03-30-2023_09h21.46.549,fluency,2022.2.5,Win32,59.16459591,,,,,,,,,,,,,,,,,,,,,,,,,,,,,,,,,,,,,,,,,,,,,,,,,,,,,,,,,,,,,,0,,,,,,,,,,,,,,,,,,,,k,0.6693,0,0,0,0,1,,,,,,,,,,,,,,,,,,,,,,,,,,,,,,,,,,,,,,,,,,,,,,,,,,,,,,,,,,,,,,,,,,,,,,,,,,,,,,,,,,,,,,,,,,,
,,001749,001,03-30-2023_09h21.46.549,fluency,2022.2.5,Win32,59.16459591,,,,,,,,,,,,,,,,,,,,,,,,,,,,,,2,9,img/B09_02.jpg,MF,Press J if the face is FEMALE and K if the face is MALE, ,KJ,,,,,,,,,,,,,,,,,,,,,,,,,,,,,,,,9,1.8192,,,,,,,,,,,,,,,,,,,,space,1.2341,0,3,3,90,1,,,,,,,,,,,,,,,,,,,,,,,,,,,,,,,,,,,,,,,,,,,,,,,,,,,,,,,,,,,,,,,,,,,,,,,,,,,,,,,,,,,,
,,001749,001,03-30-2023_09h21.46.549,fluency,2022.2.5,Win32,59.16459591,,,,,,,,,,,,,,,,,,,,,,,,,,,,,,,,,,,,,,,,,,,,,,,,,,,,,,,,,,,,,,0,,,,,,,,,,,,,,,,,,,,j,0.8692,0,0,0,0,1,,,,,,,,,,,,,,,,,,,,,,,,,,,,,,,,,,,,,,,,,,,,,,,,,,,,,,,,,,,,,,,,,,,,,,,,,,,,,,,,,,,,,,,,,,,
,,001749,001,03-30-2023_09h21.46.549,fluency,2022.2.5,Win32,59.16459591,,,,,,,,,,,,,,,,,,,,,,,,,,,,,,10,10,img/B10_10.jpg,MF,Press J if the face is FEMALE and K if the face is MALE, ,KJ,,,,,,,,,,,,,,,,,,,,,,,,,,,,,,,,7,1.1406,,,,,,,,,,,,,,,,,,,,space,4.8552,0,4,4,109,1,,,,,,,,,,,,,,,,,,,,,,,,,,,,,,,,,,,,,,,,,,,,,,,,,,,,,,,,,,,,,,,,,,,,,,,,,,,,,,,,,,,,
,,001749,001,03-30-2023_09h21.46.549,fluency,2022.2.5,Win32,59.16459591,,,,,,,,,,,,,,,,,,,,,,,,,,,,,,,,,,,,,,,,,,,,,,,,,,,,,,,,,,,,,,0,,,,,,,,,,,,,,,,,,,,k,0.6648,0,0,0,0,1,,,,,,,,,,,,,,,,,,,,,,,,,,,,,,,,,,,,,,,,,,,,,,,,,,,,,,,,,,,,,,,,,,,,,,,,,,,,,,,,,,,,,,,,,,,
,,001749,001,03-30-2023_09h21.46.549,fluency,2022.2.5,Win32,59.16459591,,,,,,,,,,,,,,,,,,,,,,,,,,,,,,5,4,img/B04_05.jpg,MF,Press J if the face is FEMALE and K if the face is MALE, ,KJ,,,,,,,,,,,,,,,,,,,,,,,,,,,,,,,,9,1.1684,,,,,,,,,,,,,,,,,,,,space,1.6702,0,5,5,38,1,,,,,,,,,,,,,,,,,,,,,,,,,,,,,,,,,,,,,,,,,,,,,,,,,,,,,,,,,,,,,,,,,,,,,,,,,,,,,,,,,,,,
,,001749,001,03-30-2023_09h21.46.549,fluency,2022.2.5,Win32,59.16459591,,,,,,,,,,,,,,,,,,,,,,,,,,,,,,,,,,,,,,,,,,,,,,,,,,,,,,,,,,,,,,0,,,,,,,,,,,,,,,,,,,,k,0.9217,0,0,0,0,1,,,,,,,,,,,,,,,,,,,,,,,,,,,,,,,,,,,,,,,,,,,,,,,,,,,,,,,,,,,,,,,,,,,,,,,,,,,,,,,,,,,,,,,,,,,
,,001749,001,03-30-2023_09h21.46.549,fluency,2022.2.5,Win32,59.16459591,,,,,,,,,,,,,,,,,,,,,,,,,,,,,,2,5,img/B05_02.jpg,MF,Press J if the face is FEMALE and K if the face is MALE, ,KJ,,,,,,,,,,,,,,,,,,,,,,,,,,,,,,,,8,0.873,,,,,,,,,,,,,,,,,,,,space,0.7055,0,6,6,46,1,,,,,,,,,,,,,,,,,,,,,,,,,,,,,,,,,,,,,,,,,,,,,,,,,,,,,,,,,,,,,,,,,,,,,,,,,,,,,,,,,,,,
,,001749,001,03-30-2023_09h21.46.549,fluency,2022.2.5,Win32,59.16459591,,,,,,,,,,,,,,,,,,,,,,,,,,,,,,,,,,,,,,,,,,,,,,,,,,,,,,,,,,,,,,0,,,,,,,,,,,,,,,,,,,,j,0.8047,0,0,0,0,1,,,,,,,,,,,,,,,,,,,,,,,,,,,,,,,,,,,,,,,,,,,,,,,,,,,,,,,,,,,,,,,,,,,,,,,,,,,,,,,,,,,,,,,,,,,
,,001749,001,03-30-2023_09h21.46.549,fluency,2022.2.5,Win32,59.16459591,,,,,,,,,,,,,,,,,,,,,,,,,,,,,,9,4,img/B04_09.jpg,MF,Press J if the face is FEMALE and K if the face is MALE, ,KJ,,,,,,,,,,,,,,,,,,,,,,,,,,,,,,,,7,0.0009,,,,,,,,,,,,,,,,,,,,space,0.9966,0,7,7,42,1,,,,,,,,,,,,,,,,,,,,,,,,,,,,,,,,,,,,,,,,,,,,,,,,,,,,,,,,,,,,,,,,,,,,,,,,,,,,,,,,,,,,
,,001749,001,03-30-2023_09h21.46.549,fluency,2022.2.5,Win32,59.16459591,,,,,,,,,,,,,,,,,,,,,,,,,,,,,,,,,,,,,,,,,,,,,,,,,,,,,,,,,,,,,,0,,,,,,,,,,,,,,,,,,,,k,0.7405,0,0,0,0,1,,,,,,,,,,,,,,,,,,,,,,,,,,,,,,,,,,,,,,,,,,,,,,,,,,,,,,,,,,,,,,,,,,,,,,,,,,,,,,,,,,,,,,,,,,,
,,001749,001,03-30-2023_09h21.46.549,fluency,2022.2.5,Win32,59.16459591,,,,,,,,,,,,,,,,,,,,,,,,,,,,,,1,2,img/B02_01.jpg,MF,Press J if the face is FEMALE and K if the face is MALE, ,KJ,,,,,,,,,,,,,,,,,,,,,,,,,,,,,,,,7,2.5877,,,,,,,,,,,,,,,,,,,,space,1.2659,0,8,8,12,1,,,,,,,,,,,,,,,,,,,,,,,,,,,,,,,,,,,,,,,,,,,,,,,,,,,,,,,,,,,,,,,,,,,,,,,,,,,,,,,,,,,,
,,001749,001,03-30-2023_09h21.46.549,fluency,2022.2.5,Win32,59.16459591,,,,,,,,,,,,,,,,,,,,,,,,,,,,,,,,,,,,,,,,,,,,,,,,,,,,,,,,,,,,,,0,,,,,,,,,,,,,,,,,,,,k,0.9374,0,0,0,0,1,,,,,,,,,,,,,,,,,,,,,,,,,,,,,,,,,,,,,,,,,,,,,,,,,,,,,,,,,,,,,,,,,,,,,,,,,,,,,,,,,,,,,,,,,,,
,,001749,001,03-30-2023_09h21.46.549,fluency,2022.2.5,Win32,59.16459591,,,,,,,,,,,,,,,,,,,,,,,,,,,,,,3,6,img/B06_03.jpg,MF,Press J if the face is FEMALE and K if the face is MALE, ,KJ,,,,,,,,,,,,,,,,,,,,,,,,,,,,,,,,5,0.101,,,,,,,,,,,,,,,,,,,,space,2.3208,0,9,9,58,1,,,,,,,,,,,,,,,,,,,,,,,,,,,,,,,,,,,,,,,,,,,,,,,,,,,,,,,,,,,,,,,,,,,,,,,,,,,,,,,,,,,,
,,001749,001,03-30-2023_09h21.46.549,fluency,2022.2.5,Win32,59.16459591,,,,,,,,,,,,,,,,,,,,,,,,,,,,,,,,,,,,,,,,,,,,,,,,,,,,,,,,,,,,,,0,,,,,,,,,,,,,,,,,,,,j,1.0627,0,0,0,0,1,,,,,,,,,,,,,,,,,,,,,,,,,,,,,,,,,,,,,,,,,,,,,,,,,,,,,,,,,,,,,,,,,,,,,,,,,,,,,,,,,,,,,,,,,,,
,,001749,001,03-30-2023_09h21.46.549,fluency,2022.2.5,Win32,59.16459591,,,,,,,,,,,,,,,,,,,,,,,,,,,,,,5,7,img/B07_05.jpg,MF,Press J if the face is FEMALE and K if the face is MALE, ,KJ,,,,,,,,,,,,,,,,,,,,,,,,,,,,,,,,7,1.2468,,,,,,,,,,,,,,,,,,,,space,1.6,0,10,10,71,1,,,,,,,,,,,,,,,,,,,,,,,,,,,,,,,,,,,,,,,,,,,,,,,,,,,,,,,,,,,,,,,,,,,,,,,,,,,,,,,,,,,,
,,001749,001,03-30-2023_09h21.46.549,fluency,2022.2.5,Win32,59.16459591,,,,,,,,,,,,,,,,,,,,,,,,,,,,,,,,,,,,,,,,,,,,,,,,,,,,,,,,,,,,,,0,,,,,,,,,,,,,,,,,,,,j,0.7805,0,0,0,0,1,,,,,,,,,,,,,,,,,,,,,,,,,,,,,,,,,,,,,,,,,,,,,,,,,,,,,,,,,,,,,,,,,,,,,,,,,,,,,,,,,,,,,,,,,,,
,,001749,001,03-30-2023_09h21.46.549,fluency,2022.2.5,Win32,59.16459591,,,,,,,,,,,,,,,,,,,,,,,,,,,,,,9,2,img/B02_09.jpg,MF,Press J if the face is FEMALE and K if the face is MALE, ,KJ,,,,,,,,,,,,,,,,,,,,,,,,,,,,,,,,8,1.4769,,,,,,,,,,,,,,,,,,,,space,0.835,0,11,11,20,1,,,,,,,,,,,,,,,,,,,,,,,,,,,,,,,,,,,,,,,,,,,,,,,,,,,,,,,,,,,,,,,,,,,,,,,,,,,,,,,,,,,,
,,001749,001,03-30-2023_09h21.46.549,fluency,2022.2.5,Win32,59.16459591,,,,,,,,,,,,,,,,,,,,,,,,,,,,,,,,,,,,,,,,,,,,,,,,,,,,,,,,,,,,,,0,,,,,,,,,,,,,,,,,,,,k,0.6354,0,0,0,0,1,,,,,,,,,,,,,,,,,,,,,,,,,,,,,,,,,,,,,,,,,,,,,,,,,,,,,,,,,,,,,,,,,,,,,,,,,,,,,,,,,,,,,,,,,,,
,,001749,001,03-30-2023_09h21.46.549,fluency,2022.2.5,Win32,59.16459591,,,,,,,,,,,,,,,,,,,,,,,,,,,,,,0,9,img/B09_00.jpg,MF,Press J if the face is FEMALE and K if the face is MALE, ,KJ,,,,,,,,,,,,,,,,,,,,,,,,,,,,,,,,7,0.5907,,,,,,,,,,,,,,,,,,,,space,2.284,0,12,12,88,1,,,,,,,,,,,,,,,,,,,,,,,,,,,,,,,,,,,,,,,,,,,,,,,,,,,,,,,,,,,,,,,,,,,,,,,,,,,,,,,,,,,,
,,001749,001,03-30-2023_09h21.46.549,fluency,2022.2.5,Win32,59.16459591,,,,,,,,,,,,,,,,,,,,,,,,,,,,,,,,,,,,,,,,,,,,,,,,,,,,,,,,,,,,,,1,,,,,,,,,,,,,,,,,,,,,,,,,,,,,,,,,,space,8.6733,0,0,0,0,1,,,,,,,,,,,,,,,,,,,,,,,,,,,,,,,,,,,,,,,,,,,,,,,,,,,,,,,,,,,,,,,,,,,,,,,,,,,,,
,,001749,001,03-30-2023_09h21.46.549,fluency,2022.2.5,Win32,59.16459591,,,,,,,,,,,,,,,,,,,,,,,,,,,,,,,,,,,,,,,,,,,,,,,,,,,,,,,,,,,,,,,,,,,,,,,,,,,,,,,,,,,,0,0,0,0,1,,,,,,,,,,,,,,,,,,,,,,,,,,,,,,,,,,,,,,,,,,,,,,,,,,,,,,,,,,,,,,,,,,,,,,,,,,,,,,,,,,,,,,,,,,,
,,001749,001,03-30-2023_09h21.46.549,fluency,2022.2.5,Win32,59.16459591,,,,,,,,,,,,,,,,,,,,,,,,,,,,,,,,,,,,,,,,,,,,,,,,,,,,,,,,,,,,,,1,,,,,,,,,,,,,,,,,,,,k,0.6499,1,0,1,0,1,,,,,,,,,,,,,,,,,,,,,,,,,,,,,,,,,,,,,,,,,,,,,,,,,,,,,,,,,,,,,,,,,,,,,,,,,,,,,,,,,,,,,,,,,,,
,,001749,001,03-30-2023_09h21.46.549,fluency,2022.2.5,Win32,59.16459591,,,,,,,,,,,,,,,,,,,,,,,,,,,,,,3,10,img/B10_03.jpg,MF,Press J if the face is FEMALE and K if the face is MALE, ,KJ,,,,,,,,,,,,,,,,,,,,,,,,,,,,,,,,7,0.6615,,,,,,,,,,,,,,,,,,,,space,1.1056,0,13,13,102,1,,,,,,,,,,,,,,,,,,,,,,,,,,,,,,,,,,,,,,,,,,,,,,,,,,,,,,,,,,,,,,,,,,,,,,,,,,,,,,,,,,,,
,,001749,001,03-30-2023_09h21.46.549,fluency,2022.2.5,Win32,59.16459591,,,,,,,,,,,,,,,,,,,,,,,,,,,,,,,,,,,,,,,,,,,,,,,,,,,,,,,,,,,,,,1,,,,,,,,,,,,,,,,,,,,j,0.7581,0,0,0,0,1,,,,,,,,,,,,,,,,,,,,,,,,,,,,,,,,,,,,,,,,,,,,,,,,,,,,,,,,,,,,,,,,,,,,,,,,,,,,,,,,,,,,,,,,,,,
,,001749,001,03-30-2023_09h21.46.549,fluency,2022.2.5,Win32,59.16459591,,,,,,,,,,,,,,,,,,,,,,,,,,,,,,2,8,img/B08_02.jpg,MF,Press J if the face is FEMALE and K if the face is MALE, ,KJ,,,,,,,,,,,,,,,,,,,,,,,,,,,,,,,,6,0.7546,,,,,,,,,,,,,,,,,,,,space,0.5871,0,14,14,79,1,,,,,,,,,,,,,,,,,,,,,,,,,,,,,,,,,,,,,,,,,,,,,,,,,,,,,,,,,,,,,,,,,,,,,,,,,,,,,,,,,,,,
,,001749,001,03-30-2023_09h21.46.549,fluency,2022.2.5,Win32,59.16459591,,,,,,,,,,,,,,,,,,,,,,,,,,,,,,,,,,,,,,,,,,,,,,,,,,,,,,,,,,,,,,1,,,,,,,,,,,,,,,,,,,,k,1.0897,0,0,0,0,1,,,,,,,,,,,,,,,,,,,,,,,,,,,,,,,,,,,,,,,,,,,,,,,,,,,,,,,,,,,,,,,,,,,,,,,,,,,,,,,,,,,,,,,,,,,
,,001749,001,03-30-2023_09h21.46.549,fluency,2022.2.5,Win32,59.16459591,,,,,,,,,,,,,,,,,,,,,,,,,,,,,,5,6,img/B06_05.jpg,MF,Press J if the face is FEMALE and K if the face is MALE, ,KJ,,,,,,,,,,,,,,,,,,,,,,,,,,,,,,,,5,0.9775,,,,,,,,,,,,,,,,,,,,space,0.999,0,15,15,60,1,,,,,,,,,,,,,,,,,,,,,,,,,,,,,,,,,,,,,,,,,,,,,,,,,,,,,,,,,,,,,,,,,,,,,,,,,,,,,,,,,,,,
,,001749,001,03-30-2023_09h21.46.549,fluency,2022.2.5,Win32,59.16459591,,,,,,,,,,,,,,,,,,,,,,,,,,,,,,,,,,,,,,,,,,,,,,,,,,,,,,,,,,,,,,1,,,,,,,,,,,,,,,,,,,,j,0.7207,0,0,0,0,1,,,,,,,,,,,,,,,,,,,,,,,,,,,,,,,,,,,,,,,,,,,,,,,,,,,,,,,,,,,,,,,,,,,,,,,,,,,,,,,,,,,,,,,,,,,
,,001749,001,03-30-2023_09h21.46.549,fluency,2022.2.5,Win32,59.16459591,,,,,,,,,,,,,,,,,,,,,,,,,,,,,,10,5,img/B05_10.jpg,MF,Press J if the face is FEMALE and K if the face is MALE, ,KJ,,,,,,,,,,,,,,,,,,,,,,,,,,,,,,,,7,0.0223,,,,,,,,,,,,,,,,,,,,space,2.1752,0,16,16,54,1,,,,,,,,,,,,,,,,,,,,,,,,,,,,,,,,,,,,,,,,,,,,,,,,,,,,,,,,,,,,,,,,,,,,,,,,,,,,,,,,,,,,
,,001749,001,03-30-2023_09h21.46.549,fluency,2022.2.5,Win32,59.16459591,,,,,,,,,,,,,,,,,,,,,,,,,,,,,,,,,,,,,,,,,,,,,,,,,,,,,,,,,,,,,,1,,,,,,,,,,,,,,,,,,,,k,0.856,0,0,0,0,1,,,,,,,,,,,,,,,,,,,,,,,,,,,,,,,,,,,,,,,,,,,,,,,,,,,,,,,,,,,,,,,,,,,,,,,,,,,,,,,,,,,,,,,,,,,
,,001749,001,03-30-2023_09h21.46.549,fluency,2022.2.5,Win32,59.16459591,,,,,,,,,,,,,,,,,,,,,,,,,,,,,,0,7,img/B07_00.jpg,MF,Press J if the face is FEMALE and K if the face is MALE, ,KJ,,,,,,,,,,,,,,,,,,,,,,,,,,,,,,,,6,0.5864,,,,,,,,,,,,,,,,,,,,space,3.8179,0,17,17,66,1,,,,,,,,,,,,,,,,,,,,,,,,,,,,,,,,,,,,,,,,,,,,,,,,,,,,,,,,,,,,,,,,,,,,,,,,,,,,,,,,,,,,
,,001749,001,03-30-2023_09h21.46.549,fluency,2022.2.5,Win32,59.16459591,,,,,,,,,,,,,,,,,,,,,,,,,,,,,,,,,,,,,,,,,,,,,,,,,,,,,,,,,,,,,,1,,,,,,,,,,,,,,,,,,,,j,0.6593,0,0,0,0,1,,,,,,,,,,,,,,,,,,,,,,,,,,,,,,,,,,,,,,,,,,,,,,,,,,,,,,,,,,,,,,,,,,,,,,,,,,,,,,,,,,,,,,,,,,,
,,001749,001,03-30-2023_09h21.46.549,fluency,2022.2.5,Win32,59.16459591,,,,,,,,,,,,,,,,,,,,,,,,,,,,,,6,3,img/B03_06.jpg,MF,Press J if the face is FEMALE and K if the face is MALE, ,KJ,,,,,,,,,,,,,,,,,,,,,,,,,,,,,,,,7,0.5858,,,,,,,,,,,,,,,,,,,,space,0.7839,0,18,18,28,1,,,,,,,,,,,,,,,,,,,,,,,,,,,,,,,,,,,,,,,,,,,,,,,,,,,,,,,,,,,,,,,,,,,,,,,,,,,,,,,,,,,,
,,001749,001,03-30-2023_09h21.46.549,fluency,2022.2.5,Win32,59.16459591,,,,,,,,,,,,,,,,,,,,,,,,,,,,,,,,,,,,,,,,,,,,,,,,,,,,,,,,,,,,,,1,,,,,,,,,,,,,,,,,,,,j,0.8843,0,0,0,0,1,,,,,,,,,,,,,,,,,,,,,,,,,,,,,,,,,,,,,,,,,,,,,,,,,,,,,,,,,,,,,,,,,,,,,,,,,,,,,,,,,,,,,,,,,,,
,,001749,001,03-30-2023_09h21.46.549,fluency,2022.2.5,Win32,59.16459591,,,,,,,,,,,,,,,,,,,,,,,,,,,,,,10,1,img/B01_10.jpg,MF,Press J if the face is FEMALE and K if the face is MALE, ,KJ,,,,,,,,,,,,,,,,,,,,,,,,,,,,,,,,7,0.4252,,,,,,,,,,,,,,,,,,,,space,4.2961,0,19,19,10,1,,,,,,,,,,,,,,,,,,,,,,,,,,,,,,,,,,,,,,,,,,,,,,,,,,,,,,,,,,,,,,,,,,,,,,,,,,,,,,,,,,,,
,,001749,001,03-30-2023_09h21.46.549,fluency,2022.2.5,Win32,59.16459591,,,,,,,,,,,,,,,,,,,,,,,,,,,,,,,,,,,,,,,,,,,,,,,,,,,,,,,,,,,,,,1,,,,,,,,,,,,,,,,,,,,k,0.6592,0,0,0,0,1,,,,,,,,,,,,,,,,,,,,,,,,,,,,,,,,,,,,,,,,,,,,,,,,,,,,,,,,,,,,,,,,,,,,,,,,,,,,,,,,,,,,,,,,,,,
,,001749,001,03-30-2023_09h21.46.549,fluency,2022.2.5,Win32,59.16459591,,,,,,,,,,,,,,,,,,,,,,,,,,,,,,3,7,img/B07_03.jpg,MF,Press J if the face is FEMALE and K if the face is MALE, ,KJ,,,,,,,,,,,,,,,,,,,,,,,,,,,,,,,,8,0.54,,,,,,,,,,,,,,,,,,,,space,0.5722,0,20,20,69,1,,,,,,,,,,,,,,,,,,,,,,,,,,,,,,,,,,,,,,,,,,,,,,,,,,,,,,,,,,,,,,,,,,,,,,,,,,,,,,,,,,,,
,,001749,001,03-30-2023_09h21.46.549,fluency,2022.2.5,Win32,59.16459591,,,,,,,,,,,,,,,,,,,,,,,,,,,,,,,,,,,,,,,,,,,,,,,,,,,,,,,,,,,,,,1,,,,,,,,,,,,,,,,,,,,k,0.9265,0,0,0,0,1,,,,,,,,,,,,,,,,,,,,,,,,,,,,,,,,,,,,,,,,,,,,,,,,,,,,,,,,,,,,,,,,,,,,,,,,,,,,,,,,,,,,,,,,,,,
,,001749,001,03-30-2023_09h21.46.549,fluency,2022.2.5,Win32,59.16459591,,,,,,,,,,,,,,,,,,,,,,,,,,,,,,6,7,img/B07_06.jpg,MF,Press J if the face is FEMALE and K if the face is MALE, ,KJ,,,,,,,,,,,,,,,,,,,,,,,,,,,,,,,,7,0.1203,,,,,,,,,,,,,,,,,,,,space,1.5847,0,21,21,72,1,,,,,,,,,,,,,,,,,,,,,,,,,,,,,,,,,,,,,,,,,,,,,,,,,,,,,,,,,,,,,,,,,,,,,,,,,,,,,,,,,,,,
,,001749,001,03-30-2023_09h21.46.549,fluency,2022.2.5,Win32,59.16459591,,,,,,,,,,,,,,,,,,,,,,,,,,,,,,,,,,,,,,,,,,,,,,,,,,,,,,,,,,,,,,1,,,,,,,,,,,,,,,,,,,,j,1.3283,0,0,0,0,1,,,,,,,,,,,,,,,,,,,,,,,,,,,,,,,,,,,,,,,,,,,,,,,,,,,,,,,,,,,,,,,,,,,,,,,,,,,,,,,,,,,,,,,,,,,
,,001749,001,03-30-2023_09h21.46.549,fluency,2022.2.5,Win32,59.16459591,,,,,,,,,,,,,,,,,,,,,,,,,,,,,,5,1,img/B01_05.jpg,MF,Press J if the face is FEMALE and K if the face is MALE, ,KJ,,,,,,,,,,,,,,,,,,,,,,,,,,,,,,,,8,1.1615,,,,,,,,,,,,,,,,,,,,space,1.072,0,22,22,5,1,,,,,,,,,,,,,,,,,,,,,,,,,,,,,,,,,,,,,,,,,,,,,,,,,,,,,,,,,,,,,,,,,,,,,,,,,,,,,,,,,,,,
,,001749,001,03-30-2023_09h21.46.549,fluency,2022.2.5,Win32,59.16459591,,,,,,,,,,,,,,,,,,,,,,,,,,,,,,,,,,,,,,,,,,,,,,,,,,,,,,,,,,,,,,1,,,,,,,,,,,,,,,,,,,,j,0.9027,0,0,0,0,1,,,,,,,,,,,,,,,,,,,,,,,,,,,,,,,,,,,,,,,,,,,,,,,,,,,,,,,,,,,,,,,,,,,,,,,,,,,,,,,,,,,,,,,,,,,
,,001749,001,03-30-2023_09h21.46.549,fluency,2022.2.5,Win32,59.16459591,,,,,,,,,,,,,,,,,,,,,,,,,,,,,,8,7,img/B07_08.jpg,MF,Press J if the face is FEMALE and K if the face is MALE, ,KJ,,,,,,,,,,,,,,,,,,,,,,,,,,,,,,,,7,1.0235,,,,,,,,,,,,,,,,,,,,space,0.8182,0,23,23,74,1,,,,,,,,,,,,,,,,,,,,,,,,,,,,,,,,,,,,,,,,,,,,,,,,,,,,,,,,,,,,,,,,,,,,,,,,,,,,,,,,,,,,
,,001749,001,03-30-2023_09h21.46.549,fluency,2022.2.5,Win32,59.16459591,,,,,,,,,,,,,,,,,,,,,,,,,,,,,,,,,,,,,,,,,,,,,,,,,,,,,,,,,,,,,,1,,,,,,,,,,,,,,,,,,,,j,0.8416,0,0,0,0,1,,,,,,,,,,,,,,,,,,,,,,,,,,,,,,,,,,,,,,,,,,,,,,,,,,,,,,,,,,,,,,,,,,,,,,,,,,,,,,,,,,,,,,,,,,,
,,001749,001,03-30-2023_09h21.46.549,fluency,2022.2.5,Win32,59.16459591,,,,,,,,,,,,,,,,,,,,,,,,,,,,,,8,6,img/B06_08.jpg,MF,Press J if the face is FEMALE and K if the face is MALE, ,KJ,,,,,,,,,,,,,,,,,,,,,,,,,,,,,,,,6,0.1719,,,,,,,,,,,,,,,,,,,,space,0.8279,0,24,24,63,1,,,,,,,,,,,,,,,,,,,,,,,,,,,,,,,,,,,,,,,,,,,,,,,,,,,,,,,,,,,,,,,,,,,,,,,,,,,,,,,,,,,,
,,001749,001,03-30-2023_09h21.46.549,fluency,2022.2.5,Win32,59.16459591,,,,,,,,,,,,,,,,,,,,,,,,,,,,,,,,,,,,,,,,,,,,,,,,,,,,,,,,,,,,,,1,,,,,,,,,,,,,,,,,,,,j,0.7786,0,0,0,0,1,,,,,,,,,,,,,,,,,,,,,,,,,,,,,,,,,,,,,,,,,,,,,,,,,,,,,,,,,,,,,,,,,,,,,,,,,,,,,,,,,,,,,,,,,,,
,,001749,001,03-30-2023_09h21.46.549,fluency,2022.2.5,Win32,59.16459591,,,,,,,,,,,,,,,,,,,,,,,,,,,,,,7,3,img/B03_07.jpg,MF,Press J if the face is FEMALE and K if the face is MALE, ,KJ,,,,,,,,,,,,,,,,,,,,,,,,,,,,,,,,7,0.0995,,,,,,,,,,,,,,,,,,,,space,0.5842,0,25,25,29,1,,,,,,,,,,,,,,,,,,,,,,,,,,,,,,,,,,,,,,,,,,,,,,,,,,,,,,,,,,,,,,,,,,,,,,,,,,,,,,,,,,,,
,,001749,001,03-30-2023_09h21.46.549,fluency,2022.2.5,Win32,59.16459591,,,,,,,,,,,,,,,,,,,,,,,,,,,,,,,,,,,,,,,,,,,,,,,,,,,,,,,,,,,,,,1,,,,,,,,,,,,,,,,,,,,k,1.1528,0,0,0,0,1,,,,,,,,,,,,,,,,,,,,,,,,,,,,,,,,,,,,,,,,,,,,,,,,,,,,,,,,,,,,,,,,,,,,,,,,,,,,,,,,,,,,,,,,,,,
,,001749,001,03-30-2023_09h21.46.549,fluency,2022.2.5,Win32,59.16459591,,,,,,,,,,,,,,,,,,,,,,,,,,,,,,7,8,img/B08_07.jpg,MF,Press J if the face is FEMALE and K if the face is MALE, ,KJ,,,,,,,,,,,,,,,,,,,,,,,,,,,,,,,,7,0.8964,,,,,,,,,,,,,,,,,,,,space,2.0042,0,26,26,84,1,,,,,,,,,,,,,,,,,,,,,,,,,,,,,,,,,,,,,,,,,,,,,,,,,,,,,,,,,,,,,,,,,,,,,,,,,,,,,,,,,,,,
,,001749,001,03-30-2023_09h21.46.549,fluency,2022.2.5,Win32,59.16459591,,,,,,,,,,,,,,,,,,,,,,,,,,,,,,,,,,,,,,,,,,,,,,,,,,,,,,,,,,,,,,1,,,,,,,,,,,,,,,,,,,,j,0.8599,0,0,0,0,1,,,,,,,,,,,,,,,,,,,,,,,,,,,,,,,,,,,,,,,,,,,,,,,,,,,,,,,,,,,,,,,,,,,,,,,,,,,,,,,,,,,,,,,,,,,
,,001749,001,03-30-2023_09h21.46.549,fluency,2022.2.5,Win32,59.16459591,,,,,,,,,,,,,,,,,,,,,,,,,,,,,,6,4,img/B04_06.jpg,MF,Press J if the face is FEMALE and K if the face is MALE, ,KJ,,,,,,,,,,,,,,,,,,,,,,,,,,,,,,,,7,0.8585,,,,,,,,,,,,,,,,,,,,space,1.2666,0,27,27,39,1,,,,,,,,,,,,,,,,,,,,,,,,,,,,,,,,,,,,,,,,,,,,,,,,,,,,,,,,,,,,,,,,,,,,,,,,,,,,,,,,,,,,
,,001749,001,03-30-2023_09h21.46.549,fluency,2022.2.5,Win32,59.16459591,,,,,,,,,,,,,,,,,,,,,,,,,,,,,,,,,,,,,,,,,,,,,,,,,,,,,,,,,,,,,,1,,,,,,,,,,,,,,,,,,,,k,0.9544,0,0,0,0,1,,,,,,,,,,,,,,,,,,,,,,,,,,,,,,,,,,,,,,,,,,,,,,,,,,,,,,,,,,,,,,,,,,,,,,,,,,,,,,,,,,,,,,,,,,,
,,001749,001,03-30-2023_09h21.46.549,fluency,2022.2.5,Win32,59.16459591,,,,,,,,,,,,,,,,,,,,,,,,,,,,,,0,1,img/B01_00.jpg,MF,Press J if the face is FEMALE and K if the face is MALE, ,KJ,,,,,,,,,,,,,,,,,,,,,,,,,,,,,,,,5,0.6595,,,,,,,,,,,,,,,,,,,,space,3.3309,0,28,28,0,1,,,,,,,,,,,,,,,,,,,,,,,,,,,,,,,,,,,,,,,,,,,,,,,,,,,,,,,,,,,,,,,,,,,,,,,,,,,,,,,,,,,,
,,001749,001,03-30-2023_09h21.46.549,fluency,2022.2.5,Win32,59.16459591,,,,,,,,,,,,,,,,,,,,,,,,,,,,,,,,,,,,,,,,,,,,,,,,,,,,,,,,,,,,,,1,,,,,,,,,,,,,,,,,,,,j,0.7218,0,0,0,0,1,,,,,,,,,,,,,,,,,,,,,,,,,,,,,,,,,,,,,,,,,,,,,,,,,,,,,,,,,,,,,,,,,,,,,,,,,,,,,,,,,,,,,,,,,,,
,,001749,001,03-30-2023_09h21.46.549,fluency,2022.2.5,Win32,59.16459591,,,,,,,,,,,,,,,,,,,,,,,,,,,,,,7,1,img/B01_07.jpg,MF,Press J if the face is FEMALE and K if the face is MALE, ,KJ,,,,,,,,,,,,,,,,,,,,,,,,,,,,,,,,8,0.9526,,,,,,,,,,,,,,,,,,,,space,3.9205,0,29,29,7,1,,,,,,,,,,,,,,,,,,,,,,,,,,,,,,,,,,,,,,,,,,,,,,,,,,,,,,,,,,,,,,,,,,,,,,,,,,,,,,,,,,,,
,,001749,001,03-30-2023_09h21.46.549,fluency,2022.2.5,Win32,59.16459591,,,,,,,,,,,,,,,,,,,,,,,,,,,,,,,,,,,,,,,,,,,,,,,,,,,,,,,,,,,,,,1,,,,,,,,,,,,,,,,,,,,j,0.6715,0,0,0,0,1,,,,,,,,,,,,,,,,,,,,,,,,,,,,,,,,,,,,,,,,,,,,,,,,,,,,,,,,,,,,,,,,,,,,,,,,,,,,,,,,,,,,,,,,,,,
,,001749,001,03-30-2023_09h21.46.549,fluency,2022.2.5,Win32,59.16459591,,,,,,,,,,,,,,,,,,,,,,,,,,,,,,3,8,img/B08_03.jpg,MF,Press J if the face is FEMALE and K if the face is MALE, ,KJ,,,,,,,,,,,,,,,,,,,,,,,,,,,,,,,,7,0.8038,,,,,,,,,,,,,,,,,,,,space,1.4023,0,30,30,80,1,,,,,,,,,,,,,,,,,,,,,,,,,,,,,,,,,,,,,,,,,,,,,,,,,,,,,,,,,,,,,,,,,,,,,,,,,,,,,,,,,,,,
,,001749,001,03-30-2023_09h21.46.549,fluency,2022.2.5,Win32,59.16459591,,,,,,,,,,,,,,,,,,,,,,,,,,,,,,,,,,,,,,,,,,,,,,,,,,,,,,,,,,,,,,1,,,,,,,,,,,,,,,,,,,,j,1.8358,0,0,0,0,1,,,,,,,,,,,,,,,,,,,,,,,,,,,,,,,,,,,,,,,,,,,,,,,,,,,,,,,,,,,,,,,,,,,,,,,,,,,,,,,,,,,,,,,,,,,
,,001749,001,03-30-2023_09h21.46.549,fluency,2022.2.5,Win32,59.16459591,,,,,,,,,,,,,,,,,,,,,,,,,,,,,,8,3,img/B03_08.jpg,MF,Press J if the face is FEMALE and K if the face is MALE, ,KJ,,,,,,,,,,,,,,,,,,,,,,,,,,,,,,,,7,1.0397,,,,,,,,,,,,,,,,,,,,space,3.5799,0,31,31,30,1,,,,,,,,,,,,,,,,,,,,,,,,,,,,,,,,,,,,,,,,,,,,,,,,,,,,,,,,,,,,,,,,,,,,,,,,,,,,,,,,,,,,
,,001749,001,03-30-2023_09h21.46.549,fluency,2022.2.5,Win32,59.16459591,,,,,,,,,,,,,,,,,,,,,,,,,,,,,,,,,,,,,,,,,,,,,,,,,,,,,,,,,,,,,,1,,,,,,,,,,,,,,,,,,,,j,0.8188,0,0,0,0,1,,,,,,,,,,,,,,,,,,,,,,,,,,,,,,,,,,,,,,,,,,,,,,,,,,,,,,,,,,,,,,,,,,,,,,,,,,,,,,,,,,,,,,,,,,,
,,001749,001,03-30-2023_09h21.46.549,fluency,2022.2.5,Win32,59.16459591,,,,,,,,,,,,,,,,,,,,,,,,,,,,,,10,4,img/B04_10.jpg,MF,Press J if the face is FEMALE and K if the face is MALE, ,KJ,,,,,,,,,,,,,,,,,,,,,,,,,,,,,,,,5,0.1415,,,,,,,,,,,,,,,,,,,,space,0.9752,0,32,32,43,1,,,,,,,,,,,,,,,,,,,,,,,,,,,,,,,,,,,,,,,,,,,,,,,,,,,,,,,,,,,,,,,,,,,,,,,,,,,,,,,,,,,,
,,001749,001,03-30-2023_09h21.46.549,fluency,2022.2.5,Win32,59.16459591,,,,,,,,,,,,,,,,,,,,,,,,,,,,,,,,,,,,,,,,,,,,,,,,,,,,,,,,,,,,,,1,,,,,,,,,,,,,,,,,,,,j,0.7031,0,0,0,0,1,,,,,,,,,,,,,,,,,,,,,,,,,,,,,,,,,,,,,,,,,,,,,,,,,,,,,,,,,,,,,,,,,,,,,,,,,,,,,,,,,,,,,,,,,,,
,,001749,001,03-30-2023_09h21.46.549,fluency,2022.2.5,Win32,59.16459591,,,,,,,,,,,,,,,,,,,,,,,,,,,,,,9,10,img/B10_09.jpg,MF,Press J if the face is FEMALE and K if the face is MALE, ,KJ,,,,,,,,,,,,,,,,,,,,,,,,,,,,,,,,7,0.7548,,,,,,,,,,,,,,,,,,,,space,2.9371,0,33,33,108,1,,,,,,,,,,,,,,,,,,,,,,,,,,,,,,,,,,,,,,,,,,,,,,,,,,,,,,,,,,,,,,,,,,,,,,,,,,,,,,,,,,,,
,,001749,001,03-30-2023_09h21.46.549,fluency,2022.2.5,Win32,59.16459591,,,,,,,,,,,,,,,,,,,,,,,,,,,,,,,,,,,,,,,,,,,,,,,,,,,,,,,,,,,,,,1,,,,,,,,,,,,,,,,,,,,k,1.0002,0,0,0,0,1,,,,,,,,,,,,,,,,,,,,,,,,,,,,,,,,,,,,,,,,,,,,,,,,,,,,,,,,,,,,,,,,,,,,,,,,,,,,,,,,,,,,,,,,,,,
,,001749,001,03-30-2023_09h21.46.549,fluency,2022.2.5,Win32,59.16459591,,,,,,,,,,,,,,,,,,,,,,,,,,,,,,4,9,img/B09_04.jpg,MF,Press J if the face is FEMALE and K if the face is MALE, ,KJ,,,,,,,,,,,,,,,,,,,,,,,,,,,,,,,,7,1.1735,,,,,,,,,,,,,,,,,,,,space,0.3727,0,34,34,92,1,,,,,,,,,,,,,,,,,,,,,,,,,,,,,,,,,,,,,,,,,,,,,,,,,,,,,,,,,,,,,,,,,,,,,,,,,,,,,,,,,,,,
,,001749,001,03-30-2023_09h21.46.549,fluency,2022.2.5,Win32,59.16459591,,,,,,,,,,,,,,,,,,,,,,,,,,,,,,,,,,,,,,,,,,,,,,,,,,,,,,,,,,,,,,1,,,,,,,,,,,,,,,,,,,,k,1.2699,0,0,0,0,1,,,,,,,,,,,,,,,,,,,,,,,,,,,,,,,,,,,,,,,,,,,,,,,,,,,,,,,,,,,,,,,,,,,,,,,,,,,,,,,,,,,,,,,,,,,
,,001749,001,03-30-2023_09h21.46.549,fluency,2022.2.5,Win32,59.16459591,,,,,,,,,,,,,,,,,,,,,,,,,,,,,,6,9,img/B09_06.jpg,MF,Press J if the face is FEMALE and K if the face is MALE, ,KJ,,,,,,,,,,,,,,,,,,,,,,,,,,,,,,,,7,0.8586,,,,,,,,,,,,,,,,,,,,space,0.5488,0,35,35,94,1,,,,,,,,,,,,,,,,,,,,,,,,,,,,,,,,,,,,,,,,,,,,,,,,,,,,,,,,,,,,,,,,,,,,,,,,,,,,,,,,,,,,
,,001749,001,03-30-2023_09h21.46.549,fluency,2022.2.5,Win32,59.16459591,,,,,,,,,,,,,,,,,,,,,,,,,,,,,,,,,,,,,,,,,,,,,,,,,,,,,,,,,,,,,,1,,,,,,,,,,,,,,,,,,,,j,0.8512,0,0,0,0,1,,,,,,,,,,,,,,,,,,,,,,,,,,,,,,,,,,,,,,,,,,,,,,,,,,,,,,,,,,,,,,,,,,,,,,,,,,,,,,,,,,,,,,,,,,,
,,001749,001,03-30-2023_09h21.46.549,fluency,2022.2.5,Win32,59.16459591,,,,,,,,,,,,,,,,,,,,,,,,,,,,,,4,8,img/B08_04.jpg,MF,Press J if the face is FEMALE and K if the face is MALE, ,KJ,,,,,,,,,,,,,,,,,,,,,,,,,,,,,,,,6,1.3575,,,,,,,,,,,,,,,,,,,,space,0.5668,0,36,36,81,1,,,,,,,,,,,,,,,,,,,,,,,,,,,,,,,,,,,,,,,,,,,,,,,,,,,,,,,,,,,,,,,,,,,,,,,,,,,,,,,,,,,,
,,001749,001,03-30-2023_09h21.46.549,fluency,2022.2.5,Win32,59.16459591,,,,,,,,,,,,,,,,,,,,,,,,,,,,,,,,,,,,,,,,,,,,,,,,,,,,,,,,,,,,,,1,,,,,,,,,,,,,,,,,,,,k,1.1127,0,0,0,0,1,,,,,,,,,,,,,,,,,,,,,,,,,,,,,,,,,,,,,,,,,,,,,,,,,,,,,,,,,,,,,,,,,,,,,,,,,,,,,,,,,,,,,,,,,,,
,,001749,001,03-30-2023_09h21.46.549,fluency,2022.2.5,Win32,59.16459591,,,,,,,,,,,,,,,,,,,,,,,,,,,,,,1,9,img/B09_01.jpg,MF,Press J if the face is FEMALE and K if the face is MALE, ,KJ,,,,,,,,,,,,,,,,,,,,,,,,,,,,,,,,7,0.8096,,,,,,,,,,,,,,,,,,,,space,0.7839,0,37,37,89,1,,,,,,,,,,,,,,,,,,,,,,,,,,,,,,,,,,,,,,,,,,,,,,,,,,,,,,,,,,,,,,,,,,,,,,,,,,,,,,,,,,,,
,,001749,001,03-30-2023_09h21.46.549,fluency,2022.2.5,Win32,59.16459591,,,,,,,,,,,,,,,,,,,,,,,,,,,,,,,,,,,,,,,,,,,,,,,,,,,,,,,,,,,,,,1,,,,,,,,,,,,,,,,,,,,k,0.7863,0,0,0,0,1,,,,,,,,,,,,,,,,,,,,,,,,,,,,,,,,,,,,,,,,,,,,,,,,,,,,,,,,,,,,,,,,,,,,,,,,,,,,,,,,,,,,,,,,,,,
,,001749,001,03-30-2023_09h21.46.549,fluency,2022.2.5,Win32,59.16459591,,,,,,,,,,,,,,,,,,,,,,,,,,,,,,3,4,img/B04_03.jpg,MF,Press J if the face is FEMALE and K if the face is MALE, ,KJ,,,,,,,,,,,,,,,,,,,,,,,,,,,,,,,,8,0.8964,,,,,,,,,,,,,,,,,,,,space,0.5885,0,38,38,36,1,,,,,,,,,,,,,,,,,,,,,,,,,,,,,,,,,,,,,,,,,,,,,,,,,,,,,,,,,,,,,,,,,,,,,,,,,,,,,,,,,,,,
,,001749,001,03-30-2023_09h21.46.549,fluency,2022.2.5,Win32,59.16459591,,,,,,,,,,,,,,,,,,,,,,,,,,,,,,,,,,,,,,,,,,,,,,,,,,,,,,,,,,,,,,1,,,,,,,,,,,,,,,,,,,,k,0.8965,0,0,0,0,1,,,,,,,,,,,,,,,,,,,,,,,,,,,,,,,,,,,,,,,,,,,,,,,,,,,,,,,,,,,,,,,,,,,,,,,,,,,,,,,,,,,,,,,,,,,
,,001749,001,03-30-2023_09h21.46.549,fluency,2022.2.5,Win32,59.16459591,,,,,,,,,,,,,,,,,,,,,,,,,,,,,,2,7,img/B07_02.jpg,MF,Press J if the face is FEMALE and K if the face is MALE, ,KJ,,,,,,,,,,,,,,,,,,,,,,,,,,,,,,,,7,0.6073,,,,,,,,,,,,,,,,,,,,space,0.4837,0,39,39,68,1,,,,,,,,,,,,,,,,,,,,,,,,,,,,,,,,,,,,,,,,,,,,,,,,,,,,,,,,,,,,,,,,,,,,,,,,,,,,,,,,,,,,
,,001749,001,03-30-2023_09h21.46.549,fluency,2022.2.5,Win32,59.16459591,,,,,,,,,,,,,,,,,,,,,,,,,,,,,,,,,,,,,,,,,,,,,,,,,,,,,,,,,,,,,,1,,,,,,,,,,,,,,,,,,,,k,1.0092,0,0,0,0,1,,,,,,,,,,,,,,,,,,,,,,,,,,,,,,,,,,,,,,,,,,,,,,,,,,,,,,,,,,,,,,,,,,,,,,,,,,,,,,,,,,,,,,,,,,,
,,001749,001,03-30-2023_09h21.46.549,fluency,2022.2.5,Win32,59.16459591,,,,,,,,,,,,,,,,,,,,,,,,,,,,,,4,6,img/B06_04.jpg,MF,Press J if the face is FEMALE and K if the face is MALE, ,KJ,,,,,,,,,,,,,,,,,,,,,,,,,,,,,,,,6,0.7858,,,,,,,,,,,,,,,,,,,,space,0.534,0,40,40,59,1,,,,,,,,,,,,,,,,,,,,,,,,,,,,,,,,,,,,,,,,,,,,,,,,,,,,,,,,,,,,,,,,,,,,,,,,,,,,,,,,,,,,
,,001749,001,03-30-2023_09h21.46.549,fluency,2022.2.5,Win32,59.16459591,,,,,,,,,,,,,,,,,,,,,,,,,,,,,,,,,,,,,,,,,,,,,,,,,,,,,,,,,,,,,,1,,,,,,,,,,,,,,,,,,,,k,0.8706,0,0,0,0,1,,,,,,,,,,,,,,,,,,,,,,,,,,,,,,,,,,,,,,,,,,,,,,,,,,,,,,,,,,,,,,,,,,,,,,,,,,,,,,,,,,,,,,,,,,,
,,001749,001,03-30-2023_09h21.46.549,fluency,2022.2.5,Win32,59.16459591,,,,,,,,,,,,,,,,,,,,,,,,,,,,,,5,9,img/B09_05.jpg,MF,Press J if the face is FEMALE and K if the face is MALE, ,KJ,,,,,,,,,,,,,,,,,,,,,,,,,,,,,,,,8,0.4222,,,,,,,,,,,,,,,,,,,,space,0.9697,0,41,41,93,1,,,,,,,,,,,,,,,,,,,,,,,,,,,,,,,,,,,,,,,,,,,,,,,,,,,,,,,,,,,,,,,,,,,,,,,,,,,,,,,,,,,,
,,001749,001,03-30-2023_09h21.46.549,fluency,2022.2.5,Win32,59.16459591,,,,,,,,,,,,,,,,,,,,,,,,,,,,,,,,,,,,,,,,,,,,,,,,,,,,,,,,,,,,,,1,,,,,,,,,,,,,,,,,,,,k,0.8528,0,0,0,0,1,,,,,,,,,,,,,,,,,,,,,,,,,,,,,,,,,,,,,,,,,,,,,,,,,,,,,,,,,,,,,,,,,,,,,,,,,,,,,,,,,,,,,,,,,,,
,,001749,001,03-30-2023_09h21.46.549,fluency,2022.2.5,Win32,59.16459591,,,,,,,,,,,,,,,,,,,,,,,,,,,,,,4,1,img/B01_04.jpg,MF,Press J if the face is FEMALE and K if the face is MALE, ,KJ,,,,,,,,,,,,,,,,,,,,,,,,,,,,,,,,7,0.2352,,,,,,,,,,,,,,,,,,,,space,0.5244,0,42,42,4,1,,,,,,,,,,,,,,,,,,,,,,,,,,,,,,,,,,,,,,,,,,,,,,,,,,,,,,,,,,,,,,,,,,,,,,,,,,,,,,,,,,,,
,,001749,001,03-30-2023_09h21.46.549,fluency,2022.2.5,Win32,59.16459591,,,,,,,,,,,,,,,,,,,,,,,,,,,,,,,,,,,,,,,,,,,,,,,,,,,,,,,,,,,,,,1,,,,,,,,,,,,,,,,,,,,k,0.6915,0,0,0,0,1,,,,,,,,,,,,,,,,,,,,,,,,,,,,,,,,,,,,,,,,,,,,,,,,,,,,,,,,,,,,,,,,,,,,,,,,,,,,,,,,,,,,,,,,,,,
,,001749,001,03-30-2023_09h21.46.549,fluency,2022.2.5,Win32,59.16459591,,,,,,,,,,,,,,,,,,,,,,,,,,,,,,2,4,img/B04_02.jpg,MF,Press J if the face is FEMALE and K if the face is MALE, ,KJ,,,,,,,,,,,,,,,,,,,,,,,,,,,,,,,,7,0.4571,,,,,,,,,,,,,,,,,,,,space,0.5341,0,43,43,35,1,,,,,,,,,,,,,,,,,,,,,,,,,,,,,,,,,,,,,,,,,,,,,,,,,,,,,,,,,,,,,,,,,,,,,,,,,,,,,,,,,,,,
,,001749,001,03-30-2023_09h21.46.549,fluency,2022.2.5,Win32,59.16459591,,,,,,,,,,,,,,,,,,,,,,,,,,,,,,,,,,,,,,,,,,,,,,,,,,,,,,,,,,,,,,1,,,,,,,,,,,,,,,,,,,,k,0.8049,0,0,0,0,1,,,,,,,,,,,,,,,,,,,,,,,,,,,,,,,,,,,,,,,,,,,,,,,,,,,,,,,,,,,,,,,,,,,,,,,,,,,,,,,,,,,,,,,,,,,
,,001749,001,03-30-2023_09h21.46.549,fluency,2022.2.5,Win32,59.16459591,,,,,,,,,,,,,,,,,,,,,,,,,,,,,,1,5,img/B05_01.jpg,MF,Press J if the face is FEMALE and K if the face is MALE, ,KJ,,,,,,,,,,,,,,,,,,,,,,,,,,,,,,,,7,0.4198,,,,,,,,,,,,,,,,,,,,space,0.5213,0,44,44,45,1,,,,,,,,,,,,,,,,,,,,,,,,,,,,,,,,,,,,,,,,,,,,,,,,,,,,,,,,,,,,,,,,,,,,,,,,,,,,,,,,,,,,
,,001749,001,03-30-2023_09h21.46.549,fluency,2022.2.5,Win32,59.16459591,,,,,,,,,,,,,,,,,,,,,,,,,,,,,,,,,,,,,,,,,,,,,,,,,,,,,,,,,,,,,,1,,,,,,,,,,,,,,,,,,,,k,1.1069,0,0,0,0,1,,,,,,,,,,,,,,,,,,,,,,,,,,,,,,,,,,,,,,,,,,,,,,,,,,,,,,,,,,,,,,,,,,,,,,,,,,,,,,,,,,,,,,,,,,,
,,001749,001,03-30-2023_09h21.46.549,fluency,2022.2.5,Win32,59.16459591,,,,,,,,,,,,,,,,,,,,,,,,,,,,,,5,3,img/B03_05.jpg,MF,Press J if the face is FEMALE and K if the face is MALE, ,KJ,,,,,,,,,,,,,,,,,,,,,,,,,,,,,,,,8,1.2725,,,,,,,,,,,,,,,,,,,,space,0.2843,0,45,45,27,1,,,,,,,,,,,,,,,,,,,,,,,,,,,,,,,,,,,,,,,,,,,,,,,,,,,,,,,,,,,,,,,,,,,,,,,,,,,,,,,,,,,,
,,001749,001,03-30-2023_09h21.46.549,fluency,2022.2.5,Win32,59.16459591,,,,,,,,,,,,,,,,,,,,,,,,,,,,,,,,,,,,,,,,,,,,,,,,,,,,,,,,,,,,,,1,,,,,,,,,,,,,,,,,,,,k,0.791,0,0,0,0,1,,,,,,,,,,,,,,,,,,,,,,,,,,,,,,,,,,,,,,,,,,,,,,,,,,,,,,,,,,,,,,,,,,,,,,,,,,,,,,,,,,,,,,,,,,,
,,001749,001,03-30-2023_09h21.46.549,fluency,2022.2.5,Win32,59.16459591,,,,,,,,,,,,,,,,,,,,,,,,,,,,,,3,5,img/B05_03.jpg,MF,Press J if the face is FEMALE and K if the face is MALE, ,KJ,,,,,,,,,,,,,,,,,,,,,,,,,,,,,,,,7,0.495,,,,,,,,,,,,,,,,,,,,space,0.4882,0,46,46,47,1,,,,,,,,,,,,,,,,,,,,,,,,,,,,,,,,,,,,,,,,,,,,,,,,,,,,,,,,,,,,,,,,,,,,,,,,,,,,,,,,,,,,
,,001749,001,03-30-2023_09h21.46.549,fluency,2022.2.5,Win32,59.16459591,,,,,,,,,,,,,,,,,,,,,,,,,,,,,,,,,,,,,,,,,,,,,,,,,,,,,,,,,,,,,,1,,,,,,,,,,,,,,,,,,,,j,0.8417,0,0,0,0,1,,,,,,,,,,,,,,,,,,,,,,,,,,,,,,,,,,,,,,,,,,,,,,,,,,,,,,,,,,,,,,,,,,,,,,,,,,,,,,,,,,,,,,,,,,,
,,001749,001,03-30-2023_09h21.46.549,fluency,2022.2.5,Win32,59.16459591,,,,,,,,,,,,,,,,,,,,,,,,,,,,,,8,9,img/B09_08.jpg,MF,Press J if the face is FEMALE and K if the face is MALE, ,KJ,,,,,,,,,,,,,,,,,,,,,,,,,,,,,,,,6,0.8017,,,,,,,,,,,,,,,,,,,,space,1.9918,0,47,47,96,1,,,,,,,,,,,,,,,,,,,,,,,,,,,,,,,,,,,,,,,,,,,,,,,,,,,,,,,,,,,,,,,,,,,,,,,,,,,,,,,,,,,,
,,001749,001,03-30-2023_09h21.46.549,fluency,2022.2.5,Win32,59.16459591,,,,,,,,,,,,,,,,,,,,,,,,,,,,,,,,,,,,,,,,,,,,,,,,,,,,,,,,,,,,,,1,,,,,,,,,,,,,,,,,,,,j,1.1693,0,0,0,0,1,,,,,,,,,,,,,,,,,,,,,,,,,,,,,,,,,,,,,,,,,,,,,,,,,,,,,,,,,,,,,,,,,,,,,,,,,,,,,,,,,,,,,,,,,,,
,,001749,001,03-30-2023_09h21.46.549,fluency,2022.2.5,Win32,59.16459591,,,,,,,,,,,,,,,,,,,,,,,,,,,,,,8,4,img/B04_08.jpg,MF,Press J if the face is FEMALE and K if the face is MALE, ,KJ,,,,,,,,,,,,,,,,,,,,,,,,,,,,,,,,7,0.2907,,,,,,,,,,,,,,,,,,,,space,0.8397,0,48,48,41,1,,,,,,,,,,,,,,,,,,,,,,,,,,,,,,,,,,,,,,,,,,,,,,,,,,,,,,,,,,,,,,,,,,,,,,,,,,,,,,,,,,,,
,,001749,001,03-30-2023_09h21.46.549,fluency,2022.2.5,Win32,59.16459591,,,,,,,,,,,,,,,,,,,,,,,,,,,,,,,,,,,,,,,,,,,,,,,,,,,,,,,,,,,,,,1,,,,,,,,,,,,,,,,,,,,k,0.6402,0,0,0,0,1,,,,,,,,,,,,,,,,,,,,,,,,,,,,,,,,,,,,,,,,,,,,,,,,,,,,,,,,,,,,,,,,,,,,,,,,,,,,,,,,,,,,,,,,,,,
,,001749,001,03-30-2023_09h21.46.549,fluency,2022.2.5,Win32,59.16459591,,,,,,,,,,,,,,,,,,,,,,,,,,,,,,3,1,img/B01_03.jpg,MF,Press J if the face is FEMALE and K if the face is MALE, ,KJ,,,,,,,,,,,,,,,,,,,,,,,,,,,,,,,,7,0.7925,,,,,,,,,,,,,,,,,,,,space,0.5018,0,49,49,3,1,,,,,,,,,,,,,,,,,,,,,,,,,,,,,,,,,,,,,,,,,,,,,,,,,,,,,,,,,,,,,,,,,,,,,,,,,,,,,,,,,,,,
,,001749,001,03-30-2023_09h21.46.549,fluency,2022.2.5,Win32,59.16459591,,,,,,,,,,,,,,,,,,,,,,,,,,,,,,,,,,,,,,,,,,,,,,,,,,,,,,,,,,,,,,1,,,,,,,,,,,,,,,,,,,,j,0.7777,0,0,0,0,1,,,,,,,,,,,,,,,,,,,,,,,,,,,,,,,,,,,,,,,,,,,,,,,,,,,,,,,,,,,,,,,,,,,,,,,,,,,,,,,,,,,,,,,,,,,
,,001749,001,03-30-2023_09h21.46.549,fluency,2022.2.5,Win32,59.16459591,,,,,,,,,,,,,,,,,,,,,,,,,,,,,,9,9,img/B09_09.jpg,MF,Press J if the face is FEMALE and K if the face is MALE, ,KJ,,,,,,,,,,,,,,,,,,,,,,,,,,,,,,,,6,0.4393,,,,,,,,,,,,,,,,,,,,space,0.3417,0,50,50,97,1,,,,,,,,,,,,,,,,,,,,,,,,,,,,,,,,,,,,,,,,,,,,,,,,,,,,,,,,,,,,,,,,,,,,,,,,,,,,,,,,,,,,
,,001749,001,03-30-2023_09h21.46.549,fluency,2022.2.5,Win32,59.16459591,,,,,,,,,,,,,,,,,,,,,,,,,,,,,,,,,,,,,,,,,,,,,,,,,,,,,,,,,,,,,,1,,,,,,,,,,,,,,,,,,,,j,0.9005,0,0,0,0,1,,,,,,,,,,,,,,,,,,,,,,,,,,,,,,,,,,,,,,,,,,,,,,,,,,,,,,,,,,,,,,,,,,,,,,,,,,,,,,,,,,,,,,,,,,,
,,001749,001,03-30-2023_09h21.46.549,fluency,2022.2.5,Win32,59.16459591,,,,,,,,,,,,,,,,,,,,,,,,,,,,,,6,5,img/B05_06.jpg,MF,Press J if the face is FEMALE and K if the face is MALE, ,KJ,,,,,,,,,,,,,,,,,,,,,,,,,,,,,,,,7,1.042,,,,,,,,,,,,,,,,,,,,space,0.5881,0,51,51,50,1,,,,,,,,,,,,,,,,,,,,,,,,,,,,,,,,,,,,,,,,,,,,,,,,,,,,,,,,,,,,,,,,,,,,,,,,,,,,,,,,,,,,
,,001749,001,03-30-2023_09h21.46.549,fluency,2022.2.5,Win32,59.16459591,,,,,,,,,,,,,,,,,,,,,,,,,,,,,,,,,,,,,,,,,,,,,,,,,,,,,,,,,,,,,,1,,,,,,,,,,,,,,,,,,,,k,0.7571,0,0,0,0,1,,,,,,,,,,,,,,,,,,,,,,,,,,,,,,,,,,,,,,,,,,,,,,,,,,,,,,,,,,,,,,,,,,,,,,,,,,,,,,,,,,,,,,,,,,,
,,001749,001,03-30-2023_09h21.46.549,fluency,2022.2.5,Win32,59.16459591,,,,,,,,,,,,,,,,,,,,,,,,,,,,,,2,6,img/B06_02.jpg,MF,Press J if the face is FEMALE and K if the face is MALE, ,KJ,,,,,,,,,,,,,,,,,,,,,,,,,,,,,,,,6,0.9189,,,,,,,,,,,,,,,,,,,,space,2.0848,0,52,52,57,1,,,,,,,,,,,,,,,,,,,,,,,,,,,,,,,,,,,,,,,,,,,,,,,,,,,,,,,,,,,,,,,,,,,,,,,,,,,,,,,,,,,,
,,001749,001,03-30-2023_09h21.46.549,fluency,2022.2.5,Win32,59.16459591,,,,,,,,,,,,,,,,,,,,,,,,,,,,,,,,,,,,,,,,,,,,,,,,,,,,,,,,,,,,,,1,,,,,,,,,,,,,,,,,,,,j,0.7226,0,0,0,0,1,,,,,,,,,,,,,,,,,,,,,,,,,,,,,,,,,,,,,,,,,,,,,,,,,,,,,,,,,,,,,,,,,,,,,,,,,,,,,,,,,,,,,,,,,,,
,,001749,001,03-30-2023_09h21.46.549,fluency,2022.2.5,Win32,59.16459591,,,,,,,,,,,,,,,,,,,,,,,,,,,,,,9,5,img/B05_09.jpg,MF,Press J if the face is FEMALE and K if the face is MALE, ,KJ,,,,,,,,,,,,,,,,,,,,,,,,,,,,,,,,7,1.0205,,,,,,,,,,,,,,,,,,,,space,0.3655,0,53,53,53,1,,,,,,,,,,,,,,,,,,,,,,,,,,,,,,,,,,,,,,,,,,,,,,,,,,,,,,,,,,,,,,,,,,,,,,,,,,,,,,,,,,,,
,,001749,001,03-30-2023_09h21.46.549,fluency,2022.2.5,Win32,59.16459591,,,,,,,,,,,,,,,,,,,,,,,,,,,,,,,,,,,,,,,,,,,,,,,,,,,,,,,,,,,,,,1,,,,,,,,,,,,,,,,,,,,j,1.2518,0,0,0,0,1,,,,,,,,,,,,,,,,,,,,,,,,,,,,,,,,,,,,,,,,,,,,,,,,,,,,,,,,,,,,,,,,,,,,,,,,,,,,,,,,,,,,,,,,,,,
,,001749,001,03-30-2023_09h21.46.549,fluency,2022.2.5,Win32,59.16459591,,,,,,,,,,,,,,,,,,,,,,,,,,,,,,8,5,img/B05_08.jpg,MF,Press J if the face is FEMALE and K if the face is MALE, ,KJ,,,,,,,,,,,,,,,,,,,,,,,,,,,,,,,,7,0.8444,,,,,,,,,,,,,,,,,,,,space,0.4003,0,54,54,52,1,,,,,,,,,,,,,,,,,,,,,,,,,,,,,,,,,,,,,,,,,,,,,,,,,,,,,,,,,,,,,,,,,,,,,,,,,,,,,,,,,,,,
,,001749,001,03-30-2023_09h21.46.549,fluency,2022.2.5,Win32,59.16459591,,,,,,,,,,,,,,,,,,,,,,,,,,,,,,,,,,,,,,,,,,,,,,,,,,,,,,,,,,,,,,1,,,,,,,,,,,,,,,,,,,,j,1.1947,0,0,0,0,1,,,,,,,,,,,,,,,,,,,,,,,,,,,,,,,,,,,,,,,,,,,,,,,,,,,,,,,,,,,,,,,,,,,,,,,,,,,,,,,,,,,,,,,,,,,
,,001749,001,03-30-2023_09h21.46.549,fluency,2022.2.5,Win32,59.16459591,,,,,,,,,,,,,,,,,,,,,,,,,,,,,,7,7,img/B07_07.jpg,MF,Press J if the face is FEMALE and K if the face is MALE, ,KJ,,,,,,,,,,,,,,,,,,,,,,,,,,,,,,,,7,0.2608,,,,,,,,,,,,,,,,,,,,space,0.4687,0,55,55,73,1,,,,,,,,,,,,,,,,,,,,,,,,,,,,,,,,,,,,,,,,,,,,,,,,,,,,,,,,,,,,,,,,,,,,,,,,,,,,,,,,,,,,
,,001749,001,03-30-2023_09h21.46.549,fluency,2022.2.5,Win32,59.16459591,,,,,,,,,,,,,,,,,,,,,,,,,,,,,,,,,,,,,,,,,,,,,,,,,,,,,,,,,,,,,,1,,,,,,,,,,,,,,,,,,,,k,0.7442,0,0,0,0,1,,,,,,,,,,,,,,,,,,,,,,,,,,,,,,,,,,,,,,,,,,,,,,,,,,,,,,,,,,,,,,,,,,,,,,,,,,,,,,,,,,,,,,,,,,,
,,001749,001,03-30-2023_09h21.46.549,fluency,2022.2.5,Win32,59.16459591,,,,,,,,,,,,,,,,,,,,,,,,,,,,,,0,6,img/B06_00.jpg,MF,Press J if the face is FEMALE and K if the face is MALE, ,KJ,,,,,,,,,,,,,,,,,,,,,,,,,,,,,,,,6,0.6049,,,,,,,,,,,,,,,,,,,,space,0.3731,0,56,56,55,1,,,,,,,,,,,,,,,,,,,,,,,,,,,,,,,,,,,,,,,,,,,,,,,,,,,,,,,,,,,,,,,,,,,,,,,,,,,,,,,,,,,,
,,001749,001,03-30-2023_09h21.46.549,fluency,2022.2.5,Win32,59.16459591,,,,,,,,,,,,,,,,,,,,,,,,,,,,,,,,,,,,,,,,,,,,,,,,,,,,,,,,,,,,,,1,,,,,,,,,,,,,,,,,,,,j,0.7307,0,0,0,0,1,,,,,,,,,,,,,,,,,,,,,,,,,,,,,,,,,,,,,,,,,,,,,,,,,,,,,,,,,,,,,,,,,,,,,,,,,,,,,,,,,,,,,,,,,,,
,,001749,001,03-30-2023_09h21.46.549,fluency,2022.2.5,Win32,59.16459591,,,,,,,,,,,,,,,,,,,,,,,,,,,,,,7,4,img/B04_07.jpg,MF,Press J if the face is FEMALE and K if the face is MALE, ,KJ,,,,,,,,,,,,,,,,,,,,,,,,,,,,,,,,7,0.5218,,,,,,,,,,,,,,,,,,,,space,0.2996,0,57,57,40,1,,,,,,,,,,,,,,,,,,,,,,,,,,,,,,,,,,,,,,,,,,,,,,,,,,,,,,,,,,,,,,,,,,,,,,,,,,,,,,,,,,,,
,,001749,001,03-30-2023_09h21.46.549,fluency,2022.2.5,Win32,59.16459591,,,,,,,,,,,,,,,,,,,,,,,,,,,,,,,,,,,,,,,,,,,,,,,,,,,,,,,,,,,,,,1,,,,,,,,,,,,,,,,,,,,j,0.8942,0,0,0,0,1,,,,,,,,,,,,,,,,,,,,,,,,,,,,,,,,,,,,,,,,,,,,,,,,,,,,,,,,,,,,,,,,,,,,,,,,,,,,,,,,,,,,,,,,,,,
,,001749,001,03-30-2023_09h21.46.549,fluency,2022.2.5,Win32,59.16459591,,,,,,,,,,,,,,,,,,,,,,,,,,,,,,7,9,img/B09_07.jpg,MF,Press J if the face is FEMALE and K if the face is MALE, ,KJ,,,,,,,,,,,,,,,,,,,,,,,,,,,,,,,,6,0.587,,,,,,,,,,,,,,,,,,,,space,0.219,0,58,58,95,1,,,,,,,,,,,,,,,,,,,,,,,,,,,,,,,,,,,,,,,,,,,,,,,,,,,,,,,,,,,,,,,,,,,,,,,,,,,,,,,,,,,,
,,001749,001,03-30-2023_09h21.46.549,fluency,2022.2.5,Win32,59.16459591,,,,,,,,,,,,,,,,,,,,,,,,,,,,,,,,,,,,,,,,,,,,,,,,,,,,,,,,,,,,,,1,,,,,,,,,,,,,,,,,,,,k,1.1738,0,0,0,0,1,,,,,,,,,,,,,,,,,,,,,,,,,,,,,,,,,,,,,,,,,,,,,,,,,,,,,,,,,,,,,,,,,,,,,,,,,,,,,,,,,,,,,,,,,,,
,,001749,001,03-30-2023_09h21.46.549,fluency,2022.2.5,Win32,59.16459591,,,,,,,,,,,,,,,,,,,,,,,,,,,,,,6,8,img/B08_06.jpg,MF,Press J if the face is FEMALE and K if the face is MALE, ,KJ,,,,,,,,,,,,,,,,,,,,,,,,,,,,,,,,6,0.9854,,,,,,,,,,,,,,,,,,,,space,0.2503,0,59,59,83,1,,,,,,,,,,,,,,,,,,,,,,,,,,,,,,,,,,,,,,,,,,,,,,,,,,,,,,,,,,,,,,,,,,,,,,,,,,,,,,,,,,,,
,,001749,001,03-30-2023_09h21.46.549,fluency,2022.2.5,Win32,59.16459591,,,,,,,,,,,,,,,,,,,,,,,,,,,,,,,,,,,,,,,,,,,,,,,,,,,,,,,,,,,,,,1,,,,,,,,,,,,,,,,,,,,k,1.6783,0,0,0,0,1,,,,,,,,,,,,,,,,,,,,,,,,,,,,,,,,,,,,,,,,,,,,,,,,,,,,,,,,,,,,,,,,,,,,,,,,,,,,,,,,,,,,,,,,,,,
,,001749,001,03-30-2023_09h21.46.549,fluency,2022.2.5,Win32,59.16459591,,,,,,,,,,,,,,,,,,,,,,,,,,,,,,1,1,img/B01_01.jpg,MF,Press J if the face is FEMALE and K if the face is MALE, ,KJ,,,,,,,,,,,,,,,,,,,,,,,,,,,,,,,,7,1.0113,,,,,,,,,,,,,,,,,,,,space,0.2899,0,60,60,1,1,,,,,,,,,,,,,,,,,,,,,,,,,,,,,,,,,,,,,,,,,,,,,,,,,,,,,,,,,,,,,,,,,,,,,,,,,,,,,,,,,,,,
,,001749,001,03-30-2023_09h21.46.549,fluency,2022.2.5,Win32,59.16459591,,,,,,,,,,,,,,,,,,,,,,,,,,,,,,,,,,,,,,,,,,,,,,,,,,,,,,,,,,,,,,1,,,,,,,,,,,,,,,,,,,,j,0.8563,0,0,0,0,1,,,,,,,,,,,,,,,,,,,,,,,,,,,,,,,,,,,,,,,,,,,,,,,,,,,,,,,,,,,,,,,,,,,,,,,,,,,,,,,,,,,,,,,,,,,
,,001749,001,03-30-2023_09h21.46.549,fluency,2022.2.5,Win32,59.16459591,,,,,,,,,,,,,,,,,,,,,,,,,,,,,,8,1,img/B01_08.jpg,MF,Press J if the face is FEMALE and K if the face is MALE, ,KJ,,,,,,,,,,,,,,,,,,,,,,,,,,,,,,,,8,0.6733,,,,,,,,,,,,,,,,,,,,space,0.2684,0,61,61,8,1,,,,,,,,,,,,,,,,,,,,,,,,,,,,,,,,,,,,,,,,,,,,,,,,,,,,,,,,,,,,,,,,,,,,,,,,,,,,,,,,,,,,
,,001749,001,03-30-2023_09h21.46.549,fluency,2022.2.5,Win32,59.16459591,,,,,,,,,,,,,,,,,,,,,,,,,,,,,,,,,,,,,,,,,,,,,,,,,,,,,,,,,,,,,,1,,,,,,,,,,,,,,,,,,,,k,0.8371,0,0,0,0,1,,,,,,,,,,,,,,,,,,,,,,,,,,,,,,,,,,,,,,,,,,,,,,,,,,,,,,,,,,,,,,,,,,,,,,,,,,,,,,,,,,,,,,,,,,,
,,001749,001,03-30-2023_09h21.46.549,fluency,2022.2.5,Win32,59.16459591,,,,,,,,,,,,,,,,,,,,,,,,,,,,,,1,6,img/B06_01.jpg,MF,Press J if the face is FEMALE and K if the face is MALE, ,KJ,,,,,,,,,,,,,,,,,,,,,,,,,,,,,,,,6,0.5437,,,,,,,,,,,,,,,,,,,,space,0.36,0,62,62,56,1,,,,,,,,,,,,,,,,,,,,,,,,,,,,,,,,,,,,,,,,,,,,,,,,,,,,,,,,,,,,,,,,,,,,,,,,,,,,,,,,,,,,
,,001749,001,03-30-2023_09h21.46.549,fluency,2022.2.5,Win32,59.16459591,,,,,,,,,,,,,,,,,,,,,,,,,,,,,,,,,,,,,,,,,,,,,,,,,,,,,,,,,,,,,,1,,,,,,,,,,,,,,,,,,,,k,0.7953,0,0,0,0,1,,,,,,,,,,,,,,,,,,,,,,,,,,,,,,,,,,,,,,,,,,,,,,,,,,,,,,,,,,,,,,,,,,,,,,,,,,,,,,,,,,,,,,,,,,,
,,001749,001,03-30-2023_09h21.46.549,fluency,2022.2.5,Win32,59.16459591,,,,,,,,,,,,,,,,,,,,,,,,,,,,,,8,8,img/B08_08.jpg,MF,Press J if the face is FEMALE and K if the face is MALE, ,KJ,,,,,,,,,,,,,,,,,,,,,,,,,,,,,,,,7,0.7046,,,,,,,,,,,,,,,,,,,,space,0.3655,0,63,63,85,1,,,,,,,,,,,,,,,,,,,,,,,,,,,,,,,,,,,,,,,,,,,,,,,,,,,,,,,,,,,,,,,,,,,,,,,,,,,,,,,,,,,,
,,001749,001,03-30-2023_09h21.46.549,fluency,2022.2.5,Win32,59.16459591,,,,,,,,,,,,,,,,,,,,,,,,,,,,,,,,,,,,,,,,,,,,,,,,,,,,,,,,,,,,,,1,,,,,,,,,,,,,,,,,,,,k,1.391,0,0,0,0,1,,,,,,,,,,,,,,,,,,,,,,,,,,,,,,,,,,,,,,,,,,,,,,,,,,,,,,,,,,,,,,,,,,,,,,,,,,,,,,,,,,,,,,,,,,,
,,001749,001,03-30-2023_09h21.46.549,fluency,2022.2.5,Win32,59.16459591,,,,,,,,,,,,,,,,,,,,,,,,,,,,,,3,2,img/B02_03.jpg,MF,Press J if the face is FEMALE and K if the face is MALE, ,KJ,,,,,,,,,,,,,,,,,,,,,,,,,,,,,,,,7,0.8377,,,,,,,,,,,,,,,,,,,,space,0.3006,0,64,64,14,1,,,,,,,,,,,,,,,,,,,,,,,,,,,,,,,,,,,,,,,,,,,,,,,,,,,,,,,,,,,,,,,,,,,,,,,,,,,,,,,,,,,,
,,001749,001,03-30-2023_09h21.46.549,fluency,2022.2.5,Win32,59.16459591,,,,,,,,,,,,,,,,,,,,,,,,,,,,,,,,,,,,,,,,,,,,,,,,,,,,,,,,,,,,,,1,,,,,,,,,,,,,,,,,,,,k,1.0883,0,0,0,0,1,,,,,,,,,,,,,,,,,,,,,,,,,,,,,,,,,,,,,,,,,,,,,,,,,,,,,,,,,,,,,,,,,,,,,,,,,,,,,,,,,,,,,,,,,,,
,,001749,001,03-30-2023_09h21.46.549,fluency,2022.2.5,Win32,59.16459591,,,,,,,,,,,,,,,,,,,,,,,,,,,,,,1,10,img/B10_01.jpg,MF,Press J if the face is FEMALE and K if the face is MALE, ,KJ,,,,,,,,,,,,,,,,,,,,,,,,,,,,,,,,6,0.8028,,,,,,,,,,,,,,,,,,,,space,0.5339,0,65,65,100,1,,,,,,,,,,,,,,,,,,,,,,,,,,,,,,,,,,,,,,,,,,,,,,,,,,,,,,,,,,,,,,,,,,,,,,,,,,,,,,,,,,,,
,,001749,001,03-30-2023_09h21.46.549,fluency,2022.2.5,Win32,59.16459591,,,,,,,,,,,,,,,,,,,,,,,,,,,,,,,,,,,,,,,,,,,,,,,,,,,,,,,,,,,,,,1,,,,,,,,,,,,,,,,,,,,j,1.1406,0,0,0,0,1,,,,,,,,,,,,,,,,,,,,,,,,,,,,,,,,,,,,,,,,,,,,,,,,,,,,,,,,,,,,,,,,,,,,,,,,,,,,,,,,,,,,,,,,,,,
,,001749,001,03-30-2023_09h21.46.549,fluency,2022.2.5,Win32,59.16459591,,,,,,,,,,,,,,,,,,,,,,,,,,,,,,4,2,img/B02_04.jpg,MF,Press J if the face is FEMALE and K if the face is MALE, ,KJ,,,,,,,,,,,,,,,,,,,,,,,,,,,,,,,,7,1.0049,,,,,,,,,,,,,,,,,,,,space,0.3857,0,66,66,15,1,,,,,,,,,,,,,,,,,,,,,,,,,,,,,,,,,,,,,,,,,,,,,,,,,,,,,,,,,,,,,,,,,,,,,,,,,,,,,,,,,,,,
,,001749,001,03-30-2023_09h21.46.549,fluency,2022.2.5,Win32,59.16459591,,,,,,,,,,,,,,,,,,,,,,,,,,,,,,,,,,,,,,,,,,,,,,,,,,,,,,,,,,,,,,1,,,,,,,,,,,,,,,,,,,,j,0.8784,0,0,0,0,1,,,,,,,,,,,,,,,,,,,,,,,,,,,,,,,,,,,,,,,,,,,,,,,,,,,,,,,,,,,,,,,,,,,,,,,,,,,,,,,,,,,,,,,,,,,
,,001749,001,03-30-2023_09h21.46.549,fluency,2022.2.5,Win32,59.16459591,,,,,,,,,,,,,,,,,,,,,,,,,,,,,,10,6,img/B06_10.jpg,MF,Press J if the face is FEMALE and K if the face is MALE, ,KJ,,,,,,,,,,,,,,,,,,,,,,,,,,,,,,,,6,0.6402,,,,,,,,,,,,,,,,,,,,space,0.2502,0,67,67,65,1,,,,,,,,,,,,,,,,,,,,,,,,,,,,,,,,,,,,,,,,,,,,,,,,,,,,,,,,,,,,,,,,,,,,,,,,,,,,,,,,,,,,
,,001749,001,03-30-2023_09h21.46.549,fluency,2022.2.5,Win32,59.16459591,,,,,,,,,,,,,,,,,,,,,,,,,,,,,,,,,,,,,,,,,,,,,,,,,,,,,,,,,,,,,,1,,,,,,,,,,,,,,,,,,,,j,0.8354,0,0,0,0,1,,,,,,,,,,,,,,,,,,,,,,,,,,,,,,,,,,,,,,,,,,,,,,,,,,,,,,,,,,,,,,,,,,,,,,,,,,,,,,,,,,,,,,,,,,,
,,001749,001,03-30-2023_09h21.46.549,fluency,2022.2.5,Win32,59.16459591,,,,,,,,,,,,,,,,,,,,,,,,,,,,,,6,10,img/B10_06.jpg,MF,Press J if the face is FEMALE and K if the face is MALE, ,KJ,,,,,,,,,,,,,,,,,,,,,,,,,,,,,,,,6,0.8948,,,,,,,,,,,,,,,,,,,,space,2.168,0,68,68,105,1,,,,,,,,,,,,,,,,,,,,,,,,,,,,,,,,,,,,,,,,,,,,,,,,,,,,,,,,,,,,,,,,,,,,,,,,,,,,,,,,,,,,
,,001749,001,03-30-2023_09h21.46.549,fluency,2022.2.5,Win32,59.16459591,,,,,,,,,,,,,,,,,,,,,,,,,,,,,,,,,,,,,,,,,,,,,,,,,,,,,,,,,,,,,,1,,,,,,,,,,,,,,,,,,,,k,1.1263,0,0,0,0,1,,,,,,,,,,,,,,,,,,,,,,,,,,,,,,,,,,,,,,,,,,,,,,,,,,,,,,,,,,,,,,,,,,,,,,,,,,,,,,,,,,,,,,,,,,,
,,001749,001,03-30-2023_09h21.46.549,fluency,2022.2.5,Win32,59.16459591,,,,,,,,,,,,,,,,,,,,,,,,,,,,,,0,3,img/B03_00.jpg,MF,Press J if the face is FEMALE and K if the face is MALE, ,KJ,,,,,,,,,,,,,,,,,,,,,,,,,,,,,,,,5,0.6071,,,,,,,,,,,,,,,,,,,,space,0.3394,0,69,69,22,1,,,,,,,,,,,,,,,,,,,,,,,,,,,,,,,,,,,,,,,,,,,,,,,,,,,,,,,,,,,,,,,,,,,,,,,,,,,,,,,,,,,,
,,001749,001,03-30-2023_09h21.46.549,fluency,2022.2.5,Win32,59.16459591,,,,,,,,,,,,,,,,,,,,,,,,,,,,,,,,,,,,,,,,,,,,,,,,,,,,,,,,,,,,,,1,,,,,,,,,,,,,,,,,,,,k,1.5013,0,0,0,0,1,,,,,,,,,,,,,,,,,,,,,,,,,,,,,,,,,,,,,,,,,,,,,,,,,,,,,,,,,,,,,,,,,,,,,,,,,,,,,,,,,,,,,,,,,,,
,,001749,001,03-30-2023_09h21.46.549,fluency,2022.2.5,Win32,59.16459591,,,,,,,,,,,,,,,,,,,,,,,,,,,,,,5,10,img/B10_05.jpg,MF,Press J if the face is FEMALE and K if the face is MALE, ,KJ,,,,,,,,,,,,,,,,,,,,,,,,,,,,,,,,7,1.0102,,,,,,,,,,,,,,,,,,,,space,0.321,0,70,70,104,1,,,,,,,,,,,,,,,,,,,,,,,,,,,,,,,,,,,,,,,,,,,,,,,,,,,,,,,,,,,,,,,,,,,,,,,,,,,,,,,,,,,,
,,001749,001,03-30-2023_09h21.46.549,fluency,2022.2.5,Win32,59.16459591,,,,,,,,,,,,,,,,,,,,,,,,,,,,,,,,,,,,,,,,,,,,,,,,,,,,,,,,,,,,,,1,,,,,,,,,,,,,,,,,,,,k,1.0728,0,0,0,0,1,,,,,,,,,,,,,,,,,,,,,,,,,,,,,,,,,,,,,,,,,,,,,,,,,,,,,,,,,,,,,,,,,,,,,,,,,,,,,,,,,,,,,,,,,,,
,,001749,001,03-30-2023_09h21.46.549,fluency,2022.2.5,Win32,59.16459591,,,,,,,,,,,,,,,,,,,,,,,,,,,,,,2,2,img/B02_02.jpg,MF,Press J if the face is FEMALE and K if the face is MALE, ,KJ,,,,,,,,,,,,,,,,,,,,,,,,,,,,,,,,8,0.858,,,,,,,,,,,,,,,,,,,,space,0.2505,0,71,71,13,1,,,,,,,,,,,,,,,,,,,,,,,,,,,,,,,,,,,,,,,,,,,,,,,,,,,,,,,,,,,,,,,,,,,,,,,,,,,,,,,,,,,,
,,001749,001,03-30-2023_09h21.46.549,fluency,2022.2.5,Win32,59.16459591,,,,,,,,,,,,,,,,,,,,,,,,,,,,,,,,,,,,,,,,,,,,,,,,,,,,,,,,,,,,,,1,,,,,,,,,,,,,,,,,,,,k,1.0539,0,0,0,0,1,,,,,,,,,,,,,,,,,,,,,,,,,,,,,,,,,,,,,,,,,,,,,,,,,,,,,,,,,,,,,,,,,,,,,,,,,,,,,,,,,,,,,,,,,,,
,,001749,001,03-30-2023_09h21.46.549,fluency,2022.2.5,Win32,59.16459591,,,,,,,,,,,,,,,,,,,,,,,,,,,,,,4,4,img/B04_04.jpg,MF,Press J if the face is FEMALE and K if the face is MALE, ,KJ,,,,,,,,,,,,,,,,,,,,,,,,,,,,,,,,7,1.0047,,,,,,,,,,,,,,,,,,,,space,0.3057,0,72,72,37,1,,,,,,,,,,,,,,,,,,,,,,,,,,,,,,,,,,,,,,,,,,,,,,,,,,,,,,,,,,,,,,,,,,,,,,,,,,,,,,,,,,,,
,,001749,001,03-30-2023_09h21.46.549,fluency,2022.2.5,Win32,59.16459591,,,,,,,,,,,,,,,,,,,,,,,,,,,,,,,,,,,,,,,,,,,,,,,,,,,,,,,,,,,,,,1,,,,,,,,,,,,,,,,,,,,j,1.1245,0,0,0,0,1,,,,,,,,,,,,,,,,,,,,,,,,,,,,,,,,,,,,,,,,,,,,,,,,,,,,,,,,,,,,,,,,,,,,,,,,,,,,,,,,,,,,,,,,,,,
,,001749,001,03-30-2023_09h21.46.549,fluency,2022.2.5,Win32,59.16459591,,,,,,,,,,,,,,,,,,,,,,,,,,,,,,7,2,img/B02_07.jpg,MF,Press J if the face is FEMALE and K if the face is MALE, ,KJ,,,,,,,,,,,,,,,,,,,,,,,,,,,,,,,,9,0.3601,,,,,,,,,,,,,,,,,,,,space,0.8557,0,73,73,18,1,,,,,,,,,,,,,,,,,,,,,,,,,,,,,,,,,,,,,,,,,,,,,,,,,,,,,,,,,,,,,,,,,,,,,,,,,,,,,,,,,,,,
,,001749,001,03-30-2023_09h21.46.549,fluency,2022.2.5,Win32,59.16459591,,,,,,,,,,,,,,,,,,,,,,,,,,,,,,,,,,,,,,,,,,,,,,,,,,,,,,,,,,,,,,1,,,,,,,,,,,,,,,,,,,,j,1.2026,0,0,0,0,1,,,,,,,,,,,,,,,,,,,,,,,,,,,,,,,,,,,,,,,,,,,,,,,,,,,,,,,,,,,,,,,,,,,,,,,,,,,,,,,,,,,,,,,,,,,
,,001749,001,03-30-2023_09h21.46.549,fluency,2022.2.5,Win32,59.16459591,,,,,,,,,,,,,,,,,,,,,,,,,,,,,,0,8,img/B08_00.jpg,MF,Press J if the face is FEMALE and K if the face is MALE, ,KJ,,,,,,,,,,,,,,,,,,,,,,,,,,,,,,,,7,1.3217,,,,,,,,,,,,,,,,,,,,space,0.2749,0,74,74,77,1,,,,,,,,,,,,,,,,,,,,,,,,,,,,,,,,,,,,,,,,,,,,,,,,,,,,,,,,,,,,,,,,,,,,,,,,,,,,,,,,,,,,
,,001749,001,03-30-2023_09h21.46.549,fluency,2022.2.5,Win32,59.16459591,,,,,,,,,,,,,,,,,,,,,,,,,,,,,,,,,,,,,,,,,,,,,,,,,,,,,,,,,,,,,,1,,,,,,,,,,,,,,,,,,,,j,0.8456,0,0,0,0,1,,,,,,,,,,,,,,,,,,,,,,,,,,,,,,,,,,,,,,,,,,,,,,,,,,,,,,,,,,,,,,,,,,,,,,,,,,,,,,,,,,,,,,,,,,,
,,001749,001,03-30-2023_09h21.46.549,fluency,2022.2.5,Win32,59.16459591,,,,,,,,,,,,,,,,,,,,,,,,,,,,,,4,5,img/B05_04.jpg,MF,Press J if the face is FEMALE and K if the face is MALE, ,KJ,,,,,,,,,,,,,,,,,,,,,,,,,,,,,,,,6,1.6529,,,,,,,,,,,,,,,,,,,,space,0.2333,0,75,75,48,1,,,,,,,,,,,,,,,,,,,,,,,,,,,,,,,,,,,,,,,,,,,,,,,,,,,,,,,,,,,,,,,,,,,,,,,,,,,,,,,,,,,,
,,001749,001,03-30-2023_09h21.46.549,fluency,2022.2.5,Win32,59.16459591,,,,,,,,,,,,,,,,,,,,,,,,,,,,,,,,,,,,,,,,,,,,,,,,,,,,,,,,,,,,,,1,,,,,,,,,,,,,,,,,,,,j,1.3566,0,0,0,0,1,,,,,,,,,,,,,,,,,,,,,,,,,,,,,,,,,,,,,,,,,,,,,,,,,,,,,,,,,,,,,,,,,,,,,,,,,,,,,,,,,,,,,,,,,,,
,,001749,001,03-30-2023_09h21.46.549,fluency,2022.2.5,Win32,59.16459591,,,,,,,,,,,,,,,,,,,,,,,,,,,,,,7,6,img/B06_07.jpg,MF,Press J if the face is FEMALE and K if the face is MALE, ,KJ,,,,,,,,,,,,,,,,,,,,,,,,,,,,,,,,7,0.8756,,,,,,,,,,,,,,,,,,,,space,0.2621,0,76,76,62,1,,,,,,,,,,,,,,,,,,,,,,,,,,,,,,,,,,,,,,,,,,,,,,,,,,,,,,,,,,,,,,,,,,,,,,,,,,,,,,,,,,,,
,,001749,001,03-30-2023_09h21.46.549,fluency,2022.2.5,Win32,59.16459591,,,,,,,,,,,,,,,,,,,,,,,,,,,,,,,,,,,,,,,,,,,,,,,,,,,,,,,,,,,,,,1,,,,,,,,,,,,,,,,,,,,k,1.3501,0,0,0,0,1,,,,,,,,,,,,,,,,,,,,,,,,,,,,,,,,,,,,,,,,,,,,,,,,,,,,,,,,,,,,,,,,,,,,,,,,,,,,,,,,,,,,,,,,,,,
,,001749,001,03-30-2023_09h21.46.549,fluency,2022.2.5,Win32,59.16459591,,,,,,,,,,,,,,,,,,,,,,,,,,,,,,2,1,img/B01_02.jpg,MF,Press J if the face is FEMALE and K if the face is MALE, ,KJ,,,,,,,,,,,,,,,,,,,,,,,,,,,,,,,,7,0.8783,,,,,,,,,,,,,,,,,,,,space,0.1755,0,77,77,2,1,,,,,,,,,,,,,,,,,,,,,,,,,,,,,,,,,,,,,,,,,,,,,,,,,,,,,,,,,,,,,,,,,,,,,,,,,,,,,,,,,,,,
,,001749,001,03-30-2023_09h21.46.549,fluency,2022.2.5,Win32,59.16459591,,,,,,,,,,,,,,,,,,,,,,,,,,,,,,,,,,,,,,,,,,,,,,,,,,,,,,,,,,,,,,1,,,,,,,,,,,,,,,,,,,,k,1.0421,0,0,0,0,1,,,,,,,,,,,,,,,,,,,,,,,,,,,,,,,,,,,,,,,,,,,,,,,,,,,,,,,,,,,,,,,,,,,,,,,,,,,,,,,,,,,,,,,,,,,
,,001749,001,03-30-2023_09h21.46.549,fluency,2022.2.5,Win32,59.16459591,,,,,,,,,,,,,,,,,,,,,,,,,,,,,,3,3,img/B03_03.jpg,MF,Press J if the face is FEMALE and K if the face is MALE, ,KJ,,,,,,,,,,,,,,,,,,,,,,,,,,,,,,,,7,0.7864,,,,,,,,,,,,,,,,,,,,space,0.3896,0,78,78,25,1,,,,,,,,,,,,,,,,,,,,,,,,,,,,,,,,,,,,,,,,,,,,,,,,,,,,,,,,,,,,,,,,,,,,,,,,,,,,,,,,,,,,
,,001749,001,03-30-2023_09h21.46.549,fluency,2022.2.5,Win32,59.16459591,,,,,,,,,,,,,,,,,,,,,,,,,,,,,,,,,,,,,,,,,,,,,,,,,,,,,,,,,,,,,,1,,,,,,,,,,,,,,,,,,,,k,0.8274,0,0,0,0,1,,,,,,,,,,,,,,,,,,,,,,,,,,,,,,,,,,,,,,,,,,,,,,,,,,,,,,,,,,,,,,,,,,,,,,,,,,,,,,,,,,,,,,,,,,,
,,001749,001,03-30-2023_09h21.46.549,fluency,2022.2.5,Win32,59.16459591,,,,,,,,,,,,,,,,,,,,,,,,,,,,,,0,5,img/B05_00.jpg,MF,Press J if the face is FEMALE and K if the face is MALE, ,KJ,,,,,,,,,,,,,,,,,,,,,,,,,,,,,,,,6,1.1366,,,,,,,,,,,,,,,,,,,,space,4.3962,0,79,79,44,1,,,,,,,,,,,,,,,,,,,,,,,,,,,,,,,,,,,,,,,,,,,,,,,,,,,,,,,,,,,,,,,,,,,,,,,,,,,,,,,,,,,,
,,001749,001,03-30-2023_09h21.46.549,fluency,2022.2.5,Win32,59.16459591,,,,,,,,,,,,,,,,,,,,,,,,,,,,,,,,,,,,,,,,,,,,,,,,,,,,,,,,,,,,,,1,,,,,,,,,,,,,,,,,,,,j,1.2568,0,0,0,0,1,,,,,,,,,,,,,,,,,,,,,,,,,,,,,,,,,,,,,,,,,,,,,,,,,,,,,,,,,,,,,,,,,,,,,,,,,,,,,,,,,,,,,,,,,,,
,,001749,001,03-30-2023_09h21.46.549,fluency,2022.2.5,Win32,59.16459591,,,,,,,,,,,,,,,,,,,,,,,,,,,,,,9,7,img/B07_09.jpg,MF,Press J if the face is FEMALE and K if the face is MALE, ,KJ,,,,,,,,,,,,,,,,,,,,,,,,,,,,,,,,9,0.8095,,,,,,,,,,,,,,,,,,,,space,1.3664,0,80,80,75,1,,,,,,,,,,,,,,,,,,,,,,,,,,,,,,,,,,,,,,,,,,,,,,,,,,,,,,,,,,,,,,,,,,,,,,,,,,,,,,,,,,,,
,,001749,001,03-30-2023_09h21.46.549,fluency,2022.2.5,Win32,59.16459591,,,,,,,,,,,,,,,,,,,,,,,,,,,,,,,,,,,,,,,,,,,,,,,,,,,,,,,,,,,,,,1,,,,,,,,,,,,,,,,,,,,k,1.1423,0,0,0,0,1,,,,,,,,,,,,,,,,,,,,,,,,,,,,,,,,,,,,,,,,,,,,,,,,,,,,,,,,,,,,,,,,,,,,,,,,,,,,,,,,,,,,,,,,,,,
,,001749,001,03-30-2023_09h21.46.549,fluency,2022.2.5,Win32,59.16459591,,,,,,,,,,,,,,,,,,,,,,,,,,,,,,1,7,img/B07_01.jpg,MF,Press J if the face is FEMALE and K if the face is MALE, ,KJ,,,,,,,,,,,,,,,,,,,,,,,,,,,,,,,,7,0.8016,,,,,,,,,,,,,,,,,,,,space,0.233,0,81,81,67,1,,,,,,,,,,,,,,,,,,,,,,,,,,,,,,,,,,,,,,,,,,,,,,,,,,,,,,,,,,,,,,,,,,,,,,,,,,,,,,,,,,,,
,,001749,001,03-30-2023_09h21.46.549,fluency,2022.2.5,Win32,59.16459591,,,,,,,,,,,,,,,,,,,,,,,,,,,,,,,,,,,,,,,,,,,,,,,,,,,,,,,,,,,,,,1,,,,,,,,,,,,,,,,,,,,j,1.1255,0,0,0,0,1,,,,,,,,,,,,,,,,,,,,,,,,,,,,,,,,,,,,,,,,,,,,,,,,,,,,,,,,,,,,,,,,,,,,,,,,,,,,,,,,,,,,,,,,,,,
,,001749,001,03-30-2023_09h21.46.549,fluency,2022.2.5,Win32,59.16459591,,,,,,,,,,,,,,,,,,,,,,,,,,,,,,5,2,img/B02_05.jpg,MF,Press J if the face is FEMALE and K if the face is MALE, ,KJ,,,,,,,,,,,,,,,,,,,,,,,,,,,,,,,,7,0.5451,,,,,,,,,,,,,,,,,,,,space,0.2512,0,82,82,16,1,,,,,,,,,,,,,,,,,,,,,,,,,,,,,,,,,,,,,,,,,,,,,,,,,,,,,,,,,,,,,,,,,,,,,,,,,,,,,,,,,,,,
,,001749,001,03-30-2023_09h21.46.549,fluency,2022.2.5,Win32,59.16459591,,,,,,,,,,,,,,,,,,,,,,,,,,,,,,,,,,,,,,,,,,,,,,,,,,,,,,,,,,,,,,1,,,,,,,,,,,,,,,,,,,,j,1.1368,0,0,0,0,1,,,,,,,,,,,,,,,,,,,,,,,,,,,,,,,,,,,,,,,,,,,,,,,,,,,,,,,,,,,,,,,,,,,,,,,,,,,,,,,,,,,,,,,,,,,
,,001749,001,03-30-2023_09h21.46.549,fluency,2022.2.5,Win32,59.16459591,,,,,,,,,,,,,,,,,,,,,,,,,,,,,,7,10,img/B10_07.jpg,MF,Press J if the face is FEMALE and K if the face is MALE, ,KJ,,,,,,,,,,,,,,,,,,,,,,,,,,,,,,,,7,0.4606,,,,,,,,,,,,,,,,,,,,space,0.3315,0,83,83,106,1,,,,,,,,,,,,,,,,,,,,,,,,,,,,,,,,,,,,,,,,,,,,,,,,,,,,,,,,,,,,,,,,,,,,,,,,,,,,,,,,,,,,
,,001749,001,03-30-2023_09h21.46.549,fluency,2022.2.5,Win32,59.16459591,,,,,,,,,,,,,,,,,,,,,,,,,,,,,,,,,,,,,,,,,,,,,,,,,,,,,,,,,,,,,,1,,,,,,,,,,,,,,,,,,,,k,0.8367,0,0,0,0,1,,,,,,,,,,,,,,,,,,,,,,,,,,,,,,,,,,,,,,,,,,,,,,,,,,,,,,,,,,,,,,,,,,,,,,,,,,,,,,,,,,,,,,,,,,,
,,001749,001,03-30-2023_09h21.46.549,fluency,2022.2.5,Win32,59.16459591,,,,,,,,,,,,,,,,,,,,,,,,,,,,,,0,10,img/B10_00.jpg,MF,Press J if the face is FEMALE and K if the face is MALE, ,KJ,,,,,,,,,,,,,,,,,,,,,,,,,,,,,,,,6,0.8614,,,,,,,,,,,,,,,,,,,,space,0.2007,0,84,84,99,1,,,,,,,,,,,,,,,,,,,,,,,,,,,,,,,,,,,,,,,,,,,,,,,,,,,,,,,,,,,,,,,,,,,,,,,,,,,,,,,,,,,,
,,001749,001,03-30-2023_09h21.46.549,fluency,2022.2.5,Win32,59.16459591,,,,,,,,,,,,,,,,,,,,,,,,,,,,,,,,,,,,,,,,,,,,,,,,,,,,,,,,,,,,,,1,,,,,,,,,,,,,,,,,,,,k,0.9863,0,0,0,0,1,,,,,,,,,,,,,,,,,,,,,,,,,,,,,,,,,,,,,,,,,,,,,,,,,,,,,,,,,,,,,,,,,,,,,,,,,,,,,,,,,,,,,,,,,,,
,,001749,001,03-30-2023_09h21.46.549,fluency,2022.2.5,Win32,59.16459591,,,,,,,,,,,,,,,,,,,,,,,,,,,,,,4,3,img/B03_04.jpg,MF,Press J if the face is FEMALE and K if the face is MALE, ,KJ,,,,,,,,,,,,,,,,,,,,,,,,,,,,,,,,7,0.525,,,,,,,,,,,,,,,,,,,,space,0.2368,0,85,85,26,1,,,,,,,,,,,,,,,,,,,,,,,,,,,,,,,,,,,,,,,,,,,,,,,,,,,,,,,,,,,,,,,,,,,,,,,,,,,,,,,,,,,,
,,001749,001,03-30-2023_09h21.46.549,fluency,2022.2.5,Win32,59.16459591,,,,,,,,,,,,,,,,,,,,,,,,,,,,,,,,,,,,,,,,,,,,,,,,,,,,,,,,,,,,,,1,,,,,,,,,,,,,,,,,,,,k,0.7711,0,0,0,0,1,,,,,,,,,,,,,,,,,,,,,,,,,,,,,,,,,,,,,,,,,,,,,,,,,,,,,,,,,,,,,,,,,,,,,,,,,,,,,,,,,,,,,,,,,,,
,,001749,001,03-30-2023_09h21.46.549,fluency,2022.2.5,Win32,59.16459591,,,,,,,,,,,,,,,,,,,,,,,,,,,,,,9,8,img/B08_09.jpg,MF,Press J if the face is FEMALE and K if the face is MALE, ,KJ,,,,,,,,,,,,,,,,,,,,,,,,,,,,,,,,7,0.0298,,,,,,,,,,,,,,,,,,,,space,1.6831,0,86,86,86,1,,,,,,,,,,,,,,,,,,,,,,,,,,,,,,,,,,,,,,,,,,,,,,,,,,,,,,,,,,,,,,,,,,,,,,,,,,,,,,,,,,,,
,,001749,001,03-30-2023_09h21.46.549,fluency,2022.2.5,Win32,59.16459591,,,,,,,,,,,,,,,,,,,,,,,,,,,,,,,,,,,,,,,,,,,,,,,,,,,,,,,,,,,,,,1,,,,,,,,,,,,,,,,,,,,k,0.8882,0,0,0,0,1,,,,,,,,,,,,,,,,,,,,,,,,,,,,,,,,,,,,,,,,,,,,,,,,,,,,,,,,,,,,,,,,,,,,,,,,,,,,,,,,,,,,,,,,,,,
,,001749,001,03-30-2023_09h21.46.549,fluency,2022.2.5,Win32,59.16459591,,,,,,,,,,,,,,,,,,,,,,,,,,,,,,4,7,img/B07_04.jpg,MF,Press J if the face is FEMALE and K if the face is MALE, ,KJ,,,,,,,,,,,,,,,,,,,,,,,,,,,,,,,,7,1.1756,,,,,,,,,,,,,,,,,,,,space,1.4848,0,87,87,70,1,,,,,,,,,,,,,,,,,,,,,,,,,,,,,,,,,,,,,,,,,,,,,,,,,,,,,,,,,,,,,,,,,,,,,,,,,,,,,,,,,,,,
,,001749,001,03-30-2023_09h21.46.549,fluency,2022.2.5,Win32,59.16459591,,,,,,,,,,,,,,,,,,,,,,,,,,,,,,,,,,,,,,,,,,,,,,,,,,,,,,,,,,,,,,1,,,,,,,,,,,,,,,,,,,,k,0.7937,0,0,0,0,1,,,,,,,,,,,,,,,,,,,,,,,,,,,,,,,,,,,,,,,,,,,,,,,,,,,,,,,,,,,,,,,,,,,,,,,,,,,,,,,,,,,,,,,,,,,
,,001749,001,03-30-2023_09h21.46.549,fluency,2022.2.5,Win32,59.16459591,,,,,,,,,,,,,,,,,,,,,,,,,,,,,,0,4,img/B04_00.jpg,MF,Press J if the face is FEMALE and K if the face is MALE, ,KJ,,,,,,,,,,,,,,,,,,,,,,,,,,,,,,,,6,2.1892,,,,,,,,,,,,,,,,,,,,space,3.2046,0,88,88,33,1,,,,,,,,,,,,,,,,,,,,,,,,,,,,,,,,,,,,,,,,,,,,,,,,,,,,,,,,,,,,,,,,,,,,,,,,,,,,,,,,,,,,
,,001749,001,03-30-2023_09h21.46.549,fluency,2022.2.5,Win32,59.16459591,,,,,,,,,,,,,,,,,,,,,,,,,,,,,,,,,,,,,,,,,,,,,,,,,,,,,,,,,,,,,,1,,,,,,,,,,,,,,,,,,,,j,0.6691,0,0,0,0,1,,,,,,,,,,,,,,,,,,,,,,,,,,,,,,,,,,,,,,,,,,,,,,,,,,,,,,,,,,,,,,,,,,,,,,,,,,,,,,,,,,,,,,,,,,,
,,001749,001,03-30-2023_09h21.46.549,fluency,2022.2.5,Win32,59.16459591,,,,,,,,,,,,,,,,,,,,,,,,,,,,,,5,5,img/B05_05.jpg,MF,Press J if the face is FEMALE and K if the face is MALE, ,KJ,,,,,,,,,,,,,,,,,,,,,,,,,,,,,,,,7,1.4019,,,,,,,,,,,,,,,,,,,,space,0.7335,0,89,89,49,1,,,,,,,,,,,,,,,,,,,,,,,,,,,,,,,,,,,,,,,,,,,,,,,,,,,,,,,,,,,,,,,,,,,,,,,,,,,,,,,,,,,,
,,001749,001,03-30-2023_09h21.46.549,fluency,2022.2.5,Win32,59.16459591,,,,,,,,,,,,,,,,,,,,,,,,,,,,,,,,,,,,,,,,,,,,,,,,,,,,,,,,,,,,,,1,,,,,,,,,,,,,,,,,,,,j,1.1603,0,0,0,0,1,,,,,,,,,,,,,,,,,,,,,,,,,,,,,,,,,,,,,,,,,,,,,,,,,,,,,,,,,,,,,,,,,,,,,,,,,,,,,,,,,,,,,,,,,,,
,,001749,001,03-30-2023_09h21.46.549,fluency,2022.2.5,Win32,59.16459591,,,,,,,,,,,,,,,,,,,,,,,,,,,,,,8,2,img/B02_08.jpg,MF,Press J if the face is FEMALE and K if the face is MALE, ,KJ,,,,,,,,,,,,,,,,,,,,,,,,,,,,,,,,9,0.7208,,,,,,,,,,,,,,,,,,,,space,2.231,0,90,90,19,1,,,,,,,,,,,,,,,,,,,,,,,,,,,,,,,,,,,,,,,,,,,,,,,,,,,,,,,,,,,,,,,,,,,,,,,,,,,,,,,,,,,,
,,001749,001,03-30-2023_09h21.46.549,fluency,2022.2.5,Win32,59.16459591,,,,,,,,,,,,,,,,,,,,,,,,,,,,,,,,,,,,,,,,,,,,,,,,,,,,,,,,,,,,,,1,,,,,,,,,,,,,,,,,,,,j,1.5077,0,0,0,0,1,,,,,,,,,,,,,,,,,,,,,,,,,,,,,,,,,,,,,,,,,,,,,,,,,,,,,,,,,,,,,,,,,,,,,,,,,,,,,,,,,,,,,,,,,,,
,,001749,001,03-30-2023_09h21.46.549,fluency,2022.2.5,Win32,59.16459591,,,,,,,,,,,,,,,,,,,,,,,,,,,,,,6,2,img/B02_06.jpg,MF,Press J if the face is FEMALE and K if the face is MALE, ,KJ,,,,,,,,,,,,,,,,,,,,,,,,,,,,,,,,8,0.9228,,,,,,,,,,,,,,,,,,,,space,2.1673,0,91,91,17,1,,,,,,,,,,,,,,,,,,,,,,,,,,,,,,,,,,,,,,,,,,,,,,,,,,,,,,,,,,,,,,,,,,,,,,,,,,,,,,,,,,,,
,,001749,001,03-30-2023_09h21.46.549,fluency,2022.2.5,Win32,59.16459591,,,,,,,,,,,,,,,,,,,,,,,,,,,,,,,,,,,,,,,,,,,,,,,,,,,,,,,,,,,,,,1,,,,,,,,,,,,,,,,,,,,j,0.687,0,0,0,0,1,,,,,,,,,,,,,,,,,,,,,,,,,,,,,,,,,,,,,,,,,,,,,,,,,,,,,,,,,,,,,,,,,,,,,,,,,,,,,,,,,,,,,,,,,,,
,,001749,001,03-30-2023_09h21.46.549,fluency,2022.2.5,Win32,59.16459591,,,,,,,,,,,,,,,,,,,,,,,,,,,,,,10,2,img/B02_10.jpg,MF,Press J if the face is FEMALE and K if the face is MALE, ,KJ,,,,,,,,,,,,,,,,,,,,,,,,,,,,,,,,8,0.3317,,,,,,,,,,,,,,,,,,,,space,4.2685,0,92,92,21,1,,,,,,,,,,,,,,,,,,,,,,,,,,,,,,,,,,,,,,,,,,,,,,,,,,,,,,,,,,,,,,,,,,,,,,,,,,,,,,,,,,,,
,,001749,001,03-30-2023_09h21.46.549,fluency,2022.2.5,Win32,59.16459591,,,,,,,,,,,,,,,,,,,,,,,,,,,,,,,,,,,,,,,,,,,,,,,,,,,,,,,,,,,,,,1,,,,,,,,,,,,,,,,,,,,k,0.6541,0,0,0,0,1,,,,,,,,,,,,,,,,,,,,,,,,,,,,,,,,,,,,,,,,,,,,,,,,,,,,,,,,,,,,,,,,,,,,,,,,,,,,,,,,,,,,,,,,,,,
,,001749,001,03-30-2023_09h21.46.549,fluency,2022.2.5,Win32,59.16459591,,,,,,,,,,,,,,,,,,,,,,,,,,,,,,1,3,img/B03_01.jpg,MF,Press J if the face is FEMALE and K if the face is MALE, ,KJ,,,,,,,,,,,,,,,,,,,,,,,,,,,,,,,,6,0.4855,,,,,,,,,,,,,,,,,,,,space,0.5889,0,93,93,23,1,,,,,,,,,,,,,,,,,,,,,,,,,,,,,,,,,,,,,,,,,,,,,,,,,,,,,,,,,,,,,,,,,,,,,,,,,,,,,,,,,,,,
,,001749,001,03-30-2023_09h21.46.549,fluency,2022.2.5,Win32,59.16459591,,,,,,,,,,,,,,,,,,,,,,,,,,,,,,,,,,,,,,,,,,,,,,,,,,,,,,,,,,,,,,1,,,,,,,,,,,,,,,,,,,,j,0.9064,0,0,0,0,1,,,,,,,,,,,,,,,,,,,,,,,,,,,,,,,,,,,,,,,,,,,,,,,,,,,,,,,,,,,,,,,,,,,,,,,,,,,,,,,,,,,,,,,,,,,
,,001749,001,03-30-2023_09h21.46.549,fluency,2022.2.5,Win32,59.16459591,,,,,,,,,,,,,,,,,,,,,,,,,,,,,,1,8,img/B08_01.jpg,MF,Press J if the face is FEMALE and K if the face is MALE, ,KJ,,,,,,,,,,,,,,,,,,,,,,,,,,,,,,,,7,0.9029,,,,,,,,,,,,,,,,,,,,space,1.3158,0,94,94,78,1,,,,,,,,,,,,,,,,,,,,,,,,,,,,,,,,,,,,,,,,,,,,,,,,,,,,,,,,,,,,,,,,,,,,,,,,,,,,,,,,,,,,
,,001749,001,03-30-2023_09h21.46.549,fluency,2022.2.5,Win32,59.16459591,,,,,,,,,,,,,,,,,,,,,,,,,,,,,,,,,,,,,,,,,,,,,,,,,,,,,,,,,,,,,,1,,,,,,,,,,,,,,,,,,,,j,0.8372,0,0,0,0,1,,,,,,,,,,,,,,,,,,,,,,,,,,,,,,,,,,,,,,,,,,,,,,,,,,,,,,,,,,,,,,,,,,,,,,,,,,,,,,,,,,,,,,,,,,,
,,001749,001,03-30-2023_09h21.46.549,fluency,2022.2.5,Win32,59.16459591,,,,,,,,,,,,,,,,,,,,,,,,,,,,,,5,8,img/B08_05.jpg,MF,Press J if the face is FEMALE and K if the face is MALE, ,KJ,,,,,,,,,,,,,,,,,,,,,,,,,,,,,,,,6,1.4856,,,,,,,,,,,,,,,,,,,,space,1.3148,0,95,95,82,1,,,,,,,,,,,,,,,,,,,,,,,,,,,,,,,,,,,,,,,,,,,,,,,,,,,,,,,,,,,,,,,,,,,,,,,,,,,,,,,,,,,,
,,001749,001,03-30-2023_09h21.46.549,fluency,2022.2.5,Win32,59.16459591,,,,,,,,,,,,,,,,,,,,,,,,,,,,,,,,,,,,,,,,,,,,,,,,,,,,,,,,,,,,,,1,,,,,,,,,,,,,,,,,,,,k,0.7429,0,0,0,0,1,,,,,,,,,,,,,,,,,,,,,,,,,,,,,,,,,,,,,,,,,,,,,,,,,,,,,,,,,,,,,,,,,,,,,,,,,,,,,,,,,,,,,,,,,,,
,,001749,001,03-30-2023_09h21.46.549,fluency,2022.2.5,Win32,59.16459591,,,,,,,,,,,,,,,,,,,,,,,,,,,,,,10,8,img/B08_10.jpg,MF,Press J if the face is FEMALE and K if the face is MALE, ,KJ,,,,,,,,,,,,,,,,,,,,,,,,,,,,,,,,7,1.0865,,,,,,,,,,,,,,,,,,,,space,0.6228,0,96,96,87,1,,,,,,,,,,,,,,,,,,,,,,,,,,,,,,,,,,,,,,,,,,,,,,,,,,,,,,,,,,,,,,,,,,,,,,,,,,,,,,,,,,,,
,,001749,001,03-30-2023_09h21.46.549,fluency,2022.2.5,Win32,59.16459591,,,,,,,,,,,,,,,,,,,,,,,,,,,,,,,,,,,,,,,,,,,,,,,,,,,,,,,,,,,,,,1,,,,,,,,,,,,,,,,,,,,j,0.8429,0,0,0,0,1,,,,,,,,,,,,,,,,,,,,,,,,,,,,,,,,,,,,,,,,,,,,,,,,,,,,,,,,,,,,,,,,,,,,,,,,,,,,,,,,,,,,,,,,,,,
,,001749,001,03-30-2023_09h21.46.549,fluency,2022.2.5,Win32,59.16459591,,,,,,,,,,,,,,,,,,,,,,,,,,,,,,7,5,img/B05_07.jpg,MF,Press J if the face is FEMALE and K if the face is MALE, ,KJ,,,,,,,,,,,,,,,,,,,,,,,,,,,,,,,,6,0.8226,,,,,,,,,,,,,,,,,,,,space,0.5199,0,97,97,51,1,,,,,,,,,,,,,,,,,,,,,,,,,,,,,,,,,,,,,,,,,,,,,,,,,,,,,,,,,,,,,,,,,,,,,,,,,,,,,,,,,,,,
,,001749,001,03-30-2023_09h21.46.549,fluency,2022.2.5,Win32,59.16459591,,,,,,,,,,,,,,,,,,,,,,,,,,,,,,,,,,,,,,,,,,,,,,,,,,,,,,,,,,,,,,1,,,,,,,,,,,,,,,,,,,,k,0.8055,0,0,0,0,1,,,,,,,,,,,,,,,,,,,,,,,,,,,,,,,,,,,,,,,,,,,,,,,,,,,,,,,,,,,,,,,,,,,,,,,,,,,,,,,,,,,,,,,,,,,
,,001749,001,03-30-2023_09h21.46.549,fluency,2022.2.5,Win32,59.16459591,,,,,,,,,,,,,,,,,,,,,,,,,,,,,,0,2,img/B02_00.jpg,MF,Press J if the face is FEMALE and K if the face is MALE, ,KJ,,,,,,,,,,,,,,,,,,,,,,,,,,,,,,,,6,0.5073,,,,,,,,,,,,,,,,,,,,space,0.3685,0,98,98,11,1,,,,,,,,,,,,,,,,,,,,,,,,,,,,,,,,,,,,,,,,,,,,,,,,,,,,,,,,,,,,,,,,,,,,,,,,,,,,,,,,,,,,
,,001749,001,03-30-2023_09h21.46.549,fluency,2022.2.5,Win32,59.16459591,,,,,,,,,,,,,,,,,,,,,,,,,,,,,,,,,,,,,,,,,,,,,,,,,,,,,,,,,,,,,,1,,,,,,,,,,,,,,,,,,,,j,0.9001,0,0,0,0,1,,,,,,,,,,,,,,,,,,,,,,,,,,,,,,,,,,,,,,,,,,,,,,,,,,,,,,,,,,,,,,,,,,,,,,,,,,,,,,,,,,,,,,,,,,,
,,001749,001,03-30-2023_09h21.46.549,fluency,2022.2.5,Win32,59.16459591,,,,,,,,,,,,,,,,,,,,,,,,,,,,,,8,10,img/B10_08.jpg,MF,Press J if the face is FEMALE and K if the face is MALE, ,KJ,,,,,,,,,,,,,,,,,,,,,,,,,,,,,,,,7,0.4533,,,,,,,,,,,,,,,,,,,,space,0.5045,0,99,99,107,1,,,,,,,,,,,,,,,,,,,,,,,,,,,,,,,,,,,,,,,,,,,,,,,,,,,,,,,,,,,,,,,,,,,,,,,,,,,,,,,,,,,,
,,001749,001,03-30-2023_09h21.46.549,fluency,2022.2.5,Win32,59.16459591,,,,,,,,,,,,,,,,,,,,,,,,,,,,,,,,,,,,,,,,,,,,,,,,,,,,,,,,,,,,,,1,,,,,,,,,,,,,,,,,,,,j,1.1613,0,0,0,0,1,,,,,,,,,,,,,,,,,,,,,,,,,,,,,,,,,,,,,,,,,,,,,,,,,,,,,,,,,,,,,,,,,,,,,,,,,,,,,,,,,,,,,,,,,,,
,,001749,001,03-30-2023_09h21.46.549,fluency,2022.2.5,Win32,59.16459591,,,,,,,,,,,,,,,,,,,,,,,,,,,,,,10,9,img/B09_10.jpg,MF,Press J if the face is FEMALE and K if the face is MALE, ,KJ,,,,,,,,,,,,,,,,,,,,,,,,,,,,,,,,6,0.9248,,,,,,,,,,,,,,,,,,,,space,0.1919,0,100,100,98,1,,,,,,,,,,,,,,,,,,,,,,,,,,,,,,,,,,,,,,,,,,,,,,,,,,,,,,,,,,,,,,,,,,,,,,,,,,,,,,,,,,,,
,,001749,001,03-30-2023_09h21.46.549,fluency,2022.2.5,Win32,59.16459591,,,,,,,,,,,,,,,,,,,,,,,,,,,,,,,,,,,,,,,,,,,,,,,,,,,,,,,,,,,,,,1,,,,,,,,,,,,,,,,,,,,j,1.2449,0,0,0,0,1,,,,,,,,,,,,,,,,,,,,,,,,,,,,,,,,,,,,,,,,,,,,,,,,,,,,,,,,,,,,,,,,,,,,,,,,,,,,,,,,,,,,,,,,,,,
,,001749,001,03-30-2023_09h21.46.549,fluency,2022.2.5,Win32,59.16459591,,,,,,,,,,,,,,,,,,,,,,,,,,,,,,10,7,img/B07_10.jpg,MF,Press J if the face is FEMALE and K if the face is MALE, ,KJ,,,,,,,,,,,,,,,,,,,,,,,,,,,,,,,,8,0.5844,,,,,,,,,,,,,,,,,,,,space,0.2933,0,101,101,76,1,,,,,,,,,,,,,,,,,,,,,,,,,,,,,,,,,,,,,,,,,,,,,,,,,,,,,,,,,,,,,,,,,,,,,,,,,,,,,,,,,,,,
,,001749,001,03-30-2023_09h21.46.549,fluency,2022.2.5,Win32,59.16459591,,,,,,,,,,,,,,,,,,,,,,,,,,,,,,,,,,,,,,,,,,,,,,,,,,,,,,,,,,,,,,1,,,,,,,,,,,,,,,,,,,,j,1.3029,0,0,0,0,1,,,,,,,,,,,,,,,,,,,,,,,,,,,,,,,,,,,,,,,,,,,,,,,,,,,,,,,,,,,,,,,,,,,,,,,,,,,,,,,,,,,,,,,,,,,
,,001749,001,03-30-2023_09h21.46.549,fluency,2022.2.5,Win32,59.16459591,,,,,,,,,,,,,,,,,,,,,,,,,,,,,,6,6,img/B06_06.jpg,MF,Press J if the face is FEMALE and K if the face is MALE, ,KJ,,,,,,,,,,,,,,,,,,,,,,,,,,,,,,,,6,0.9435,,,,,,,,,,,,,,,,,,,,space,0.4689,0,102,102,61,1,,,,,,,,,,,,,,,,,,,,,,,,,,,,,,,,,,,,,,,,,,,,,,,,,,,,,,,,,,,,,,,,,,,,,,,,,,,,,,,,,,,,
,,001749,001,03-30-2023_09h21.46.549,fluency,2022.2.5,Win32,59.16459591,,,,,,,,,,,,,,,,,,,,,,,,,,,,,,,,,,,,,,,,,,,,,,,,,,,,,,,,,,,,,,1,,,,,,,,,,,,,,,,,,,,k,0.6354,0,0,0,0,1,,,,,,,,,,,,,,,,,,,,,,,,,,,,,,,,,,,,,,,,,,,,,,,,,,,,,,,,,,,,,,,,,,,,,,,,,,,,,,,,,,,,,,,,,,,
,,001749,001,03-30-2023_09h21.46.549,fluency,2022.2.5,Win32,59.16459591,,,,,,,,,,,,,,,,,,,,,,,,,,,,,,2,3,img/B03_02.jpg,MF,Press J if the face is FEMALE and K if the face is MALE, ,KJ,,,,,,,,,,,,,,,,,,,,,,,,,,,,,,,,6,1.5367,,,,,,,,,,,,,,,,,,,,space,0.2842,0,103,103,24,1,,,,,,,,,,,,,,,,,,,,,,,,,,,,,,,,,,,,,,,,,,,,,,,,,,,,,,,,,,,,,,,,,,,,,,,,,,,,,,,,,,,,
,,001749,001,03-30-2023_09h21.46.549,fluency,2022.2.5,Win32,59.16459591,,,,,,,,,,,,,,,,,,,,,,,,,,,,,,,,,,,,,,,,,,,,,,,,,,,,,,,,,,,,,,1,,,,,,,,,,,,,,,,,,,,j,1.0736,0,0,0,0,1,,,,,,,,,,,,,,,,,,,,,,,,,,,,,,,,,,,,,,,,,,,,,,,,,,,,,,,,,,,,,,,,,,,,,,,,,,,,,,,,,,,,,,,,,,,
,,001749,001,03-30-2023_09h21.46.549,fluency,2022.2.5,Win32,59.16459591,,,,,,,,,,,,,,,,,,,,,,,,,,,,,,9,3,img/B03_09.jpg,MF,Press J if the face is FEMALE and K if the face is MALE, ,KJ,,,,,,,,,,,,,,,,,,,,,,,,,,,,,,,,7,0.769,,,,,,,,,,,,,,,,,,,,space,0.2179,0,104,104,31,1,,,,,,,,,,,,,,,,,,,,,,,,,,,,,,,,,,,,,,,,,,,,,,,,,,,,,,,,,,,,,,,,,,,,,,,,,,,,,,,,,,,,
,,001749,001,03-30-2023_09h21.46.549,fluency,2022.2.5,Win32,59.16459591,,,,,,,,,,,,,,,,,,,,,,,,,,,,,,,,,,,,,,,,,,,,,,,,,,,,,,,,,,,,,,1,,,,,,,,,,,,,,,,,,,,k,0.9798,0,0,0,0,1,,,,,,,,,,,,,,,,,,,,,,,,,,,,,,,,,,,,,,,,,,,,,,,,,,,,,,,,,,,,,,,,,,,,,,,,,,,,,,,,,,,,,,,,,,,
,,001749,001,03-30-2023_09h21.46.549,fluency,2022.2.5,Win32,59.16459591,,,,,,,,,,,,,,,,,,,,,,,,,,,,,,3,9,img/B09_03.jpg,MF,Press J if the face is FEMALE and K if the face is MALE, ,KJ,,,,,,,,,,,,,,,,,,,,,,,,,,,,,,,,7,0.4949,,,,,,,,,,,,,,,,,,,,space,0.6008,0,105,105,91,1,,,,,,,,,,,,,,,,,,,,,,,,,,,,,,,,,,,,,,,,,,,,,,,,,,,,,,,,,,,,,,,,,,,,,,,,,,,,,,,,,,,,
,,001749,001,03-30-2023_09h21.46.549,fluency,2022.2.5,Win32,59.16459591,,,,,,,,,,,,,,,,,,,,,,,,,,,,,,,,,,,,,,,,,,,,,,,,,,,,,,,,,,,,,,1,,,,,,,,,,,,,,,,,,,,j,1.1185,0,0,0,0,1,,,,,,,,,,,,,,,,,,,,,,,,,,,,,,,,,,,,,,,,,,,,,,,,,,,,,,,,,,,,,,,,,,,,,,,,,,,,,,,,,,,,,,,,,,,
,,001749,001,03-30-2023_09h21.46.549,fluency,2022.2.5,Win32,59.16459591,,,,,,,,,,,,,,,,,,,,,,,,,,,,,,10,3,img/B03_10.jpg,MF,Press J if the face is FEMALE and K if the face is MALE, ,KJ,,,,,,,,,,,,,,,,,,,,,,,,,,,,,,,,7,0.4868,,,,,,,,,,,,,,,,,,,,space,0.2723,0,106,106,32,1,,,,,,,,,,,,,,,,,,,,,,,,,,,,,,,,,,,,,,,,,,,,,,,,,,,,,,,,,,,,,,,,,,,,,,,,,,,,,,,,,,,,
,,001749,001,03-30-2023_09h21.46.549,fluency,2022.2.5,Win32,59.16459591,,,,,,,,,,,,,,,,,,,,,,,,,,,,,,,,,,,,,,,,,,,,,,,,,,,,,,,,,,,,,,1,,,,,,,,,,,,,,,,,,,,k,0.977,0,0,0,0,1,,,,,,,,,,,,,,,,,,,,,,,,,,,,,,,,,,,,,,,,,,,,,,,,,,,,,,,,,,,,,,,,,,,,,,,,,,,,,,,,,,,,,,,,,,,
,,001749,001,03-30-2023_09h21.46.549,fluency,2022.2.5,Win32,59.16459591,,,,,,,,,,,,,,,,,,,,,,,,,,,,,,4,10,img/B10_04.jpg,MF,Press J if the face is FEMALE and K if the face is MALE, ,KJ,,,,,,,,,,,,,,,,,,,,,,,,,,,,,,,,7,0.6678,,,,,,,,,,,,,,,,,,,,space,0.2905,0,107,107,103,1,,,,,,,,,,,,,,,,,,,,,,,,,,,,,,,,,,,,,,,,,,,,,,,,,,,,,,,,,,,,,,,,,,,,,,,,,,,,,,,,,,,,
,,001749,001,03-30-2023_09h21.46.549,fluency,2022.2.5,Win32,59.16459591,,,,,,,,,,,,,,,,,,,,,,,,,,,,,,,,,,,,,,,,,,,,,,,,,,,,,,,,,,,,,,1,,,,,,,,,,,,,,,,,,,,j,0.9862,0,0,0,0,1,,,,,,,,,,,,,,,,,,,,,,,,,,,,,,,,,,,,,,,,,,,,,,,,,,,,,,,,,,,,,,,,,,,,,,,,,,,,,,,,,,,,,,,,,,,
,,001749,001,03-30-2023_09h21.46.549,fluency,2022.2.5,Win32,59.16459591,,,,,,,,,,,,,,,,,,,,,,,,,,,,,,9,6,img/B06_09.jpg,MF,Press J if the face is FEMALE and K if the face is MALE, ,KJ,,,,,,,,,,,,,,,,,,,,,,,,,,,,,,,,6,0.8118,,,,,,,,,,,,,,,,,,,,space,0.2841,0,108,108,64,1,,,,,,,,,,,,,,,,,,,,,,,,,,,,,,,,,,,,,,,,,,,,,,,,,,,,,,,,,,,,,,,,,,,,,,,,,,,,,,,,,,,,
,,001749,001,03-30-2023_09h21.46.549,fluency,2022.2.5,Win32,59.16459591,,,,,,,,,,,,,,,,,,,,,,,,,,,,,,,,,,,,,,,,,,,,,,,,,,,,,,,,,,,,,,1,,,,,,,,,,,,,,,,,,,,k,0.703,0,0,0,0,1,,,,,,,,,,,,,,,,,,,,,,,,,,,,,,,,,,,,,,,,,,,,,,,,,,,,,,,,,,,,,,,,,,,,,,,,,,,,,,,,,,,,,,,,,,,
,,001749,001,03-30-2023_09h21.46.549,fluency,2022.2.5,Win32,59.16459591,,,,,,,,,,,,,,,,,,,,,,,,,,,,,,1,4,img/B04_01.jpg,MF,Press J if the face is FEMALE and K if the face is MALE, ,KJ,,,,,,,,,,,,,,,,,,,,,,,,,,,,,,,,6,1.2861,,,,,,,,,,,,,,,,,,,,space,0.5484,0,109,109,34,1,,,,,,,,,,,,,,,,,,,,,,,,,,,,,,,,,,,,,,,,,,,,,,,,,,,,,,,,,,,,,,,,,,,,,,,,,,,,,,,,,,,,
,,001749,001,03-30-2023_09h21.46.549,fluency,2022.2.5,Win32,59.16459591,,,,,,,,,,,,,,,,,,,,,,,,,,,,,,,,,,,,,,,,,,,,,,,,,,,,,,,,,,,,,,,,,,,,,,,,,,,,,,,,,,,,,,,,,,,,,,,,,,,,,,,space,6.7791,,,,,,,,,,,,,,,,,,,,,,,,,,,,,,,,,,,,,,,,,,,,,,,,,,,,,,,,,,,,,,,,,,,,,,,,,,,
,,001749,001,03-30-2023_09h21.46.549,fluency,2022.2.5,Win32,59.16459591,,,,,,,,,,,,,,,,,,,,,,,,,,,,,,,,,,,,,,,,,,,,,,,,,,,,,,,,,,,,,,,,,,,,,,,,,,,,,,,,,,,,,,,,,,,,,,,,,,,,,,,,,2,9.5993,2,13.1132,2,19.5291,2,27.3689,-0.024739583,-0.3515625,1,0,0,nextButton1,,,,,,,,,,,,,,,,,,,,,,,,,,,,,,,,,,,,,,,,,,,,,,,,,,,,,,,,,,,,,
,,001749,001,03-30-2023_09h21.46.549,fluency,2022.2.5,Win32,59.16459591,,,,,,,,,,,,,,,,,,,,,,,,,,,,,,,,,,,,,,,,,,,,,,,,,,,,,,,,,,,,,,,,,,,,,,,,,,,,,,,,,,,,,,,,,,,,,,,,,,,,,,,,,,,,,,,,,,,,,,,2,6.9993,2,16.4878,3,41.8722,3,37.7829,0.08203125,-0.34765625,1,0,0,nextButton2,,,,,,,,,,,,,,,,,,,,,,,,,,,,,,,,,,,,,,,,,,,,,,,
,,001749,001,03-30-2023_09h21.46.549,fluency,2022.2.5,Win32,59.16459591,,,,,,,,,,,,,,,,,,,,,,,,,,,,,,,,,,,,,,,,,,,,,,,,,,,,,,,,,,,,,,,,,,,,,,,,,,,,,,,,,,,,,,,,,,,,,,,,,,,,,,,,,,,,,,,,,,,,,,,,,,,,,,,,,,,,,2,6.4612,2,10.2414,2,11.4064,3,21.5135,-0.045572917,-0.345052083,1,0,0,nextButton3,,,,,,,,,,,,,,,,,,,,,,,,,,,,,,,,,
,,001749,001,03-30-2023_09h21.46.549,fluency,2022.2.5,Win32,59.16459591,,,,,,,,,,,,,,,,,,,,,,,,,,,,,,,,,,,,,,,,,,,,,,,,,,,,,,,,,,,,,,,,,,,,,,,,,,,,,,,,,,,,,,,,,,,,,,,,,,,,,,,,,,,,,,,,,,,,,,,,,,,,,,,,,,,,,,,,,,,,,,,,,,,4,8.0396,5,29.8767,2,17.4998,0.115885417,-0.356770833,1,0,0,nextButton4,,,,,,,,,,,,,,,,,,,,,
,,001749,001,03-30-2023_09h21.46.549,fluency,2022.2.5,Win32,59.16459591,,,,,,,,,,,,,,,,,,,,,,,,,,,,,,,,,,,,,,,,,,,,,,,,,,,,,,,,,,,,,,,,,,,,,,,,,,,,,,,,,,,,,,,,,,,,,,,,,,,,,,,,,,,,,,,,,,,,,,,,,,,,,,,,,,,,,,,,,,,,,,,,,,,,,,,,,,,,,,,3,3.1872,5,5.7069,,-0.0234375,-0.26171875,1,0,0,nextButton5,,,,,,,,,,
,,001749,001,03-30-2023_09h21.46.549,fluency,2022.2.5,Win32,59.16459591,,,,,,,,,,,,,,,,,,,,,,,,,,,,,,,,,,,,,,,,,,,,,,,,,,,,,,,,,,,,,,,,,,,,,,,,,,,,,,,,,,,,,,,,,,,,,,,,,,,,,,,,,,,,,,,,,,,,,,,,,,,,,,,,,,,,,,,,,,,,,,,,,,,,,,,,,,,,,,,,,,,,,,,,,,,0.010416667,0.014322917,1,0,0,8.5689,,,
,,001749,001,03-30-2023_09h21.46.549,fluency,2022.2.5,Win32,59.16459591,,,,,,,,,,,,,,,,,,,,,,,,,,,,,,,,,,,,,,,,,,,,,,,,,,,,,,,,,,,,,,,,,,,,,,,,,,,,,,,,,,,,,,,,,,,,,,,,,,,,,,,,,,,,,,,,,,,,,,,,,,,,,,,,,,,,,,,,,,,,,,,,,,,,,,,,,,,,,,,,,,,,,,,,,,,,,,,,,,tab,51.9567
