idTextbox.text,welcomeDone.numClicks,welcomeDone.timesOn,welcomeDone.timesOff,participant,session,date,expName,psychopyVersion,OS,frameRate,consent_advance.keys,consent_advance.rt,consent_advance_2.keys,consent_advance_2.rt,consentClick.x,consentClick.y,consentClick.leftButton,consentClick.midButton,consentClick.rightButton,consentClick.time,consentClick.clicked_name,instr_advance_3.keys,instr_advance_3.rt,spec_instr_adv.keys,spec_instr_adv.rt,spec_instr_adv2.keys,spec_instr_adv2.rt,instrLoop.thisRepN,instrLoop.thisTrialN,instrLoop.thisN,instrLoop.thisIndex,instrLoop.ran,steps,fams,face_file,cond,instr,term,key_map,attnKeyResp1.keys,attnKeyResp1.rt,q1.thisRepN,q1.thisTrialN,q1.thisN,q1.thisIndex,q1.ran,attnKeyResp2.keys,attnKeyResp2.rt,q2.thisRepN,q2.thisTrialN,q2.thisN,q2.thisIndex,q2.ran,attnKeyResp3.keys,attnKeyResp3.rt,q3.thisRepN,q3.thisTrialN,q3.thisN,q3.thisIndex,q3.ran,practiceStart.keys,practiceStart.rt,practiceResp.keys,practiceResp.rt,timesRedone,practiceRepeat.thisRepN,practiceRepeat.thisTrialN,practiceRepeat.thisN,practiceRepeat.thisIndex,practiceRepeat.ran,attrRating.keys,attrRating.rt,practiceTrial.thisRepN,practiceTrial.thisTrialN,practiceTrial.thisN,practiceTrial.thisIndex,practiceTrial.ran,key_resp_3.keys,key_resp_3.rt,attnChecker.thisRepN,attnChecker.thisTrialN,attnChecker.thisN,attnChecker.thisIndex,attnChecker.ran,catResp.keys,catResp.rt,catAllKeys.keys,catAllKeys.rt,globalTimesRedone,repeat_loop.thisRepN,repeat_loop.thisTrialN,repeat_loop.thisN,repeat_loop.thisIndex,repeat_loop.ran,contResp.keys,contResp.rt,trials.thisRepN,trials.thisTrialN,trials.thisN,trials.thisIndex,trials.ran,redo_keypress.keys,redo_keypress.rt,redo_feedback_loop.thisRepN,redo_feedback_loop.thisTrialN,redo_feedback_loop.thisN,redo_feedback_loop.thisIndex,redo_feedback_loop.ran,contResp_2.keys,contResp_2.rt,respQ1.response,respQ1.rt,respQ2.response,respQ2.rt,respQ3.response,respQ3.rt,respQ4.response,respQ4.rt,surveyContinue1.numClicks,surveyContinue1.timesOn,surveyContinue1.timesOff,respQ5.response,respQ5.rt,respQ6.response,respQ6.rt,respQ7.response,respQ7.rt,respQ8.response,respQ8.rt,surveyContinue2.numClicks,surveyContinue2.timesOn,surveyContinue2.timesOff,respQ9.response,respQ9.rt,respQ10.response,respQ10.rt,respQ11.response,respQ11.rt,respQ12.response,respQ12.rt,surveyContinue3.numClicks,surveyContinue3.timesOn,surveyContinue3.timesOff,respQ13.response,respQ13.rt,respQ14.response,respQ14.rt,respQ15.response,respQ15.rt,surveyContinue4.numClicks,surveyContinue4.timesOn,surveyContinue4.timesOff,respAge.response,respAge.rt,genderResp1.response,genderResp1.rt,genderResp2.text,demogexitClick.numClicks,demogexitClick.timesOn,demogexitClick.timesOff,textbox.text,openAnswerClick.numClicks,openAnswerClick.timesOn,openAnswerClick.timesOff,debriefEnd.keys,debriefEnd.rt,exitKey.keys,exitKey.rt
60ee0205933c5e01fb46bdeb,1,[14.266199999999255],[14.26629999999702],042186,001,2023-07-28_02h57.02.615,fluency,2022.2.4,Win32,59.80503558,,,,,,,,,,,,,,,,,,,,,,,,,,,,,,,,,,,,,,,,,,,,,,,,,,,,,,,,,,,,,,,,,,,,,,,,,,,,,,,,,,,,,,,,,,,,,,,,,,,,,,,,,,,,,,,,,,,,,,,,,,,,,,,,,,,,,,,,,,,,,,,,,,,,,,,,,,,,,,
,,,,042186,001,2023-07-28_02h57.02.615,fluency,2022.2.4,Win32,59.80503558,space,2.6231,,,,,,,,,,,,,,,,,,,,,,,,,,,,,,,,,,,,,,,,,,,,,,,,,,,,,,,,,,,,,,,,,,,,,,,,,,,,,,,,,,,,,,,,,,,,,,,,,,,,,,,,,,,,,,,,,,,,,,,,,,,,,,,,,,,,,,,,,,,,,,,,,,,,,,,,,,,,
,,,,042186,001,2023-07-28_02h57.02.615,fluency,2022.2.4,Win32,59.80503558,,,space,0.466,,,,,,,,,,,,,,,,,,,,,,,,,,,,,,,,,,,,,,,,,,,,,,,,,,,,,,,,,,,,,,,,,,,,,,,,,,,,,,,,,,,,,,,,,,,,,,,,,,,,,,,,,,,,,,,,,,,,,,,,,,,,,,,,,,,,,,,,,,,,,,,,,,,,,,,,,,
,,,,042186,001,2023-07-28_02h57.02.615,fluency,2022.2.4,Win32,59.80503558,,,,,0.314594595,-0.352972973,1,0,0,4.5309,iAgree,,,,,,,,,,,,,,,,,,,,,,,,,,,,,,,,,,,,,,,,,,,,,,,,,,,,,,,,,,,,,,,,,,,,,,,,,,,,,,,,,,,,,,,,,,,,,,,,,,,,,,,,,,,,,,,,,,,,,,,,,,,,,,,,,,,,,,,,,,,,,,,,,,,
,,,,042186,001,2023-07-28_02h57.02.615,fluency,2022.2.4,Win32,59.80503558,,,,,,,,,,,,space,0.4538,,,,,,,,,,,,,,,,,,,,,,,,,,,,,,,,,,,,,,,,,,,,,,,,,,,,,,,,,,,,,,,,,,,,,,,,,,,,,,,,,,,,,,,,,,,,,,,,,,,,,,,,,,,,,,,,,,,,,,,,,,,,,,,,,,,,,,,,,,,,,,,,,
,,,,042186,001,2023-07-28_02h57.02.615,fluency,2022.2.4,Win32,59.80503558,,,,,,,,,,,,,,space,27.9889,space,4.8958,0,0,0,100,1,1,10,img/B10_01.jpg,GCNB,Press J if the face is GENDER-CONFORMING and K if the face is NONBINARY,Gender-conforming means that the face appears to be a typical example of its gender. Nonbinary means that the face does not conform to any particular gender norms.,JK,,,,,,,,,,,,,,,,,,,,,,,,,,,,,,,,,,,,,,,,,,,,,,,,,,,,,,,,,,,,,,,,,,,,,,,,,,,,,,,,,,,,,,,,,,,,,,,,,,,,,,,,,,,,,,,,,,,,,,,,,,,,,,,,,
,,,,042186,001,2023-07-28_02h57.02.615,fluency,2022.2.4,Win32,59.80503558,,,,,,,,,,,,,,,,,,,,,,,,,,,,,,c,12.0021,0,0,0,0,1,,,,,,,,,,,,,,,,,,,,,,,,,,,,,,,,,,,,,,,,,,,,,,,,,,,,,,,,,,,,,,,,,,,,,,,,,,,,,,,,,,,,,,,,,,,,,,,,,,,,,,,,,,,,,,,,,,,,,,,,,,
,,,,042186,001,2023-07-28_02h57.02.615,fluency,2022.2.4,Win32,59.80503558,,,,,,,,,,,,,,,,,,,,,,,,,,,,,,,,,,,,,a,4.1826,0,0,0,0,1,,,,,,,,,,,,,,,,,,,,,,,,,,,,,,,,,,,,,,,,,,,,,,,,,,,,,,,,,,,,,,,,,,,,,,,,,,,,,,,,,,,,,,,,,,,,,,,,,,,,,,,,,,,,,,,,,,,
,,,,042186,001,2023-07-28_02h57.02.615,fluency,2022.2.4,Win32,59.80503558,,,,,,,,,,,,,,,,,,,,,,,,,,,,,,,,,,,,,,,,,,,,c,4.9727,0,0,0,0,1,,,,,,,,,,,,,,,,,,,,,,,,,,,,,,,,,,,,,,,,,,,,,,,,,,,,,,,,,,,,,,,,,,,,,,,,,,,,,,,,,,,,,,,,,,,,,,,,,,,,,,,,,,,,
,,,,042186,001,2023-07-28_02h57.02.615,fluency,2022.2.4,Win32,59.80503558,,,,,,,,,,,,,,,,,,,,,,,,,,,,,,,,,,,,,,,,,,,,,,,,,,,space,1.4826,j,1.6088,0,0,0,0,0,1,,,,,,,,,,,,,,,,,,,,,,,,,,,,,,,,,,,,,,,,,,,,,,,,,,,,,,,,,,,,,,,,,,,,,,,,,,,,,,,,,,,,,,,,,,,,,,,,,,
,,,,042186,001,2023-07-28_02h57.02.615,fluency,2022.2.4,Win32,59.80503558,,,,,,,,,,,,,,,,,,,,,,,,,,,,,,,,,,,,,,,,,,,,,,,,,,,,,,,,,,,,,3,16.7302,0,0,0,0,1,,,,,,,,,,,,,,,,,,,,,,,,,,,,,,,,,,,,,,,,,,,,,,,,,,,,,,,,,,,,,,,,,,,,,,,,,,,,,,,,,,,,,,,,,,,
,,,,042186,001,2023-07-28_02h57.02.615,fluency,2022.2.4,Win32,59.80503558,,,,,,,,,,,,,,,,,,,,,,,,,,,,,,,,,,,,,,,,,,,,,,,,,,,,,,,,,,,,,,,,,,,,space,3.5493,0,0,0,0,1,,,,,,,,,,,,,,,,,,,,,,,,,,,,,,,,,,,,,,,,,,,,,,,,,,,,,,,,,,,,,,,,,,,,,,,,,,,,,,,,,,,,
,,,,042186,001,2023-07-28_02h57.02.615,fluency,2022.2.4,Win32,59.80503558,,,,,,,,,,,,,,,,,,,,,,,,,,,,,,,,,,,,,,,,,,,,,,,,,,,,,,,,,,,,,,,,,,,,,,,,,,,"[""j""]",[0.8106999999992297],"[""j""]",[0.8106999999992297],0,0,0,0,0,1,,,,,,,,,,,,,,,,,,,,,,,,,,,,,,,,,,,,,,,,,,,,,,,,,,,,,,,,,,,,,,,,,,,,,,,,,,
,,,,042186,001,2023-07-28_02h57.02.615,fluency,2022.2.4,Win32,59.80503558,,,,,,,,,,,,,,,,,,,,,,,2,3,img/B03_02.jpg,GCNB,Press J if the face is GENDER-CONFORMING and K if the face is NONBINARY,Gender-conforming means that the face appears to be a typical example of its gender. Nonbinary means that the face does not conform to any particular gender norms.,JK,,,,,,,,,,,,,,,,,,,,,,,,,,,,,,,,4,1.5602,,,,,,,,,,,,,,,,,,,,,,,space,6.9588,0,0,0,24,1,,,,,,,,,,,,,,,,,,,,,,,,,,,,,,,,,,,,,,,,,,,,,,,,,,,,,,,,,,,,,,,,,,,
,,,,042186,001,2023-07-28_02h57.02.615,fluency,2022.2.4,Win32,59.80503558,,,,,,,,,,,,,,,,,,,,,,,,,,,,,,,,,,,,,,,,,,,,,,,,,,,,,,,,,,,,,,,,,,,,,,,,,,,"[""j""]",[0.9170999999977596],"[""j""]",[0.9170999999977596],0,0,0,0,0,1,,,,,,,,,,,,,,,,,,,,,,,,,,,,,,,,,,,,,,,,,,,,,,,,,,,,,,,,,,,,,,,,,,,,,,,,,,
,,,,042186,001,2023-07-28_02h57.02.615,fluency,2022.2.4,Win32,59.80503558,,,,,,,,,,,,,,,,,,,,,,,1,4,img/B04_01.jpg,GCNB,Press J if the face is GENDER-CONFORMING and K if the face is NONBINARY,Gender-conforming means that the face appears to be a typical example of its gender. Nonbinary means that the face does not conform to any particular gender norms.,JK,,,,,,,,,,,,,,,,,,,,,,,,,,,,,,,,4,2.0938,,,,,,,,,,,,,,,,,,,,,,,space,3.5512,0,1,1,34,1,,,,,,,,,,,,,,,,,,,,,,,,,,,,,,,,,,,,,,,,,,,,,,,,,,,,,,,,,,,,,,,,,,,
,,,,042186,001,2023-07-28_02h57.02.615,fluency,2022.2.4,Win32,59.80503558,,,,,,,,,,,,,,,,,,,,,,,,,,,,,,,,,,,,,,,,,,,,,,,,,,,,,,,,,,,,,,,,,,,,,,,,,,,"[""k""]",[1.166499999999985],"[""k""]",[1.166499999999985],0,0,0,0,0,1,,,,,,,,,,,,,,,,,,,,,,,,,,,,,,,,,,,,,,,,,,,,,,,,,,,,,,,,,,,,,,,,,,,,,,,,,,
,,,,042186,001,2023-07-28_02h57.02.615,fluency,2022.2.4,Win32,59.80503558,,,,,,,,,,,,,,,,,,,,,,,5,4,img/B04_05.jpg,GCNB,Press J if the face is GENDER-CONFORMING and K if the face is NONBINARY,Gender-conforming means that the face appears to be a typical example of its gender. Nonbinary means that the face does not conform to any particular gender norms.,JK,,,,,,,,,,,,,,,,,,,,,,,,,,,,,,,,4,2.0963,,,,,,,,,,,,,,,,,,,,,,,space,2.8406,0,2,2,38,1,,,,,,,,,,,,,,,,,,,,,,,,,,,,,,,,,,,,,,,,,,,,,,,,,,,,,,,,,,,,,,,,,,,
,,,,042186,001,2023-07-28_02h57.02.615,fluency,2022.2.4,Win32,59.80503558,,,,,,,,,,,,,,,,,,,,,,,,,,,,,,,,,,,,,,,,,,,,,,,,,,,,,,,,,,,,,,,,,,,,,,,,,,,"[""j""]",[1.693699999999268],"[""j""]",[1.693699999999268],0,0,0,0,0,1,,,,,,,,,,,,,,,,,,,,,,,,,,,,,,,,,,,,,,,,,,,,,,,,,,,,,,,,,,,,,,,,,,,,,,,,,,
,,,,042186,001,2023-07-28_02h57.02.615,fluency,2022.2.4,Win32,59.80503558,,,,,,,,,,,,,,,,,,,,,,,10,7,img/B07_10.jpg,GCNB,Press J if the face is GENDER-CONFORMING and K if the face is NONBINARY,Gender-conforming means that the face appears to be a typical example of its gender. Nonbinary means that the face does not conform to any particular gender norms.,JK,,,,,,,,,,,,,,,,,,,,,,,,,,,,,,,,4,2.2914,,,,,,,,,,,,,,,,,,,,,,,space,2.9918,0,3,3,76,1,,,,,,,,,,,,,,,,,,,,,,,,,,,,,,,,,,,,,,,,,,,,,,,,,,,,,,,,,,,,,,,,,,,
,,,,042186,001,2023-07-28_02h57.02.615,fluency,2022.2.4,Win32,59.80503558,,,,,,,,,,,,,,,,,,,,,,,,,,,,,,,,,,,,,,,,,,,,,,,,,,,,,,,,,,,,,,,,,,,,,,,,,,,,,,,0,0,0,0,0,1,,,,,,,,,,,,,,,,,,,,,,,,,,,,,,,,,,,,,,,,,,,,,,,,,,,,,,,,,,,,,,,,,,,,,,,,,,
,,,,042186,001,2023-07-28_02h57.02.615,fluency,2022.2.4,Win32,59.80503558,,,,,,,,,,,,,,,,,,,,,,,7,10,img/B10_07.jpg,GCNB,Press J if the face is GENDER-CONFORMING and K if the face is NONBINARY,Gender-conforming means that the face appears to be a typical example of its gender. Nonbinary means that the face does not conform to any particular gender norms.,JK,,,,,,,,,,,,,,,,,,,,,,,,,,,,,,,,1,2.4919,,,,,,,,,,,,,,,,,,,,,,,space,1.6199,0,4,4,106,1,,,,,,,,,,,,,,,,,,,,,,,,,,,,,,,,,,,,,,,,,,,,,,,,,,,,,,,,,,,,,,,,,,,
,,,,042186,001,2023-07-28_02h57.02.615,fluency,2022.2.4,Win32,59.80503558,,,,,,,,,,,,,,,,,,,,,,,,,,,,,,,,,,,,,,,,,,,,,,,,,,,,,,,,,,,,,,,,,,,,,,,,,,,"[""k""]",[1.0829999999999984],"[""k""]",[1.0831000000014797],0,0,0,0,0,1,,,,,,,,,,,,,,,,,,,,,,,,,,,,,,,,,,,,,,,,,,,,,,,,,,,,,,,,,,,,,,,,,,,,,,,,,,
,,,,042186,001,2023-07-28_02h57.02.615,fluency,2022.2.4,Win32,59.80503558,,,,,,,,,,,,,,,,,,,,,,,3,9,img/B09_03.jpg,GCNB,Press J if the face is GENDER-CONFORMING and K if the face is NONBINARY,Gender-conforming means that the face appears to be a typical example of its gender. Nonbinary means that the face does not conform to any particular gender norms.,JK,,,,,,,,,,,,,,,,,,,,,,,,,,,,,,,,1,20.3797,,,,,,,,,,,,,,,,,,,,,,,space,2.8524,0,5,5,91,1,,,,,,,,,,,,,,,,,,,,,,,,,,,,,,,,,,,,,,,,,,,,,,,,,,,,,,,,,,,,,,,,,,,
,,,,042186,001,2023-07-28_02h57.02.615,fluency,2022.2.4,Win32,59.80503558,,,,,,,,,,,,,,,,,,,,,,,,,,,,,,,,,,,,,,,,,,,,,,,,,,,,,,,,,,,,,,,,,,,,,,,,,,,"[""k""]",[1.023300000000745],"[""k""]",[1.023300000000745],0,0,0,0,0,1,,,,,,,,,,,,,,,,,,,,,,,,,,,,,,,,,,,,,,,,,,,,,,,,,,,,,,,,,,,,,,,,,,,,,,,,,,
,,,,042186,001,2023-07-28_02h57.02.615,fluency,2022.2.4,Win32,59.80503558,,,,,,,,,,,,,,,,,,,,,,,3,2,img/B02_03.jpg,GCNB,Press J if the face is GENDER-CONFORMING and K if the face is NONBINARY,Gender-conforming means that the face appears to be a typical example of its gender. Nonbinary means that the face does not conform to any particular gender norms.,JK,,,,,,,,,,,,,,,,,,,,,,,,,,,,,,,,1,1.9651,,,,,,,,,,,,,,,,,,,,,,,space,7.5726,0,6,6,14,1,,,,,,,,,,,,,,,,,,,,,,,,,,,,,,,,,,,,,,,,,,,,,,,,,,,,,,,,,,,,,,,,,,,
,,,,042186,001,2023-07-28_02h57.02.615,fluency,2022.2.4,Win32,59.80503558,,,,,,,,,,,,,,,,,,,,,,,,,,,,,,,,,,,,,,,,,,,,,,,,,,,,,,,,,,,,,,,,,,,,,,,,,,,"[""k""]",[0.833500000000015],"[""k""]",[0.833500000000015],0,0,0,0,0,1,,,,,,,,,,,,,,,,,,,,,,,,,,,,,,,,,,,,,,,,,,,,,,,,,,,,,,,,,,,,,,,,,,,,,,,,,,
,,,,042186,001,2023-07-28_02h57.02.615,fluency,2022.2.4,Win32,59.80503558,,,,,,,,,,,,,,,,,,,,,,,4,2,img/B02_04.jpg,GCNB,Press J if the face is GENDER-CONFORMING and K if the face is NONBINARY,Gender-conforming means that the face appears to be a typical example of its gender. Nonbinary means that the face does not conform to any particular gender norms.,JK,,,,,,,,,,,,,,,,,,,,,,,,,,,,,,,,1,0.3202,,,,,,,,,,,,,,,,,,,,,,,space,3.3044,0,7,7,15,1,,,,,,,,,,,,,,,,,,,,,,,,,,,,,,,,,,,,,,,,,,,,,,,,,,,,,,,,,,,,,,,,,,,
,,,,042186,001,2023-07-28_02h57.02.615,fluency,2022.2.4,Win32,59.80503558,,,,,,,,,,,,,,,,,,,,,,,,,,,,,,,,,,,,,,,,,,,,,,,,,,,,,,,,,,,,,,,,,,,,,,,,,,,"[""k""]",[0.9801999999992574],"[""k""]",[0.9801999999992574],0,0,0,0,0,1,,,,,,,,,,,,,,,,,,,,,,,,,,,,,,,,,,,,,,,,,,,,,,,,,,,,,,,,,,,,,,,,,,,,,,,,,,
,,,,042186,001,2023-07-28_02h57.02.615,fluency,2022.2.4,Win32,59.80503558,,,,,,,,,,,,,,,,,,,,,,,8,10,img/B10_08.jpg,GCNB,Press J if the face is GENDER-CONFORMING and K if the face is NONBINARY,Gender-conforming means that the face appears to be a typical example of its gender. Nonbinary means that the face does not conform to any particular gender norms.,JK,,,,,,,,,,,,,,,,,,,,,,,,,,,,,,,,2,0.6557,,,,,,,,,,,,,,,,,,,,,,,space,1.1598,0,8,8,107,1,,,,,,,,,,,,,,,,,,,,,,,,,,,,,,,,,,,,,,,,,,,,,,,,,,,,,,,,,,,,,,,,,,,
,,,,042186,001,2023-07-28_02h57.02.615,fluency,2022.2.4,Win32,59.80503558,,,,,,,,,,,,,,,,,,,,,,,,,,,,,,,,,,,,,,,,,,,,,,,,,,,,,,,,,,,,,,,,,,,,,,,,,,,"[""k""]",[2.261399999998474],"[""k""]",[2.261300000000716],0,0,0,0,0,1,,,,,,,,,,,,,,,,,,,,,,,,,,,,,,,,,,,,,,,,,,,,,,,,,,,,,,,,,,,,,,,,,,,,,,,,,,
,,,,042186,001,2023-07-28_02h57.02.615,fluency,2022.2.4,Win32,59.80503558,,,,,,,,,,,,,,,,,,,,,,,8,6,img/B06_08.jpg,GCNB,Press J if the face is GENDER-CONFORMING and K if the face is NONBINARY,Gender-conforming means that the face appears to be a typical example of its gender. Nonbinary means that the face does not conform to any particular gender norms.,JK,,,,,,,,,,,,,,,,,,,,,,,,,,,,,,,,3,1.7956,,,,,,,,,,,,,,,,,,,,,,,space,1.023,0,9,9,63,1,,,,,,,,,,,,,,,,,,,,,,,,,,,,,,,,,,,,,,,,,,,,,,,,,,,,,,,,,,,,,,,,,,,
,,,,042186,001,2023-07-28_02h57.02.615,fluency,2022.2.4,Win32,59.80503558,,,,,,,,,,,,,,,,,,,,,,,,,,,,,,,,,,,,,,,,,,,,,,,,,,,,,,,,,,,,,,,,,,,,,,,,,,,"[""k""]",[1.2385999999977457],"[""k""]",[1.238399999998478],0,0,0,0,0,1,,,,,,,,,,,,,,,,,,,,,,,,,,,,,,,,,,,,,,,,,,,,,,,,,,,,,,,,,,,,,,,,,,,,,,,,,,
,,,,042186,001,2023-07-28_02h57.02.615,fluency,2022.2.4,Win32,59.80503558,,,,,,,,,,,,,,,,,,,,,,,10,5,img/B05_10.jpg,GCNB,Press J if the face is GENDER-CONFORMING and K if the face is NONBINARY,Gender-conforming means that the face appears to be a typical example of its gender. Nonbinary means that the face does not conform to any particular gender norms.,JK,,,,,,,,,,,,,,,,,,,,,,,,,,,,,,,,1,0.4747,,,,,,,,,,,,,,,,,,,,,,,space,0.8669,0,10,10,54,1,,,,,,,,,,,,,,,,,,,,,,,,,,,,,,,,,,,,,,,,,,,,,,,,,,,,,,,,,,,,,,,,,,,
,,,,042186,001,2023-07-28_02h57.02.615,fluency,2022.2.4,Win32,59.80503558,,,,,,,,,,,,,,,,,,,,,,,,,,,,,,,,,,,,,,,,,,,,,,,,,,,,,,,,,,,,,,,,,,,,,,,,,,,"[""j""]",[0.7843000000007123],"[""j""]",[0.7842000000029543],0,0,0,0,0,1,,,,,,,,,,,,,,,,,,,,,,,,,,,,,,,,,,,,,,,,,,,,,,,,,,,,,,,,,,,,,,,,,,,,,,,,,,
,,,,042186,001,2023-07-28_02h57.02.615,fluency,2022.2.4,Win32,59.80503558,,,,,,,,,,,,,,,,,,,,,,,0,4,img/B04_00.jpg,GCNB,Press J if the face is GENDER-CONFORMING and K if the face is NONBINARY,Gender-conforming means that the face appears to be a typical example of its gender. Nonbinary means that the face does not conform to any particular gender norms.,JK,,,,,,,,,,,,,,,,,,,,,,,,,,,,,,,,5,0.7352,,,,,,,,,,,,,,,,,,,,,,,space,0.7789,0,11,11,33,1,,,,,,,,,,,,,,,,,,,,,,,,,,,,,,,,,,,,,,,,,,,,,,,,,,,,,,,,,,,,,,,,,,,
,,,,042186,001,2023-07-28_02h57.02.615,fluency,2022.2.4,Win32,59.80503558,,,,,,,,,,,,,,,,,,,,,,,,,,,,,,,,,,,,,,,,,,,,,,,,,,,,,,,,,,,,,,,,,,,,,,,,,,,"[""j""]",[2.394800000000771],"[""j""]",[2.394800000000771],0,0,0,0,0,1,,,,,,,,,,,,,,,,,,,,,,,,,,,,,,,,,,,,,,,,,,,,,,,,,,,,,,,,,,,,,,,,,,,,,,,,,,
,,,,042186,001,2023-07-28_02h57.02.615,fluency,2022.2.4,Win32,59.80503558,,,,,,,,,,,,,,,,,,,,,,,7,5,img/B05_07.jpg,GCNB,Press J if the face is GENDER-CONFORMING and K if the face is NONBINARY,Gender-conforming means that the face appears to be a typical example of its gender. Nonbinary means that the face does not conform to any particular gender norms.,JK,,,,,,,,,,,,,,,,,,,,,,,,,,,,,,,,2,1.2399,,,,,,,,,,,,,,,,,,,,,,,space,0.4974,0,12,12,51,1,,,,,,,,,,,,,,,,,,,,,,,,,,,,,,,,,,,,,,,,,,,,,,,,,,,,,,,,,,,,,,,,,,,
,,,,042186,001,2023-07-28_02h57.02.615,fluency,2022.2.4,Win32,59.80503558,,,,,,,,,,,,,,,,,,,,,,,,,,,,,,,,,,,,,,,,,,,,,,,,,,,,,,,,,,,,,,,,,,,,,,,,,,,"[""j""]",[1.9908000000007746],"[""j""]",[1.9908000000007746],0,0,0,0,0,1,,,,,,,,,,,,,,,,,,,,,,,,,,,,,,,,,,,,,,,,,,,,,,,,,,,,,,,,,,,,,,,,,,,,,,,,,,
,,,,042186,001,2023-07-28_02h57.02.615,fluency,2022.2.4,Win32,59.80503558,,,,,,,,,,,,,,,,,,,,,,,9,3,img/B03_09.jpg,GCNB,Press J if the face is GENDER-CONFORMING and K if the face is NONBINARY,Gender-conforming means that the face appears to be a typical example of its gender. Nonbinary means that the face does not conform to any particular gender norms.,JK,,,,,,,,,,,,,,,,,,,,,,,,,,,,,,,,6,1.2888,,,,,,,,,,,,,,,,,,,,,,,space,0.5687,0,13,13,31,1,,,,,,,,,,,,,,,,,,,,,,,,,,,,,,,,,,,,,,,,,,,,,,,,,,,,,,,,,,,,,,,,,,,
,,,,042186,001,2023-07-28_02h57.02.615,fluency,2022.2.4,Win32,59.80503558,,,,,,,,,,,,,,,,,,,,,,,,,,,,,,,,,,,,,,,,,,,,,,,,,,,,,,,,,,,,,,,,,,,,,,,,,,,"[""j""]",[0.8916999999992754],"[""j""]",[0.8916999999992754],0,0,0,0,0,1,,,,,,,,,,,,,,,,,,,,,,,,,,,,,,,,,,,,,,,,,,,,,,,,,,,,,,,,,,,,,,,,,,,,,,,,,,
,,,,042186,001,2023-07-28_02h57.02.615,fluency,2022.2.4,Win32,59.80503558,,,,,,,,,,,,,,,,,,,,,,,8,3,img/B03_08.jpg,GCNB,Press J if the face is GENDER-CONFORMING and K if the face is NONBINARY,Gender-conforming means that the face appears to be a typical example of its gender. Nonbinary means that the face does not conform to any particular gender norms.,JK,,,,,,,,,,,,,,,,,,,,,,,,,,,,,,,,5,0.5865,,,,,,,,,,,,,,,,,,,,,,,space,1.102,0,14,14,30,1,,,,,,,,,,,,,,,,,,,,,,,,,,,,,,,,,,,,,,,,,,,,,,,,,,,,,,,,,,,,,,,,,,,
,,,,042186,001,2023-07-28_02h57.02.615,fluency,2022.2.4,Win32,59.80503558,,,,,,,,,,,,,,,,,,,,,,,,,,,,,,,,,,,,,,,,,,,,,,,,,,,,,,,,,,,,,,,,,,,,,,,,,,,,,,,1,,,,,,,,,,,,,space,2.9511,0,0,0,0,1,,,,,,,,,,,,,,,,,,,,,,,,,,,,,,,,,,,,,,,,,,,,,,,,,,,,,,,,,,,,
,,,,042186,001,2023-07-28_02h57.02.615,fluency,2022.2.4,Win32,59.80503558,,,,,,,,,,,,,,,,,,,,,,,,,,,,,,,,,,,,,,,,,,,,,,,,,,,,,,,,,,,,,,,,,,,,,,,,,,,,,,,,0,0,0,0,1,,,,,,,,,,,,,,,,,,,,,,,,,,,,,,,,,,,,,,,,,,,,,,,,,,,,,,,,,,,,,,,,,,,,,,,,,,
,,,,042186,001,2023-07-28_02h57.02.615,fluency,2022.2.4,Win32,59.80503558,,,,,,,,,,,,,,,,,,,,,,,,,,,,,,,,,,,,,,,,,,,,,,,,,,,,,,,,,,,,,,,,,,,,,,,,,,,"[""k""]",[0.6559999999999491],"[""k""]",[0.6558999999984962],1,1,0,1,0,1,,,,,,,,,,,,,,,,,,,,,,,,,,,,,,,,,,,,,,,,,,,,,,,,,,,,,,,,,,,,,,,,,,,,,,,,,,
,,,,042186,001,2023-07-28_02h57.02.615,fluency,2022.2.4,Win32,59.80503558,,,,,,,,,,,,,,,,,,,,,,,3,3,img/B03_03.jpg,GCNB,Press J if the face is GENDER-CONFORMING and K if the face is NONBINARY,Gender-conforming means that the face appears to be a typical example of its gender. Nonbinary means that the face does not conform to any particular gender norms.,JK,,,,,,,,,,,,,,,,,,,,,,,,,,,,,,,,5,1.5307,,,,,,,,,,,,,,,,,,,,,,,space,0.5647,0,15,15,25,1,,,,,,,,,,,,,,,,,,,,,,,,,,,,,,,,,,,,,,,,,,,,,,,,,,,,,,,,,,,,,,,,,,,
,,,,042186,001,2023-07-28_02h57.02.615,fluency,2022.2.4,Win32,59.80503558,,,,,,,,,,,,,,,,,,,,,,,,,,,,,,,,,,,,,,,,,,,,,,,,,,,,,,,,,,,,,,,,,,,,,,,,,,,"[""k""]",[0.8817000000029793],"[""k""]",[0.8817000000029793],1,0,0,0,0,1,,,,,,,,,,,,,,,,,,,,,,,,,,,,,,,,,,,,,,,,,,,,,,,,,,,,,,,,,,,,,,,,,,,,,,,,,,
,,,,042186,001,2023-07-28_02h57.02.615,fluency,2022.2.4,Win32,59.80503558,,,,,,,,,,,,,,,,,,,,,,,6,2,img/B02_06.jpg,GCNB,Press J if the face is GENDER-CONFORMING and K if the face is NONBINARY,Gender-conforming means that the face appears to be a typical example of its gender. Nonbinary means that the face does not conform to any particular gender norms.,JK,,,,,,,,,,,,,,,,,,,,,,,,,,,,,,,,2,0.467,,,,,,,,,,,,,,,,,,,,,,,space,0.4564,0,16,16,17,1,,,,,,,,,,,,,,,,,,,,,,,,,,,,,,,,,,,,,,,,,,,,,,,,,,,,,,,,,,,,,,,,,,,
,,,,042186,001,2023-07-28_02h57.02.615,fluency,2022.2.4,Win32,59.80503558,,,,,,,,,,,,,,,,,,,,,,,,,,,,,,,,,,,,,,,,,,,,,,,,,,,,,,,,,,,,,,,,,,,,,,,,,,,"[""k""]",[0.8483000000007905],"[""k""]",[0.8483000000007905],1,0,0,0,0,1,,,,,,,,,,,,,,,,,,,,,,,,,,,,,,,,,,,,,,,,,,,,,,,,,,,,,,,,,,,,,,,,,,,,,,,,,,
,,,,042186,001,2023-07-28_02h57.02.615,fluency,2022.2.4,Win32,59.80503558,,,,,,,,,,,,,,,,,,,,,,,0,9,img/B09_00.jpg,GCNB,Press J if the face is GENDER-CONFORMING and K if the face is NONBINARY,Gender-conforming means that the face appears to be a typical example of its gender. Nonbinary means that the face does not conform to any particular gender norms.,JK,,,,,,,,,,,,,,,,,,,,,,,,,,,,,,,,1,0.4059,,,,,,,,,,,,,,,,,,,,,,,space,0.5433,0,17,17,88,1,,,,,,,,,,,,,,,,,,,,,,,,,,,,,,,,,,,,,,,,,,,,,,,,,,,,,,,,,,,,,,,,,,,
,,,,042186,001,2023-07-28_02h57.02.615,fluency,2022.2.4,Win32,59.80503558,,,,,,,,,,,,,,,,,,,,,,,,,,,,,,,,,,,,,,,,,,,,,,,,,,,,,,,,,,,,,,,,,,,,,,,,,,,"[""k""]",[1.6410000000000196],"[""k""]",[1.6410000000000196],1,0,0,0,0,1,,,,,,,,,,,,,,,,,,,,,,,,,,,,,,,,,,,,,,,,,,,,,,,,,,,,,,,,,,,,,,,,,,,,,,,,,,
,,,,042186,001,2023-07-28_02h57.02.615,fluency,2022.2.4,Win32,59.80503558,,,,,,,,,,,,,,,,,,,,,,,3,4,img/B04_03.jpg,GCNB,Press J if the face is GENDER-CONFORMING and K if the face is NONBINARY,Gender-conforming means that the face appears to be a typical example of its gender. Nonbinary means that the face does not conform to any particular gender norms.,JK,,,,,,,,,,,,,,,,,,,,,,,,,,,,,,,,5,2.0804,,,,,,,,,,,,,,,,,,,,,,,space,0.6437,0,18,18,36,1,,,,,,,,,,,,,,,,,,,,,,,,,,,,,,,,,,,,,,,,,,,,,,,,,,,,,,,,,,,,,,,,,,,
,,,,042186,001,2023-07-28_02h57.02.615,fluency,2022.2.4,Win32,59.80503558,,,,,,,,,,,,,,,,,,,,,,,,,,,,,,,,,,,,,,,,,,,,,,,,,,,,,,,,,,,,,,,,,,,,,,,,,,,"[""k""]",[0.9339999999999691],"[""k""]",[0.9338999999985163],1,0,0,0,0,1,,,,,,,,,,,,,,,,,,,,,,,,,,,,,,,,,,,,,,,,,,,,,,,,,,,,,,,,,,,,,,,,,,,,,,,,,,
,,,,042186,001,2023-07-28_02h57.02.615,fluency,2022.2.4,Win32,59.80503558,,,,,,,,,,,,,,,,,,,,,,,2,1,img/B01_02.jpg,GCNB,Press J if the face is GENDER-CONFORMING and K if the face is NONBINARY,Gender-conforming means that the face appears to be a typical example of its gender. Nonbinary means that the face does not conform to any particular gender norms.,JK,,,,,,,,,,,,,,,,,,,,,,,,,,,,,,,,1,0.3874,,,,,,,,,,,,,,,,,,,,,,,space,0.4364,0,19,19,2,1,,,,,,,,,,,,,,,,,,,,,,,,,,,,,,,,,,,,,,,,,,,,,,,,,,,,,,,,,,,,,,,,,,,
,,,,042186,001,2023-07-28_02h57.02.615,fluency,2022.2.4,Win32,59.80503558,,,,,,,,,,,,,,,,,,,,,,,,,,,,,,,,,,,,,,,,,,,,,,,,,,,,,,,,,,,,,,,,,,,,,,,,,,,"[""k""]",[0.8969000000022334],"[""k""]",[0.8969000000022334],1,0,0,0,0,1,,,,,,,,,,,,,,,,,,,,,,,,,,,,,,,,,,,,,,,,,,,,,,,,,,,,,,,,,,,,,,,,,,,,,,,,,,
,,,,042186,001,2023-07-28_02h57.02.615,fluency,2022.2.4,Win32,59.80503558,,,,,,,,,,,,,,,,,,,,,,,10,4,img/B04_10.jpg,GCNB,Press J if the face is GENDER-CONFORMING and K if the face is NONBINARY,Gender-conforming means that the face appears to be a typical example of its gender. Nonbinary means that the face does not conform to any particular gender norms.,JK,,,,,,,,,,,,,,,,,,,,,,,,,,,,,,,,1,0.4834,,,,,,,,,,,,,,,,,,,,,,,space,0.3512,0,20,20,43,1,,,,,,,,,,,,,,,,,,,,,,,,,,,,,,,,,,,,,,,,,,,,,,,,,,,,,,,,,,,,,,,,,,,
,,,,042186,001,2023-07-28_02h57.02.615,fluency,2022.2.4,Win32,59.80503558,,,,,,,,,,,,,,,,,,,,,,,,,,,,,,,,,,,,,,,,,,,,,,,,,,,,,,,,,,,,,,,,,,,,,,,,,,,"[""j""]",[1.2470999999977153],"[""j""]",[1.2470999999977153],1,0,0,0,0,1,,,,,,,,,,,,,,,,,,,,,,,,,,,,,,,,,,,,,,,,,,,,,,,,,,,,,,,,,,,,,,,,,,,,,,,,,,
,,,,042186,001,2023-07-28_02h57.02.615,fluency,2022.2.4,Win32,59.80503558,,,,,,,,,,,,,,,,,,,,,,,1,7,img/B07_01.jpg,GCNB,Press J if the face is GENDER-CONFORMING and K if the face is NONBINARY,Gender-conforming means that the face appears to be a typical example of its gender. Nonbinary means that the face does not conform to any particular gender norms.,JK,,,,,,,,,,,,,,,,,,,,,,,,,,,,,,,,6,1.1191,,,,,,,,,,,,,,,,,,,,,,,space,0.5245,0,21,21,67,1,,,,,,,,,,,,,,,,,,,,,,,,,,,,,,,,,,,,,,,,,,,,,,,,,,,,,,,,,,,,,,,,,,,
,,,,042186,001,2023-07-28_02h57.02.615,fluency,2022.2.4,Win32,59.80503558,,,,,,,,,,,,,,,,,,,,,,,,,,,,,,,,,,,,,,,,,,,,,,,,,,,,,,,,,,,,,,,,,,,,,,,,,,,"[""k""]",[0.8413000000007287],"[""k""]",[0.8413000000007287],1,0,0,0,0,1,,,,,,,,,,,,,,,,,,,,,,,,,,,,,,,,,,,,,,,,,,,,,,,,,,,,,,,,,,,,,,,,,,,,,,,,,,
,,,,042186,001,2023-07-28_02h57.02.615,fluency,2022.2.4,Win32,59.80503558,,,,,,,,,,,,,,,,,,,,,,,5,8,img/B08_05.jpg,GCNB,Press J if the face is GENDER-CONFORMING and K if the face is NONBINARY,Gender-conforming means that the face appears to be a typical example of its gender. Nonbinary means that the face does not conform to any particular gender norms.,JK,,,,,,,,,,,,,,,,,,,,,,,,,,,,,,,,2,0.3511,,,,,,,,,,,,,,,,,,,,,,,space,0.1359,0,22,22,82,1,,,,,,,,,,,,,,,,,,,,,,,,,,,,,,,,,,,,,,,,,,,,,,,,,,,,,,,,,,,,,,,,,,,
,,,,042186,001,2023-07-28_02h57.02.615,fluency,2022.2.4,Win32,59.80503558,,,,,,,,,,,,,,,,,,,,,,,,,,,,,,,,,,,,,,,,,,,,,,,,,,,,,,,,,,,,,,,,,,,,,,,,,,,"[""j""]",[1.399000000000001],"[""j""]",[1.399000000000001],1,0,0,0,0,1,,,,,,,,,,,,,,,,,,,,,,,,,,,,,,,,,,,,,,,,,,,,,,,,,,,,,,,,,,,,,,,,,,,,,,,,,,
,,,,042186,001,2023-07-28_02h57.02.615,fluency,2022.2.4,Win32,59.80503558,,,,,,,,,,,,,,,,,,,,,,,1,3,img/B03_01.jpg,GCNB,Press J if the face is GENDER-CONFORMING and K if the face is NONBINARY,Gender-conforming means that the face appears to be a typical example of its gender. Nonbinary means that the face does not conform to any particular gender norms.,JK,,,,,,,,,,,,,,,,,,,,,,,,,,,,,,,,6,0.7876,,,,,,,,,,,,,,,,,,,,,,,space,0.5753,0,23,23,23,1,,,,,,,,,,,,,,,,,,,,,,,,,,,,,,,,,,,,,,,,,,,,,,,,,,,,,,,,,,,,,,,,,,,
,,,,042186,001,2023-07-28_02h57.02.615,fluency,2022.2.4,Win32,59.80503558,,,,,,,,,,,,,,,,,,,,,,,,,,,,,,,,,,,,,,,,,,,,,,,,,,,,,,,,,,,,,,,,,,,,,,,,,,,"[""k""]",[1.1983999999985144],"[""k""]",[1.1983999999985144],1,0,0,0,0,1,,,,,,,,,,,,,,,,,,,,,,,,,,,,,,,,,,,,,,,,,,,,,,,,,,,,,,,,,,,,,,,,,,,,,,,,,,
,,,,042186,001,2023-07-28_02h57.02.615,fluency,2022.2.4,Win32,59.80503558,,,,,,,,,,,,,,,,,,,,,,,8,1,img/B01_08.jpg,GCNB,Press J if the face is GENDER-CONFORMING and K if the face is NONBINARY,Gender-conforming means that the face appears to be a typical example of its gender. Nonbinary means that the face does not conform to any particular gender norms.,JK,,,,,,,,,,,,,,,,,,,,,,,,,,,,,,,,3,0.9944,,,,,,,,,,,,,,,,,,,,,,,space,0.2051,0,24,24,8,1,,,,,,,,,,,,,,,,,,,,,,,,,,,,,,,,,,,,,,,,,,,,,,,,,,,,,,,,,,,,,,,,,,,
,,,,042186,001,2023-07-28_02h57.02.615,fluency,2022.2.4,Win32,59.80503558,,,,,,,,,,,,,,,,,,,,,,,,,,,,,,,,,,,,,,,,,,,,,,,,,,,,,,,,,,,,,,,,,,,,,,,,,,,"[""j""]",[1.3278000000007637],"[""j""]",[1.3278000000007637],1,0,0,0,0,1,,,,,,,,,,,,,,,,,,,,,,,,,,,,,,,,,,,,,,,,,,,,,,,,,,,,,,,,,,,,,,,,,,,,,,,,,,
,,,,042186,001,2023-07-28_02h57.02.615,fluency,2022.2.4,Win32,59.80503558,,,,,,,,,,,,,,,,,,,,,,,2,7,img/B07_02.jpg,GCNB,Press J if the face is GENDER-CONFORMING and K if the face is NONBINARY,Gender-conforming means that the face appears to be a typical example of its gender. Nonbinary means that the face does not conform to any particular gender norms.,JK,,,,,,,,,,,,,,,,,,,,,,,,,,,,,,,,6,1.1968,,,,,,,,,,,,,,,,,,,,,,,space,0.7416,0,25,25,68,1,,,,,,,,,,,,,,,,,,,,,,,,,,,,,,,,,,,,,,,,,,,,,,,,,,,,,,,,,,,,,,,,,,,
,,,,042186,001,2023-07-28_02h57.02.615,fluency,2022.2.4,Win32,59.80503558,,,,,,,,,,,,,,,,,,,,,,,,,,,,,,,,,,,,,,,,,,,,,,,,,,,,,,,,,,,,,,,,,,,,,,,,,,,"[""k""]",[1.5126999999992563],"[""k""]",[1.5126999999992563],1,0,0,0,0,1,,,,,,,,,,,,,,,,,,,,,,,,,,,,,,,,,,,,,,,,,,,,,,,,,,,,,,,,,,,,,,,,,,,,,,,,,,
,,,,042186,001,2023-07-28_02h57.02.615,fluency,2022.2.4,Win32,59.80503558,,,,,,,,,,,,,,,,,,,,,,,0,6,img/B06_00.jpg,GCNB,Press J if the face is GENDER-CONFORMING and K if the face is NONBINARY,Gender-conforming means that the face appears to be a typical example of its gender. Nonbinary means that the face does not conform to any particular gender norms.,JK,,,,,,,,,,,,,,,,,,,,,,,,,,,,,,,,1,0.3757,,,,,,,,,,,,,,,,,,,,,,,space,0.4033,0,26,26,55,1,,,,,,,,,,,,,,,,,,,,,,,,,,,,,,,,,,,,,,,,,,,,,,,,,,,,,,,,,,,,,,,,,,,
,,,,042186,001,2023-07-28_02h57.02.615,fluency,2022.2.4,Win32,59.80503558,,,,,,,,,,,,,,,,,,,,,,,,,,,,,,,,,,,,,,,,,,,,,,,,,,,,,,,,,,,,,,,,,,,,,,,,,,,"[""k""]",[0.7742000000029634],"[""k""]",[0.7742000000029634],1,0,0,0,0,1,,,,,,,,,,,,,,,,,,,,,,,,,,,,,,,,,,,,,,,,,,,,,,,,,,,,,,,,,,,,,,,,,,,,,,,,,,
,,,,042186,001,2023-07-28_02h57.02.615,fluency,2022.2.4,Win32,59.80503558,,,,,,,,,,,,,,,,,,,,,,,8,5,img/B05_08.jpg,GCNB,Press J if the face is GENDER-CONFORMING and K if the face is NONBINARY,Gender-conforming means that the face appears to be a typical example of its gender. Nonbinary means that the face does not conform to any particular gender norms.,JK,,,,,,,,,,,,,,,,,,,,,,,,,,,,,,,,2,0.3958,,,,,,,,,,,,,,,,,,,,,,,space,0.1385,0,27,27,52,1,,,,,,,,,,,,,,,,,,,,,,,,,,,,,,,,,,,,,,,,,,,,,,,,,,,,,,,,,,,,,,,,,,,
,,,,042186,001,2023-07-28_02h57.02.615,fluency,2022.2.4,Win32,59.80503558,,,,,,,,,,,,,,,,,,,,,,,,,,,,,,,,,,,,,,,,,,,,,,,,,,,,,,,,,,,,,,,,,,,,,,,,,,,"[""k""]",[0.894899999998529],"[""k""]",[0.894800000000771],1,0,0,0,0,1,,,,,,,,,,,,,,,,,,,,,,,,,,,,,,,,,,,,,,,,,,,,,,,,,,,,,,,,,,,,,,,,,,,,,,,,,,
,,,,042186,001,2023-07-28_02h57.02.615,fluency,2022.2.4,Win32,59.80503558,,,,,,,,,,,,,,,,,,,,,,,9,9,img/B09_09.jpg,GCNB,Press J if the face is GENDER-CONFORMING and K if the face is NONBINARY,Gender-conforming means that the face appears to be a typical example of its gender. Nonbinary means that the face does not conform to any particular gender norms.,JK,,,,,,,,,,,,,,,,,,,,,,,,,,,,,,,,1,0.4386,,,,,,,,,,,,,,,,,,,,,,,space,0.9544,0,28,28,97,1,,,,,,,,,,,,,,,,,,,,,,,,,,,,,,,,,,,,,,,,,,,,,,,,,,,,,,,,,,,,,,,,,,,
,,,,042186,001,2023-07-28_02h57.02.615,fluency,2022.2.4,Win32,59.80503558,,,,,,,,,,,,,,,,,,,,,,,,,,,,,,,,,,,,,,,,,,,,,,,,,,,,,,,,,,,,,,,,,,,,,,,,,,,"[""k""]",[1.434500000000014],"[""k""]",[1.434400000002256],1,0,0,0,0,1,,,,,,,,,,,,,,,,,,,,,,,,,,,,,,,,,,,,,,,,,,,,,,,,,,,,,,,,,,,,,,,,,,,,,,,,,,
,,,,042186,001,2023-07-28_02h57.02.615,fluency,2022.2.4,Win32,59.80503558,,,,,,,,,,,,,,,,,,,,,,,4,7,img/B07_04.jpg,GCNB,Press J if the face is GENDER-CONFORMING and K if the face is NONBINARY,Gender-conforming means that the face appears to be a typical example of its gender. Nonbinary means that the face does not conform to any particular gender norms.,JK,,,,,,,,,,,,,,,,,,,,,,,,,,,,,,,,3,0.9523,,,,,,,,,,,,,,,,,,,,,,,space,0.4338,0,29,29,70,1,,,,,,,,,,,,,,,,,,,,,,,,,,,,,,,,,,,,,,,,,,,,,,,,,,,,,,,,,,,,,,,,,,,
,,,,042186,001,2023-07-28_02h57.02.615,fluency,2022.2.4,Win32,59.80503558,,,,,,,,,,,,,,,,,,,,,,,,,,,,,,,,,,,,,,,,,,,,,,,,,,,,,,,,,,,,,,,,,,,,,,,,,,,"[""k""]",[0.852300000000696],"[""k""]",[0.8523000000007528],1,0,0,0,0,1,,,,,,,,,,,,,,,,,,,,,,,,,,,,,,,,,,,,,,,,,,,,,,,,,,,,,,,,,,,,,,,,,,,,,,,,,,
,,,,042186,001,2023-07-28_02h57.02.615,fluency,2022.2.4,Win32,59.80503558,,,,,,,,,,,,,,,,,,,,,,,7,7,img/B07_07.jpg,GCNB,Press J if the face is GENDER-CONFORMING and K if the face is NONBINARY,Gender-conforming means that the face appears to be a typical example of its gender. Nonbinary means that the face does not conform to any particular gender norms.,JK,,,,,,,,,,,,,,,,,,,,,,,,,,,,,,,,4,0.8488,,,,,,,,,,,,,,,,,,,,,,,space,0.284,0,30,30,73,1,,,,,,,,,,,,,,,,,,,,,,,,,,,,,,,,,,,,,,,,,,,,,,,,,,,,,,,,,,,,,,,,,,,
,,,,042186,001,2023-07-28_02h57.02.615,fluency,2022.2.4,Win32,59.80503558,,,,,,,,,,,,,,,,,,,,,,,,,,,,,,,,,,,,,,,,,,,,,,,,,,,,,,,,,,,,,,,,,,,,,,,,,,,"[""j""]",[1.373899999998514],"[""j""]",[1.373899999998514],1,0,0,0,0,1,,,,,,,,,,,,,,,,,,,,,,,,,,,,,,,,,,,,,,,,,,,,,,,,,,,,,,,,,,,,,,,,,,,,,,,,,,
,,,,042186,001,2023-07-28_02h57.02.615,fluency,2022.2.4,Win32,59.80503558,,,,,,,,,,,,,,,,,,,,,,,7,3,img/B03_07.jpg,GCNB,Press J if the face is GENDER-CONFORMING and K if the face is NONBINARY,Gender-conforming means that the face appears to be a typical example of its gender. Nonbinary means that the face does not conform to any particular gender norms.,JK,,,,,,,,,,,,,,,,,,,,,,,,,,,,,,,,5,2.2657,,,,,,,,,,,,,,,,,,,,,,,space,0.5149,0,31,31,29,1,,,,,,,,,,,,,,,,,,,,,,,,,,,,,,,,,,,,,,,,,,,,,,,,,,,,,,,,,,,,,,,,,,,
,,,,042186,001,2023-07-28_02h57.02.615,fluency,2022.2.4,Win32,59.80503558,,,,,,,,,,,,,,,,,,,,,,,,,,,,,,,,,,,,,,,,,,,,,,,,,,,,,,,,,,,,,,,,,,,,,,,,,,,"[""j""]",[1.6123999999985017],"[""j""]",[1.6123999999985017],1,0,0,0,0,1,,,,,,,,,,,,,,,,,,,,,,,,,,,,,,,,,,,,,,,,,,,,,,,,,,,,,,,,,,,,,,,,,,,,,,,,,,
,,,,042186,001,2023-07-28_02h57.02.615,fluency,2022.2.4,Win32,59.80503558,,,,,,,,,,,,,,,,,,,,,,,1,5,img/B05_01.jpg,GCNB,Press J if the face is GENDER-CONFORMING and K if the face is NONBINARY,Gender-conforming means that the face appears to be a typical example of its gender. Nonbinary means that the face does not conform to any particular gender norms.,JK,,,,,,,,,,,,,,,,,,,,,,,,,,,,,,,,4,0.9225,,,,,,,,,,,,,,,,,,,,,,,space,0.314,0,32,32,45,1,,,,,,,,,,,,,,,,,,,,,,,,,,,,,,,,,,,,,,,,,,,,,,,,,,,,,,,,,,,,,,,,,,,
,,,,042186,001,2023-07-28_02h57.02.615,fluency,2022.2.4,Win32,59.80503558,,,,,,,,,,,,,,,,,,,,,,,,,,,,,,,,,,,,,,,,,,,,,,,,,,,,,,,,,,,,,,,,,,,,,,,,,,,"[""k""]",[1.1175999999977648],"[""k""]",[1.1175999999977648],1,0,0,0,0,1,,,,,,,,,,,,,,,,,,,,,,,,,,,,,,,,,,,,,,,,,,,,,,,,,,,,,,,,,,,,,,,,,,,,,,,,,,
,,,,042186,001,2023-07-28_02h57.02.615,fluency,2022.2.4,Win32,59.80503558,,,,,,,,,,,,,,,,,,,,,,,9,1,img/B01_09.jpg,GCNB,Press J if the face is GENDER-CONFORMING and K if the face is NONBINARY,Gender-conforming means that the face appears to be a typical example of its gender. Nonbinary means that the face does not conform to any particular gender norms.,JK,,,,,,,,,,,,,,,,,,,,,,,,,,,,,,,,3,2.1641,,,,,,,,,,,,,,,,,,,,,,,space,0.9519,0,33,33,9,1,,,,,,,,,,,,,,,,,,,,,,,,,,,,,,,,,,,,,,,,,,,,,,,,,,,,,,,,,,,,,,,,,,,
,,,,042186,001,2023-07-28_02h57.02.615,fluency,2022.2.4,Win32,59.80503558,,,,,,,,,,,,,,,,,,,,,,,,,,,,,,,,,,,,,,,,,,,,,,,,,,,,,,,,,,,,,,,,,,,,,,,,,,,"[""k""]",[1.5836000000015247],"[""k""]",[1.5836000000015247],1,0,0,0,0,1,,,,,,,,,,,,,,,,,,,,,,,,,,,,,,,,,,,,,,,,,,,,,,,,,,,,,,,,,,,,,,,,,,,,,,,,,,
,,,,042186,001,2023-07-28_02h57.02.615,fluency,2022.2.4,Win32,59.80503558,,,,,,,,,,,,,,,,,,,,,,,9,6,img/B06_09.jpg,GCNB,Press J if the face is GENDER-CONFORMING and K if the face is NONBINARY,Gender-conforming means that the face appears to be a typical example of its gender. Nonbinary means that the face does not conform to any particular gender norms.,JK,,,,,,,,,,,,,,,,,,,,,,,,,,,,,,,,4,0.6595,,,,,,,,,,,,,,,,,,,,,,,space,0.6329,0,34,34,64,1,,,,,,,,,,,,,,,,,,,,,,,,,,,,,,,,,,,,,,,,,,,,,,,,,,,,,,,,,,,,,,,,,,,
,,,,042186,001,2023-07-28_02h57.02.615,fluency,2022.2.4,Win32,59.80503558,,,,,,,,,,,,,,,,,,,,,,,,,,,,,,,,,,,,,,,,,,,,,,,,,,,,,,,,,,,,,,,,,,,,,,,,,,,"[""k""]",[0.8406999999992877],"[""k""]",[0.8406999999992877],1,0,0,0,0,1,,,,,,,,,,,,,,,,,,,,,,,,,,,,,,,,,,,,,,,,,,,,,,,,,,,,,,,,,,,,,,,,,,,,,,,,,,
,,,,042186,001,2023-07-28_02h57.02.615,fluency,2022.2.4,Win32,59.80503558,,,,,,,,,,,,,,,,,,,,,,,9,10,img/B10_09.jpg,GCNB,Press J if the face is GENDER-CONFORMING and K if the face is NONBINARY,Gender-conforming means that the face appears to be a typical example of its gender. Nonbinary means that the face does not conform to any particular gender norms.,JK,,,,,,,,,,,,,,,,,,,,,,,,,,,,,,,,1,0.824,,,,,,,,,,,,,,,,,,,,,,,space,0.8035,0,35,35,108,1,,,,,,,,,,,,,,,,,,,,,,,,,,,,,,,,,,,,,,,,,,,,,,,,,,,,,,,,,,,,,,,,,,,
,,,,042186,001,2023-07-28_02h57.02.615,fluency,2022.2.4,Win32,59.80503558,,,,,,,,,,,,,,,,,,,,,,,,,,,,,,,,,,,,,,,,,,,,,,,,,,,,,,,,,,,,,,,,,,,,,,,,,,,"[""k""]",[0.7740999999977589],"[""k""]",[0.7740999999977589],1,0,0,0,0,1,,,,,,,,,,,,,,,,,,,,,,,,,,,,,,,,,,,,,,,,,,,,,,,,,,,,,,,,,,,,,,,,,,,,,,,,,,
,,,,042186,001,2023-07-28_02h57.02.615,fluency,2022.2.4,Win32,59.80503558,,,,,,,,,,,,,,,,,,,,,,,8,4,img/B04_08.jpg,GCNB,Press J if the face is GENDER-CONFORMING and K if the face is NONBINARY,Gender-conforming means that the face appears to be a typical example of its gender. Nonbinary means that the face does not conform to any particular gender norms.,JK,,,,,,,,,,,,,,,,,,,,,,,,,,,,,,,,1,0.4187,,,,,,,,,,,,,,,,,,,,,,,space,0.7078,0,36,36,41,1,,,,,,,,,,,,,,,,,,,,,,,,,,,,,,,,,,,,,,,,,,,,,,,,,,,,,,,,,,,,,,,,,,,
,,,,042186,001,2023-07-28_02h57.02.615,fluency,2022.2.4,Win32,59.80503558,,,,,,,,,,,,,,,,,,,,,,,,,,,,,,,,,,,,,,,,,,,,,,,,,,,,,,,,,,,,,,,,,,,,,,,,,,,"[""k""]",[0.8673999999984972],"[""k""]",[0.8673999999984972],1,0,0,0,0,1,,,,,,,,,,,,,,,,,,,,,,,,,,,,,,,,,,,,,,,,,,,,,,,,,,,,,,,,,,,,,,,,,,,,,,,,,,
,,,,042186,001,2023-07-28_02h57.02.615,fluency,2022.2.4,Win32,59.80503558,,,,,,,,,,,,,,,,,,,,,,,2,5,img/B05_02.jpg,GCNB,Press J if the face is GENDER-CONFORMING and K if the face is NONBINARY,Gender-conforming means that the face appears to be a typical example of its gender. Nonbinary means that the face does not conform to any particular gender norms.,JK,,,,,,,,,,,,,,,,,,,,,,,,,,,,,,,,2,0.3576,,,,,,,,,,,,,,,,,,,,,,,space,0.4004,0,37,37,46,1,,,,,,,,,,,,,,,,,,,,,,,,,,,,,,,,,,,,,,,,,,,,,,,,,,,,,,,,,,,,,,,,,,,
,,,,042186,001,2023-07-28_02h57.02.615,fluency,2022.2.4,Win32,59.80503558,,,,,,,,,,,,,,,,,,,,,,,,,,,,,,,,,,,,,,,,,,,,,,,,,,,,,,,,,,,,,,,,,,,,,,,,,,,"[""k""]",[0.9460999999977844],"[""k""]",[0.9460999999977844],1,0,0,0,0,1,,,,,,,,,,,,,,,,,,,,,,,,,,,,,,,,,,,,,,,,,,,,,,,,,,,,,,,,,,,,,,,,,,,,,,,,,,
,,,,042186,001,2023-07-28_02h57.02.615,fluency,2022.2.4,Win32,59.80503558,,,,,,,,,,,,,,,,,,,,,,,0,8,img/B08_00.jpg,GCNB,Press J if the face is GENDER-CONFORMING and K if the face is NONBINARY,Gender-conforming means that the face appears to be a typical example of its gender. Nonbinary means that the face does not conform to any particular gender norms.,JK,,,,,,,,,,,,,,,,,,,,,,,,,,,,,,,,1,0.4107,,,,,,,,,,,,,,,,,,,,,,,space,0.412,0,38,38,77,1,,,,,,,,,,,,,,,,,,,,,,,,,,,,,,,,,,,,,,,,,,,,,,,,,,,,,,,,,,,,,,,,,,,
,,,,042186,001,2023-07-28_02h57.02.615,fluency,2022.2.4,Win32,59.80503558,,,,,,,,,,,,,,,,,,,,,,,,,,,,,,,,,,,,,,,,,,,,,,,,,,,,,,,,,,,,,,,,,,,,,,,,,,,"[""k""]",[0.8530000000000086],"[""k""]",[0.852899999998499],1,0,0,0,0,1,,,,,,,,,,,,,,,,,,,,,,,,,,,,,,,,,,,,,,,,,,,,,,,,,,,,,,,,,,,,,,,,,,,,,,,,,,
,,,,042186,001,2023-07-28_02h57.02.615,fluency,2022.2.4,Win32,59.80503558,,,,,,,,,,,,,,,,,,,,,,,4,6,img/B06_04.jpg,GCNB,Press J if the face is GENDER-CONFORMING and K if the face is NONBINARY,Gender-conforming means that the face appears to be a typical example of its gender. Nonbinary means that the face does not conform to any particular gender norms.,JK,,,,,,,,,,,,,,,,,,,,,,,,,,,,,,,,1,0.412,,,,,,,,,,,,,,,,,,,,,,,space,0.2374,0,39,39,59,1,,,,,,,,,,,,,,,,,,,,,,,,,,,,,,,,,,,,,,,,,,,,,,,,,,,,,,,,,,,,,,,,,,,
,,,,042186,001,2023-07-28_02h57.02.615,fluency,2022.2.4,Win32,59.80503558,,,,,,,,,,,,,,,,,,,,,,,,,,,,,,,,,,,,,,,,,,,,,,,,,,,,,,,,,,,,,,,,,,,,,,,,,,,"[""k""]",[1.2506000000014978],"[""k""]",[1.250500000000045],1,0,0,0,0,1,,,,,,,,,,,,,,,,,,,,,,,,,,,,,,,,,,,,,,,,,,,,,,,,,,,,,,,,,,,,,,,,,,,,,,,,,,
,,,,042186,001,2023-07-28_02h57.02.615,fluency,2022.2.4,Win32,59.80503558,,,,,,,,,,,,,,,,,,,,,,,4,1,img/B01_04.jpg,GCNB,Press J if the face is GENDER-CONFORMING and K if the face is NONBINARY,Gender-conforming means that the face appears to be a typical example of its gender. Nonbinary means that the face does not conform to any particular gender norms.,JK,,,,,,,,,,,,,,,,,,,,,,,,,,,,,,,,3,1.2401,,,,,,,,,,,,,,,,,,,,,,,space,0.721,0,40,40,4,1,,,,,,,,,,,,,,,,,,,,,,,,,,,,,,,,,,,,,,,,,,,,,,,,,,,,,,,,,,,,,,,,,,,
,,,,042186,001,2023-07-28_02h57.02.615,fluency,2022.2.4,Win32,59.80503558,,,,,,,,,,,,,,,,,,,,,,,,,,,,,,,,,,,,,,,,,,,,,,,,,,,,,,,,,,,,,,,,,,,,,,,,,,,"[""k""]",[0.8087999999970066],"[""k""]",[0.8087999999970066],1,0,0,0,0,1,,,,,,,,,,,,,,,,,,,,,,,,,,,,,,,,,,,,,,,,,,,,,,,,,,,,,,,,,,,,,,,,,,,,,,,,,,
,,,,042186,001,2023-07-28_02h57.02.615,fluency,2022.2.4,Win32,59.80503558,,,,,,,,,,,,,,,,,,,,,,,4,10,img/B10_04.jpg,GCNB,Press J if the face is GENDER-CONFORMING and K if the face is NONBINARY,Gender-conforming means that the face appears to be a typical example of its gender. Nonbinary means that the face does not conform to any particular gender norms.,JK,,,,,,,,,,,,,,,,,,,,,,,,,,,,,,,,2,0.4153,,,,,,,,,,,,,,,,,,,,,,,space,0.3901,0,41,41,103,1,,,,,,,,,,,,,,,,,,,,,,,,,,,,,,,,,,,,,,,,,,,,,,,,,,,,,,,,,,,,,,,,,,,
,,,,042186,001,2023-07-28_02h57.02.615,fluency,2022.2.4,Win32,59.80503558,,,,,,,,,,,,,,,,,,,,,,,,,,,,,,,,,,,,,,,,,,,,,,,,,,,,,,,,,,,,,,,,,,,,,,,,,,,"[""j""]",[1.8908000000007519],"[""j""]",[1.8908999999985099],1,0,0,0,0,1,,,,,,,,,,,,,,,,,,,,,,,,,,,,,,,,,,,,,,,,,,,,,,,,,,,,,,,,,,,,,,,,,,,,,,,,,,
,,,,042186,001,2023-07-28_02h57.02.615,fluency,2022.2.4,Win32,59.80503558,,,,,,,,,,,,,,,,,,,,,,,0,7,img/B07_00.jpg,GCNB,Press J if the face is GENDER-CONFORMING and K if the face is NONBINARY,Gender-conforming means that the face appears to be a typical example of its gender. Nonbinary means that the face does not conform to any particular gender norms.,JK,,,,,,,,,,,,,,,,,,,,,,,,,,,,,,,,7,1.6727,,,,,,,,,,,,,,,,,,,,,,,space,0.7184,0,42,42,66,1,,,,,,,,,,,,,,,,,,,,,,,,,,,,,,,,,,,,,,,,,,,,,,,,,,,,,,,,,,,,,,,,,,,
,,,,042186,001,2023-07-28_02h57.02.615,fluency,2022.2.4,Win32,59.80503558,,,,,,,,,,,,,,,,,,,,,,,,,,,,,,,,,,,,,,,,,,,,,,,,,,,,,,,,,,,,,,,,,,,,,,,,,,,"[""k""]",[1.3727000000030216],"[""k""]",[1.3727000000030216],1,0,0,0,0,1,,,,,,,,,,,,,,,,,,,,,,,,,,,,,,,,,,,,,,,,,,,,,,,,,,,,,,,,,,,,,,,,,,,,,,,,,,
,,,,042186,001,2023-07-28_02h57.02.615,fluency,2022.2.4,Win32,59.80503558,,,,,,,,,,,,,,,,,,,,,,,6,7,img/B07_06.jpg,GCNB,Press J if the face is GENDER-CONFORMING and K if the face is NONBINARY,Gender-conforming means that the face appears to be a typical example of its gender. Nonbinary means that the face does not conform to any particular gender norms.,JK,,,,,,,,,,,,,,,,,,,,,,,,,,,,,,,,5,0.7178,,,,,,,,,,,,,,,,,,,,,,,space,0.4012,0,43,43,72,1,,,,,,,,,,,,,,,,,,,,,,,,,,,,,,,,,,,,,,,,,,,,,,,,,,,,,,,,,,,,,,,,,,,
,,,,042186,001,2023-07-28_02h57.02.615,fluency,2022.2.4,Win32,59.80503558,,,,,,,,,,,,,,,,,,,,,,,,,,,,,,,,,,,,,,,,,,,,,,,,,,,,,,,,,,,,,,,,,,,,,,,,,,,"[""k""]",[2.3945999999977516],"[""k""]",[2.3945999999977516],1,0,0,0,0,1,,,,,,,,,,,,,,,,,,,,,,,,,,,,,,,,,,,,,,,,,,,,,,,,,,,,,,,,,,,,,,,,,,,,,,,,,,
,,,,042186,001,2023-07-28_02h57.02.615,fluency,2022.2.4,Win32,59.80503558,,,,,,,,,,,,,,,,,,,,,,,7,2,img/B02_07.jpg,GCNB,Press J if the face is GENDER-CONFORMING and K if the face is NONBINARY,Gender-conforming means that the face appears to be a typical example of its gender. Nonbinary means that the face does not conform to any particular gender norms.,JK,,,,,,,,,,,,,,,,,,,,,,,,,,,,,,,,3,1.7308,,,,,,,,,,,,,,,,,,,,,,,space,0.3036,0,44,44,18,1,,,,,,,,,,,,,,,,,,,,,,,,,,,,,,,,,,,,,,,,,,,,,,,,,,,,,,,,,,,,,,,,,,,
,,,,042186,001,2023-07-28_02h57.02.615,fluency,2022.2.4,Win32,59.80503558,,,,,,,,,,,,,,,,,,,,,,,,,,,,,,,,,,,,,,,,,,,,,,,,,,,,,,,,,,,,,,,,,,,,,,,,,,,"[""k""]",[1.4387000000029957],"[""k""]",[1.438600000001486],1,0,0,0,0,1,,,,,,,,,,,,,,,,,,,,,,,,,,,,,,,,,,,,,,,,,,,,,,,,,,,,,,,,,,,,,,,,,,,,,,,,,,
,,,,042186,001,2023-07-28_02h57.02.615,fluency,2022.2.4,Win32,59.80503558,,,,,,,,,,,,,,,,,,,,,,,6,4,img/B04_06.jpg,GCNB,Press J if the face is GENDER-CONFORMING and K if the face is NONBINARY,Gender-conforming means that the face appears to be a typical example of its gender. Nonbinary means that the face does not conform to any particular gender norms.,JK,,,,,,,,,,,,,,,,,,,,,,,,,,,,,,,,1,0.3569,,,,,,,,,,,,,,,,,,,,,,,space,0.3757,0,45,45,39,1,,,,,,,,,,,,,,,,,,,,,,,,,,,,,,,,,,,,,,,,,,,,,,,,,,,,,,,,,,,,,,,,,,,
,,,,042186,001,2023-07-28_02h57.02.615,fluency,2022.2.4,Win32,59.80503558,,,,,,,,,,,,,,,,,,,,,,,,,,,,,,,,,,,,,,,,,,,,,,,,,,,,,,,,,,,,,,,,,,,,,,,,,,,"[""k""]",[0.9147000000029379],"[""k""]",[0.9147000000029379],1,0,0,0,0,1,,,,,,,,,,,,,,,,,,,,,,,,,,,,,,,,,,,,,,,,,,,,,,,,,,,,,,,,,,,,,,,,,,,,,,,,,,
,,,,042186,001,2023-07-28_02h57.02.615,fluency,2022.2.4,Win32,59.80503558,,,,,,,,,,,,,,,,,,,,,,,2,9,img/B09_02.jpg,GCNB,Press J if the face is GENDER-CONFORMING and K if the face is NONBINARY,Gender-conforming means that the face appears to be a typical example of its gender. Nonbinary means that the face does not conform to any particular gender norms.,JK,,,,,,,,,,,,,,,,,,,,,,,,,,,,,,,,1,0.3385,,,,,,,,,,,,,,,,,,,,,,,space,0.2303,0,46,46,90,1,,,,,,,,,,,,,,,,,,,,,,,,,,,,,,,,,,,,,,,,,,,,,,,,,,,,,,,,,,,,,,,,,,,
,,,,042186,001,2023-07-28_02h57.02.615,fluency,2022.2.4,Win32,59.80503558,,,,,,,,,,,,,,,,,,,,,,,,,,,,,,,,,,,,,,,,,,,,,,,,,,,,,,,,,,,,,,,,,,,,,,,,,,,"[""k""]",[0.73599999999999],"[""k""]",[0.73599999999999],1,0,0,0,0,1,,,,,,,,,,,,,,,,,,,,,,,,,,,,,,,,,,,,,,,,,,,,,,,,,,,,,,,,,,,,,,,,,,,,,,,,,,
,,,,042186,001,2023-07-28_02h57.02.615,fluency,2022.2.4,Win32,59.80503558,,,,,,,,,,,,,,,,,,,,,,,1,2,img/B02_01.jpg,GCNB,Press J if the face is GENDER-CONFORMING and K if the face is NONBINARY,Gender-conforming means that the face appears to be a typical example of its gender. Nonbinary means that the face does not conform to any particular gender norms.,JK,,,,,,,,,,,,,,,,,,,,,,,,,,,,,,,,1,0.3495,,,,,,,,,,,,,,,,,,,,,,,space,0.3052,0,47,47,12,1,,,,,,,,,,,,,,,,,,,,,,,,,,,,,,,,,,,,,,,,,,,,,,,,,,,,,,,,,,,,,,,,,,,
,,,,042186,001,2023-07-28_02h57.02.615,fluency,2022.2.4,Win32,59.80503558,,,,,,,,,,,,,,,,,,,,,,,,,,,,,,,,,,,,,,,,,,,,,,,,,,,,,,,,,,,,,,,,,,,,,,,,,,,"[""k""]",[1.4006999999992331],"[""k""]",[1.4006999999992331],1,0,0,0,0,1,,,,,,,,,,,,,,,,,,,,,,,,,,,,,,,,,,,,,,,,,,,,,,,,,,,,,,,,,,,,,,,,,,,,,,,,,,
,,,,042186,001,2023-07-28_02h57.02.615,fluency,2022.2.4,Win32,59.80503558,,,,,,,,,,,,,,,,,,,,,,,4,4,img/B04_04.jpg,GCNB,Press J if the face is GENDER-CONFORMING and K if the face is NONBINARY,Gender-conforming means that the face appears to be a typical example of its gender. Nonbinary means that the face does not conform to any particular gender norms.,JK,,,,,,,,,,,,,,,,,,,,,,,,,,,,,,,,5,0.9228,,,,,,,,,,,,,,,,,,,,,,,space,0.323,0,48,48,37,1,,,,,,,,,,,,,,,,,,,,,,,,,,,,,,,,,,,,,,,,,,,,,,,,,,,,,,,,,,,,,,,,,,,
,,,,042186,001,2023-07-28_02h57.02.615,fluency,2022.2.4,Win32,59.80503558,,,,,,,,,,,,,,,,,,,,,,,,,,,,,,,,,,,,,,,,,,,,,,,,,,,,,,,,,,,,,,,,,,,,,,,,,,,"[""k""]",[0.8915000000000077],"[""k""]",[0.8915000000000077],1,0,0,0,0,1,,,,,,,,,,,,,,,,,,,,,,,,,,,,,,,,,,,,,,,,,,,,,,,,,,,,,,,,,,,,,,,,,,,,,,,,,,
,,,,042186,001,2023-07-28_02h57.02.615,fluency,2022.2.4,Win32,59.80503558,,,,,,,,,,,,,,,,,,,,,,,0,2,img/B02_00.jpg,GCNB,Press J if the face is GENDER-CONFORMING and K if the face is NONBINARY,Gender-conforming means that the face appears to be a typical example of its gender. Nonbinary means that the face does not conform to any particular gender norms.,JK,,,,,,,,,,,,,,,,,,,,,,,,,,,,,,,,1,0.4056,,,,,,,,,,,,,,,,,,,,,,,space,0.3252,0,49,49,11,1,,,,,,,,,,,,,,,,,,,,,,,,,,,,,,,,,,,,,,,,,,,,,,,,,,,,,,,,,,,,,,,,,,,
,,,,042186,001,2023-07-28_02h57.02.615,fluency,2022.2.4,Win32,59.80503558,,,,,,,,,,,,,,,,,,,,,,,,,,,,,,,,,,,,,,,,,,,,,,,,,,,,,,,,,,,,,,,,,,,,,,,,,,,"[""k""]",[1.6035999999977548],"[""k""]",[1.6036999999992645],1,0,0,0,0,1,,,,,,,,,,,,,,,,,,,,,,,,,,,,,,,,,,,,,,,,,,,,,,,,,,,,,,,,,,,,,,,,,,,,,,,,,,
,,,,042186,001,2023-07-28_02h57.02.615,fluency,2022.2.4,Win32,59.80503558,,,,,,,,,,,,,,,,,,,,,,,3,8,img/B08_03.jpg,GCNB,Press J if the face is GENDER-CONFORMING and K if the face is NONBINARY,Gender-conforming means that the face appears to be a typical example of its gender. Nonbinary means that the face does not conform to any particular gender norms.,JK,,,,,,,,,,,,,,,,,,,,,,,,,,,,,,,,3,0.6479,,,,,,,,,,,,,,,,,,,,,,,space,0.311,0,50,50,80,1,,,,,,,,,,,,,,,,,,,,,,,,,,,,,,,,,,,,,,,,,,,,,,,,,,,,,,,,,,,,,,,,,,,
,,,,042186,001,2023-07-28_02h57.02.615,fluency,2022.2.4,Win32,59.80503558,,,,,,,,,,,,,,,,,,,,,,,,,,,,,,,,,,,,,,,,,,,,,,,,,,,,,,,,,,,,,,,,,,,,,,,,,,,"[""k""]",[1.3455000000000155],"[""k""]",[1.3455000000000155],1,0,0,0,0,1,,,,,,,,,,,,,,,,,,,,,,,,,,,,,,,,,,,,,,,,,,,,,,,,,,,,,,,,,,,,,,,,,,,,,,,,,,
,,,,042186,001,2023-07-28_02h57.02.615,fluency,2022.2.4,Win32,59.80503558,,,,,,,,,,,,,,,,,,,,,,,4,5,img/B05_04.jpg,GCNB,Press J if the face is GENDER-CONFORMING and K if the face is NONBINARY,Gender-conforming means that the face appears to be a typical example of its gender. Nonbinary means that the face does not conform to any particular gender norms.,JK,,,,,,,,,,,,,,,,,,,,,,,,,,,,,,,,2,0.6073,,,,,,,,,,,,,,,,,,,,,,,space,0.3197,0,51,51,48,1,,,,,,,,,,,,,,,,,,,,,,,,,,,,,,,,,,,,,,,,,,,,,,,,,,,,,,,,,,,,,,,,,,,
,,,,042186,001,2023-07-28_02h57.02.615,fluency,2022.2.4,Win32,59.80503558,,,,,,,,,,,,,,,,,,,,,,,,,,,,,,,,,,,,,,,,,,,,,,,,,,,,,,,,,,,,,,,,,,,,,,,,,,,"[""k""]",[1.664199999999255],"[""k""]",[1.66410000000144],1,0,0,0,0,1,,,,,,,,,,,,,,,,,,,,,,,,,,,,,,,,,,,,,,,,,,,,,,,,,,,,,,,,,,,,,,,,,,,,,,,,,,
,,,,042186,001,2023-07-28_02h57.02.615,fluency,2022.2.4,Win32,59.80503558,,,,,,,,,,,,,,,,,,,,,,,1,8,img/B08_01.jpg,GCNB,Press J if the face is GENDER-CONFORMING and K if the face is NONBINARY,Gender-conforming means that the face appears to be a typical example of its gender. Nonbinary means that the face does not conform to any particular gender norms.,JK,,,,,,,,,,,,,,,,,,,,,,,,,,,,,,,,2,1.3993,,,,,,,,,,,,,,,,,,,,,,,space,0.1871,0,52,52,78,1,,,,,,,,,,,,,,,,,,,,,,,,,,,,,,,,,,,,,,,,,,,,,,,,,,,,,,,,,,,,,,,,,,,
,,,,042186,001,2023-07-28_02h57.02.615,fluency,2022.2.4,Win32,59.80503558,,,,,,,,,,,,,,,,,,,,,,,,,,,,,,,,,,,,,,,,,,,,,,,,,,,,,,,,,,,,,,,,,,,,,,,,,,,"[""k""]",[0.9735999999977594],"[""k""]",[0.9735000000000582],1,0,0,0,0,1,,,,,,,,,,,,,,,,,,,,,,,,,,,,,,,,,,,,,,,,,,,,,,,,,,,,,,,,,,,,,,,,,,,,,,,,,,
,,,,042186,001,2023-07-28_02h57.02.615,fluency,2022.2.4,Win32,59.80503558,,,,,,,,,,,,,,,,,,,,,,,7,1,img/B01_07.jpg,GCNB,Press J if the face is GENDER-CONFORMING and K if the face is NONBINARY,Gender-conforming means that the face appears to be a typical example of its gender. Nonbinary means that the face does not conform to any particular gender norms.,JK,,,,,,,,,,,,,,,,,,,,,,,,,,,,,,,,3,0.8732,,,,,,,,,,,,,,,,,,,,,,,space,0.3098,0,53,53,7,1,,,,,,,,,,,,,,,,,,,,,,,,,,,,,,,,,,,,,,,,,,,,,,,,,,,,,,,,,,,,,,,,,,,
,,,,042186,001,2023-07-28_02h57.02.615,fluency,2022.2.4,Win32,59.80503558,,,,,,,,,,,,,,,,,,,,,,,,,,,,,,,,,,,,,,,,,,,,,,,,,,,,,,,,,,,,,,,,,,,,,,,,,,,"[""k""]",[0.8091999999993504],"[""k""]",[0.8091999999993504],1,0,0,0,0,1,,,,,,,,,,,,,,,,,,,,,,,,,,,,,,,,,,,,,,,,,,,,,,,,,,,,,,,,,,,,,,,,,,,,,,,,,,
,,,,042186,001,2023-07-28_02h57.02.615,fluency,2022.2.4,Win32,59.80503558,,,,,,,,,,,,,,,,,,,,,,,5,6,img/B06_05.jpg,GCNB,Press J if the face is GENDER-CONFORMING and K if the face is NONBINARY,Gender-conforming means that the face appears to be a typical example of its gender. Nonbinary means that the face does not conform to any particular gender norms.,JK,,,,,,,,,,,,,,,,,,,,,,,,,,,,,,,,1,0.4119,,,,,,,,,,,,,,,,,,,,,,,space,0.3848,0,54,54,60,1,,,,,,,,,,,,,,,,,,,,,,,,,,,,,,,,,,,,,,,,,,,,,,,,,,,,,,,,,,,,,,,,,,,
,,,,042186,001,2023-07-28_02h57.02.615,fluency,2022.2.4,Win32,59.80503558,,,,,,,,,,,,,,,,,,,,,,,,,,,,,,,,,,,,,,,,,,,,,,,,,,,,,,,,,,,,,,,,,,,,,,,,,,,"[""k""]",[0.7620000000000573],"[""k""]",[0.7618999999984908],1,0,0,0,0,1,,,,,,,,,,,,,,,,,,,,,,,,,,,,,,,,,,,,,,,,,,,,,,,,,,,,,,,,,,,,,,,,,,,,,,,,,,
,,,,042186,001,2023-07-28_02h57.02.615,fluency,2022.2.4,Win32,59.80503558,,,,,,,,,,,,,,,,,,,,,,,2,6,img/B06_02.jpg,GCNB,Press J if the face is GENDER-CONFORMING and K if the face is NONBINARY,Gender-conforming means that the face appears to be a typical example of its gender. Nonbinary means that the face does not conform to any particular gender norms.,JK,,,,,,,,,,,,,,,,,,,,,,,,,,,,,,,,1,0.3995,,,,,,,,,,,,,,,,,,,,,,,space,0.2277,0,55,55,57,1,,,,,,,,,,,,,,,,,,,,,,,,,,,,,,,,,,,,,,,,,,,,,,,,,,,,,,,,,,,,,,,,,,,
,,,,042186,001,2023-07-28_02h57.02.615,fluency,2022.2.4,Win32,59.80503558,,,,,,,,,,,,,,,,,,,,,,,,,,,,,,,,,,,,,,,,,,,,,,,,,,,,,,,,,,,,,,,,,,,,,,,,,,,"[""k""]",[1.3880999999977348],"[""k""]",[1.3880999999977348],1,0,0,0,0,1,,,,,,,,,,,,,,,,,,,,,,,,,,,,,,,,,,,,,,,,,,,,,,,,,,,,,,,,,,,,,,,,,,,,,,,,,,
,,,,042186,001,2023-07-28_02h57.02.615,fluency,2022.2.4,Win32,59.80503558,,,,,,,,,,,,,,,,,,,,,,,9,5,img/B05_09.jpg,GCNB,Press J if the face is GENDER-CONFORMING and K if the face is NONBINARY,Gender-conforming means that the face appears to be a typical example of its gender. Nonbinary means that the face does not conform to any particular gender norms.,JK,,,,,,,,,,,,,,,,,,,,,,,,,,,,,,,,1,0.3721,,,,,,,,,,,,,,,,,,,,,,,space,0.2202,0,56,56,53,1,,,,,,,,,,,,,,,,,,,,,,,,,,,,,,,,,,,,,,,,,,,,,,,,,,,,,,,,,,,,,,,,,,,
,,,,042186,001,2023-07-28_02h57.02.615,fluency,2022.2.4,Win32,59.80503558,,,,,,,,,,,,,,,,,,,,,,,,,,,,,,,,,,,,,,,,,,,,,,,,,,,,,,,,,,,,,,,,,,,,,,,,,,,"[""k""]",[0.7574000000022352],"[""k""]",[0.7574000000022352],1,0,0,0,0,1,,,,,,,,,,,,,,,,,,,,,,,,,,,,,,,,,,,,,,,,,,,,,,,,,,,,,,,,,,,,,,,,,,,,,,,,,,
,,,,042186,001,2023-07-28_02h57.02.615,fluency,2022.2.4,Win32,59.80503558,,,,,,,,,,,,,,,,,,,,,,,3,6,img/B06_03.jpg,GCNB,Press J if the face is GENDER-CONFORMING and K if the face is NONBINARY,Gender-conforming means that the face appears to be a typical example of its gender. Nonbinary means that the face does not conform to any particular gender norms.,JK,,,,,,,,,,,,,,,,,,,,,,,,,,,,,,,,1,0.3342,,,,,,,,,,,,,,,,,,,,,,,space,0.0911,0,57,57,58,1,,,,,,,,,,,,,,,,,,,,,,,,,,,,,,,,,,,,,,,,,,,,,,,,,,,,,,,,,,,,,,,,,,,
,,,,042186,001,2023-07-28_02h57.02.615,fluency,2022.2.4,Win32,59.80503558,,,,,,,,,,,,,,,,,,,,,,,,,,,,,,,,,,,,,,,,,,,,,,,,,,,,,,,,,,,,,,,,,,,,,,,,,,,"[""k""]",[0.897899999998458],"[""k""]",[0.897899999998458],1,0,0,0,0,1,,,,,,,,,,,,,,,,,,,,,,,,,,,,,,,,,,,,,,,,,,,,,,,,,,,,,,,,,,,,,,,,,,,,,,,,,,
,,,,042186,001,2023-07-28_02h57.02.615,fluency,2022.2.4,Win32,59.80503558,,,,,,,,,,,,,,,,,,,,,,,10,1,img/B01_10.jpg,GCNB,Press J if the face is GENDER-CONFORMING and K if the face is NONBINARY,Gender-conforming means that the face appears to be a typical example of its gender. Nonbinary means that the face does not conform to any particular gender norms.,JK,,,,,,,,,,,,,,,,,,,,,,,,,,,,,,,,3,0.3951,,,,,,,,,,,,,,,,,,,,,,,space,0.4021,0,58,58,10,1,,,,,,,,,,,,,,,,,,,,,,,,,,,,,,,,,,,,,,,,,,,,,,,,,,,,,,,,,,,,,,,,,,,
,,,,042186,001,2023-07-28_02h57.02.615,fluency,2022.2.4,Win32,59.80503558,,,,,,,,,,,,,,,,,,,,,,,,,,,,,,,,,,,,,,,,,,,,,,,,,,,,,,,,,,,,,,,,,,,,,,,,,,,"[""k""]",[1.3603999999984353],"[""k""]",[1.3602999999969825],1,0,0,0,0,1,,,,,,,,,,,,,,,,,,,,,,,,,,,,,,,,,,,,,,,,,,,,,,,,,,,,,,,,,,,,,,,,,,,,,,,,,,
,,,,042186,001,2023-07-28_02h57.02.615,fluency,2022.2.4,Win32,59.80503558,,,,,,,,,,,,,,,,,,,,,,,5,3,img/B03_05.jpg,GCNB,Press J if the face is GENDER-CONFORMING and K if the face is NONBINARY,Gender-conforming means that the face appears to be a typical example of its gender. Nonbinary means that the face does not conform to any particular gender norms.,JK,,,,,,,,,,,,,,,,,,,,,,,,,,,,,,,,4,0.3158,,,,,,,,,,,,,,,,,,,,,,,space,0.2504,0,59,59,27,1,,,,,,,,,,,,,,,,,,,,,,,,,,,,,,,,,,,,,,,,,,,,,,,,,,,,,,,,,,,,,,,,,,,
,,,,042186,001,2023-07-28_02h57.02.615,fluency,2022.2.4,Win32,59.80503558,,,,,,,,,,,,,,,,,,,,,,,,,,,,,,,,,,,,,,,,,,,,,,,,,,,,,,,,,,,,,,,,,,,,,,,,,,,"[""k""]",[0.7296999999992977],"[""k""]",[0.7296999999992977],1,0,0,0,0,1,,,,,,,,,,,,,,,,,,,,,,,,,,,,,,,,,,,,,,,,,,,,,,,,,,,,,,,,,,,,,,,,,,,,,,,,,,
,,,,042186,001,2023-07-28_02h57.02.615,fluency,2022.2.4,Win32,59.80503558,,,,,,,,,,,,,,,,,,,,,,,9,2,img/B02_09.jpg,GCNB,Press J if the face is GENDER-CONFORMING and K if the face is NONBINARY,Gender-conforming means that the face appears to be a typical example of its gender. Nonbinary means that the face does not conform to any particular gender norms.,JK,,,,,,,,,,,,,,,,,,,,,,,,,,,,,,,,2,0.7805,,,,,,,,,,,,,,,,,,,,,,,space,0.1688,0,60,60,20,1,,,,,,,,,,,,,,,,,,,,,,,,,,,,,,,,,,,,,,,,,,,,,,,,,,,,,,,,,,,,,,,,,,,
,,,,042186,001,2023-07-28_02h57.02.615,fluency,2022.2.4,Win32,59.80503558,,,,,,,,,,,,,,,,,,,,,,,,,,,,,,,,,,,,,,,,,,,,,,,,,,,,,,,,,,,,,,,,,,,,,,,,,,,"[""j""]",[1.6359999999999673],"[""j""]",[1.6358999999985144],1,0,0,0,0,1,,,,,,,,,,,,,,,,,,,,,,,,,,,,,,,,,,,,,,,,,,,,,,,,,,,,,,,,,,,,,,,,,,,,,,,,,,
,,,,042186,001,2023-07-28_02h57.02.615,fluency,2022.2.4,Win32,59.80503558,,,,,,,,,,,,,,,,,,,,,,,0,10,img/B10_00.jpg,GCNB,Press J if the face is GENDER-CONFORMING and K if the face is NONBINARY,Gender-conforming means that the face appears to be a typical example of its gender. Nonbinary means that the face does not conform to any particular gender norms.,JK,,,,,,,,,,,,,,,,,,,,,,,,,,,,,,,,6,2.1141,,,,,,,,,,,,,,,,,,,,,,,space,0.4918,0,61,61,99,1,,,,,,,,,,,,,,,,,,,,,,,,,,,,,,,,,,,,,,,,,,,,,,,,,,,,,,,,,,,,,,,,,,,
,,,,042186,001,2023-07-28_02h57.02.615,fluency,2022.2.4,Win32,59.80503558,,,,,,,,,,,,,,,,,,,,,,,,,,,,,,,,,,,,,,,,,,,,,,,,,,,,,,,,,,,,,,,,,,,,,,,,,,,"[""k""]",[0.9596999999993159],"[""k""]",[0.959799999997017],1,0,0,0,0,1,,,,,,,,,,,,,,,,,,,,,,,,,,,,,,,,,,,,,,,,,,,,,,,,,,,,,,,,,,,,,,,,,,,,,,,,,,
,,,,042186,001,2023-07-28_02h57.02.615,fluency,2022.2.4,Win32,59.80503558,,,,,,,,,,,,,,,,,,,,,,,3,1,img/B01_03.jpg,GCNB,Press J if the face is GENDER-CONFORMING and K if the face is NONBINARY,Gender-conforming means that the face appears to be a typical example of its gender. Nonbinary means that the face does not conform to any particular gender norms.,JK,,,,,,,,,,,,,,,,,,,,,,,,,,,,,,,,2,0.4619,,,,,,,,,,,,,,,,,,,,,,,space,0.478,0,62,62,3,1,,,,,,,,,,,,,,,,,,,,,,,,,,,,,,,,,,,,,,,,,,,,,,,,,,,,,,,,,,,,,,,,,,,
,,,,042186,001,2023-07-28_02h57.02.615,fluency,2022.2.4,Win32,59.80503558,,,,,,,,,,,,,,,,,,,,,,,,,,,,,,,,,,,,,,,,,,,,,,,,,,,,,,,,,,,,,,,,,,,,,,,,,,,"[""k""]",[1.1773999999984426],"[""k""]",[1.1773999999984426],1,0,0,0,0,1,,,,,,,,,,,,,,,,,,,,,,,,,,,,,,,,,,,,,,,,,,,,,,,,,,,,,,,,,,,,,,,,,,,,,,,,,,
,,,,042186,001,2023-07-28_02h57.02.615,fluency,2022.2.4,Win32,59.80503558,,,,,,,,,,,,,,,,,,,,,,,0,1,img/B01_00.jpg,GCNB,Press J if the face is GENDER-CONFORMING and K if the face is NONBINARY,Gender-conforming means that the face appears to be a typical example of its gender. Nonbinary means that the face does not conform to any particular gender norms.,JK,,,,,,,,,,,,,,,,,,,,,,,,,,,,,,,,2,1.4895,,,,,,,,,,,,,,,,,,,,,,,space,0.3918,0,63,63,0,1,,,,,,,,,,,,,,,,,,,,,,,,,,,,,,,,,,,,,,,,,,,,,,,,,,,,,,,,,,,,,,,,,,,
,,,,042186,001,2023-07-28_02h57.02.615,fluency,2022.2.4,Win32,59.80503558,,,,,,,,,,,,,,,,,,,,,,,,,,,,,,,,,,,,,,,,,,,,,,,,,,,,,,,,,,,,,,,,,,,,,,,,,,,"[""k""]",[1.2498000000007323],"[""k""]",[1.2498000000007323],1,0,0,0,0,1,,,,,,,,,,,,,,,,,,,,,,,,,,,,,,,,,,,,,,,,,,,,,,,,,,,,,,,,,,,,,,,,,,,,,,,,,,
,,,,042186,001,2023-07-28_02h57.02.615,fluency,2022.2.4,Win32,59.80503558,,,,,,,,,,,,,,,,,,,,,,,3,10,img/B10_03.jpg,GCNB,Press J if the face is GENDER-CONFORMING and K if the face is NONBINARY,Gender-conforming means that the face appears to be a typical example of its gender. Nonbinary means that the face does not conform to any particular gender norms.,JK,,,,,,,,,,,,,,,,,,,,,,,,,,,,,,,,3,0.5954,,,,,,,,,,,,,,,,,,,,,,,space,0.9382,0,64,64,102,1,,,,,,,,,,,,,,,,,,,,,,,,,,,,,,,,,,,,,,,,,,,,,,,,,,,,,,,,,,,,,,,,,,,
,,,,042186,001,2023-07-28_02h57.02.615,fluency,2022.2.4,Win32,59.80503558,,,,,,,,,,,,,,,,,,,,,,,,,,,,,,,,,,,,,,,,,,,,,,,,,,,,,,,,,,,,,,,,,,,,,,,,,,,"[""k""]",[1.016200000002982],"[""k""]",[1.0157000000029939],1,0,0,0,0,1,,,,,,,,,,,,,,,,,,,,,,,,,,,,,,,,,,,,,,,,,,,,,,,,,,,,,,,,,,,,,,,,,,,,,,,,,,
,,,,042186,001,2023-07-28_02h57.02.615,fluency,2022.2.4,Win32,59.80503558,,,,,,,,,,,,,,,,,,,,,,,5,1,img/B01_05.jpg,GCNB,Press J if the face is GENDER-CONFORMING and K if the face is NONBINARY,Gender-conforming means that the face appears to be a typical example of its gender. Nonbinary means that the face does not conform to any particular gender norms.,JK,,,,,,,,,,,,,,,,,,,,,,,,,,,,,,,,3,0.7524,,,,,,,,,,,,,,,,,,,,,,,space,0.5032,0,65,65,5,1,,,,,,,,,,,,,,,,,,,,,,,,,,,,,,,,,,,,,,,,,,,,,,,,,,,,,,,,,,,,,,,,,,,
,,,,042186,001,2023-07-28_02h57.02.615,fluency,2022.2.4,Win32,59.80503558,,,,,,,,,,,,,,,,,,,,,,,,,,,,,,,,,,,,,,,,,,,,,,,,,,,,,,,,,,,,,,,,,,,,,,,,,,,"[""j""]",[1.587100000001442],"[""j""]",[1.587100000001442],1,0,0,0,0,1,,,,,,,,,,,,,,,,,,,,,,,,,,,,,,,,,,,,,,,,,,,,,,,,,,,,,,,,,,,,,,,,,,,,,,,,,,
,,,,042186,001,2023-07-28_02h57.02.615,fluency,2022.2.4,Win32,59.80503558,,,,,,,,,,,,,,,,,,,,,,,10,8,img/B08_10.jpg,GCNB,Press J if the face is GENDER-CONFORMING and K if the face is NONBINARY,Gender-conforming means that the face appears to be a typical example of its gender. Nonbinary means that the face does not conform to any particular gender norms.,JK,,,,,,,,,,,,,,,,,,,,,,,,,,,,,,,,1,0.8992,,,,,,,,,,,,,,,,,,,,,,,space,0.3964,0,66,66,87,1,,,,,,,,,,,,,,,,,,,,,,,,,,,,,,,,,,,,,,,,,,,,,,,,,,,,,,,,,,,,,,,,,,,
,,,,042186,001,2023-07-28_02h57.02.615,fluency,2022.2.4,Win32,59.80503558,,,,,,,,,,,,,,,,,,,,,,,,,,,,,,,,,,,,,,,,,,,,,,,,,,,,,,,,,,,,,,,,,,,,,,,,,,,"[""j""]",[1.2875000000000227],"[""j""]",[1.2875000000000227],1,0,0,0,0,1,,,,,,,,,,,,,,,,,,,,,,,,,,,,,,,,,,,,,,,,,,,,,,,,,,,,,,,,,,,,,,,,,,,,,,,,,,
,,,,042186,001,2023-07-28_02h57.02.615,fluency,2022.2.4,Win32,59.80503558,,,,,,,,,,,,,,,,,,,,,,,8,2,img/B02_08.jpg,GCNB,Press J if the face is GENDER-CONFORMING and K if the face is NONBINARY,Gender-conforming means that the face appears to be a typical example of its gender. Nonbinary means that the face does not conform to any particular gender norms.,JK,,,,,,,,,,,,,,,,,,,,,,,,,,,,,,,,4,0.575,,,,,,,,,,,,,,,,,,,,,,,space,0.3576,0,67,67,19,1,,,,,,,,,,,,,,,,,,,,,,,,,,,,,,,,,,,,,,,,,,,,,,,,,,,,,,,,,,,,,,,,,,,
,,,,042186,001,2023-07-28_02h57.02.615,fluency,2022.2.4,Win32,59.80503558,,,,,,,,,,,,,,,,,,,,,,,,,,,,,,,,,,,,,,,,,,,,,,,,,,,,,,,,,,,,,,,,,,,,,,,,,,,"[""k""]",[1.199100000001522],"[""k""]",[1.199100000001522],1,0,0,0,0,1,,,,,,,,,,,,,,,,,,,,,,,,,,,,,,,,,,,,,,,,,,,,,,,,,,,,,,,,,,,,,,,,,,,,,,,,,,
,,,,042186,001,2023-07-28_02h57.02.615,fluency,2022.2.4,Win32,59.80503558,,,,,,,,,,,,,,,,,,,,,,,6,10,img/B10_06.jpg,GCNB,Press J if the face is GENDER-CONFORMING and K if the face is NONBINARY,Gender-conforming means that the face appears to be a typical example of its gender. Nonbinary means that the face does not conform to any particular gender norms.,JK,,,,,,,,,,,,,,,,,,,,,,,,,,,,,,,,1,0.3628,,,,,,,,,,,,,,,,,,,,,,,space,0.2505,0,68,68,105,1,,,,,,,,,,,,,,,,,,,,,,,,,,,,,,,,,,,,,,,,,,,,,,,,,,,,,,,,,,,,,,,,,,,
,,,,042186,001,2023-07-28_02h57.02.615,fluency,2022.2.4,Win32,59.80503558,,,,,,,,,,,,,,,,,,,,,,,,,,,,,,,,,,,,,,,,,,,,,,,,,,,,,,,,,,,,,,,,,,,,,,,,,,,"[""k""]",[2.846300000000724],"[""k""]",[2.846300000000724],1,0,0,0,0,1,,,,,,,,,,,,,,,,,,,,,,,,,,,,,,,,,,,,,,,,,,,,,,,,,,,,,,,,,,,,,,,,,,,,,,,,,,
,,,,042186,001,2023-07-28_02h57.02.615,fluency,2022.2.4,Win32,59.80503558,,,,,,,,,,,,,,,,,,,,,,,8,7,img/B07_08.jpg,GCNB,Press J if the face is GENDER-CONFORMING and K if the face is NONBINARY,Gender-conforming means that the face appears to be a typical example of its gender. Nonbinary means that the face does not conform to any particular gender norms.,JK,,,,,,,,,,,,,,,,,,,,,,,,,,,,,,,,5,2.5303,,,,,,,,,,,,,,,,,,,,,,,space,0.3186,0,69,69,74,1,,,,,,,,,,,,,,,,,,,,,,,,,,,,,,,,,,,,,,,,,,,,,,,,,,,,,,,,,,,,,,,,,,,
,,,,042186,001,2023-07-28_02h57.02.615,fluency,2022.2.4,Win32,59.80503558,,,,,,,,,,,,,,,,,,,,,,,,,,,,,,,,,,,,,,,,,,,,,,,,,,,,,,,,,,,,,,,,,,,,,,,,,,,"[""k""]",[1.8738999999985708],"[""k""]",[1.8738999999985708],1,0,0,0,0,1,,,,,,,,,,,,,,,,,,,,,,,,,,,,,,,,,,,,,,,,,,,,,,,,,,,,,,,,,,,,,,,,,,,,,,,,,,
,,,,042186,001,2023-07-28_02h57.02.615,fluency,2022.2.4,Win32,59.80503558,,,,,,,,,,,,,,,,,,,,,,,3,7,img/B07_03.jpg,GCNB,Press J if the face is GENDER-CONFORMING and K if the face is NONBINARY,Gender-conforming means that the face appears to be a typical example of its gender. Nonbinary means that the face does not conform to any particular gender norms.,JK,,,,,,,,,,,,,,,,,,,,,,,,,,,,,,,,5,0.507,,,,,,,,,,,,,,,,,,,,,,,space,0.2389,0,70,70,69,1,,,,,,,,,,,,,,,,,,,,,,,,,,,,,,,,,,,,,,,,,,,,,,,,,,,,,,,,,,,,,,,,,,,
,,,,042186,001,2023-07-28_02h57.02.615,fluency,2022.2.4,Win32,59.80503558,,,,,,,,,,,,,,,,,,,,,,,,,,,,,,,,,,,,,,,,,,,,,,,,,,,,,,,,,,,,,,,,,,,,,,,,,,,"[""j""]",[1.1899999999999409],"[""j""]",[1.1899999999999409],1,0,0,0,0,1,,,,,,,,,,,,,,,,,,,,,,,,,,,,,,,,,,,,,,,,,,,,,,,,,,,,,,,,,,,,,,,,,,,,,,,,,,
,,,,042186,001,2023-07-28_02h57.02.615,fluency,2022.2.4,Win32,59.80503558,,,,,,,,,,,,,,,,,,,,,,,0,3,img/B03_00.jpg,GCNB,Press J if the face is GENDER-CONFORMING and K if the face is NONBINARY,Gender-conforming means that the face appears to be a typical example of its gender. Nonbinary means that the face does not conform to any particular gender norms.,JK,,,,,,,,,,,,,,,,,,,,,,,,,,,,,,,,6,0.5557,,,,,,,,,,,,,,,,,,,,,,,space,0.4014,0,71,71,22,1,,,,,,,,,,,,,,,,,,,,,,,,,,,,,,,,,,,,,,,,,,,,,,,,,,,,,,,,,,,,,,,,,,,
,,,,042186,001,2023-07-28_02h57.02.615,fluency,2022.2.4,Win32,59.80503558,,,,,,,,,,,,,,,,,,,,,,,,,,,,,,,,,,,,,,,,,,,,,,,,,,,,,,,,,,,,,,,,,,,,,,,,,,,"[""j""]",[2.669300000000703],"[""j""]",[2.669300000000703],1,0,0,0,0,1,,,,,,,,,,,,,,,,,,,,,,,,,,,,,,,,,,,,,,,,,,,,,,,,,,,,,,,,,,,,,,,,,,,,,,,,,,
,,,,042186,001,2023-07-28_02h57.02.615,fluency,2022.2.4,Win32,59.80503558,,,,,,,,,,,,,,,,,,,,,,,9,7,img/B07_09.jpg,GCNB,Press J if the face is GENDER-CONFORMING and K if the face is NONBINARY,Gender-conforming means that the face appears to be a typical example of its gender. Nonbinary means that the face does not conform to any particular gender norms.,JK,,,,,,,,,,,,,,,,,,,,,,,,,,,,,,,,6,1.1359,,,,,,,,,,,,,,,,,,,,,,,space,0.4196,0,72,72,75,1,,,,,,,,,,,,,,,,,,,,,,,,,,,,,,,,,,,,,,,,,,,,,,,,,,,,,,,,,,,,,,,,,,,
,,,,042186,001,2023-07-28_02h57.02.615,fluency,2022.2.4,Win32,59.80503558,,,,,,,,,,,,,,,,,,,,,,,,,,,,,,,,,,,,,,,,,,,,,,,,,,,,,,,,,,,,,,,,,,,,,,,,,,,"[""j""]",[2.0264000000022406],"[""j""]",[2.026499999999942],1,0,0,0,0,1,,,,,,,,,,,,,,,,,,,,,,,,,,,,,,,,,,,,,,,,,,,,,,,,,,,,,,,,,,,,,,,,,,,,,,,,,,
,,,,042186,001,2023-07-28_02h57.02.615,fluency,2022.2.4,Win32,59.80503558,,,,,,,,,,,,,,,,,,,,,,,10,9,img/B09_10.jpg,GCNB,Press J if the face is GENDER-CONFORMING and K if the face is NONBINARY,Gender-conforming means that the face appears to be a typical example of its gender. Nonbinary means that the face does not conform to any particular gender norms.,JK,,,,,,,,,,,,,,,,,,,,,,,,,,,,,,,,2,0.9691,,,,,,,,,,,,,,,,,,,,,,,space,0.3401,0,73,73,98,1,,,,,,,,,,,,,,,,,,,,,,,,,,,,,,,,,,,,,,,,,,,,,,,,,,,,,,,,,,,,,,,,,,,
,,,,042186,001,2023-07-28_02h57.02.615,fluency,2022.2.4,Win32,59.80503558,,,,,,,,,,,,,,,,,,,,,,,,,,,,,,,,,,,,,,,,,,,,,,,,,,,,,,,,,,,,,,,,,,,,,,,,,,,"[""j""]",[1.610599999997703],"[""j""]",[1.6106999999992695],1,0,0,0,0,1,,,,,,,,,,,,,,,,,,,,,,,,,,,,,,,,,,,,,,,,,,,,,,,,,,,,,,,,,,,,,,,,,,,,,,,,,,
,,,,042186,001,2023-07-28_02h57.02.615,fluency,2022.2.4,Win32,59.80503558,,,,,,,,,,,,,,,,,,,,,,,6,3,img/B03_06.jpg,GCNB,Press J if the face is GENDER-CONFORMING and K if the face is NONBINARY,Gender-conforming means that the face appears to be a typical example of its gender. Nonbinary means that the face does not conform to any particular gender norms.,JK,,,,,,,,,,,,,,,,,,,,,,,,,,,,,,,,6,1.4963,,,,,,,,,,,,,,,,,,,,,,,space,0.38,0,74,74,28,1,,,,,,,,,,,,,,,,,,,,,,,,,,,,,,,,,,,,,,,,,,,,,,,,,,,,,,,,,,,,,,,,,,,
,,,,042186,001,2023-07-28_02h57.02.615,fluency,2022.2.4,Win32,59.80503558,,,,,,,,,,,,,,,,,,,,,,,,,,,,,,,,,,,,,,,,,,,,,,,,,,,,,,,,,,,,,,,,,,,,,,,,,,,"[""k""]",[1.9802999999971007],"[""k""]",[1.9802999999971007],1,0,0,0,0,1,,,,,,,,,,,,,,,,,,,,,,,,,,,,,,,,,,,,,,,,,,,,,,,,,,,,,,,,,,,,,,,,,,,,,,,,,,
,,,,042186,001,2023-07-28_02h57.02.615,fluency,2022.2.4,Win32,59.80503558,,,,,,,,,,,,,,,,,,,,,,,3,5,img/B05_03.jpg,GCNB,Press J if the face is GENDER-CONFORMING and K if the face is NONBINARY,Gender-conforming means that the face appears to be a typical example of its gender. Nonbinary means that the face does not conform to any particular gender norms.,JK,,,,,,,,,,,,,,,,,,,,,,,,,,,,,,,,1,0.5273,,,,,,,,,,,,,,,,,,,,,,,space,1.1358,0,75,75,47,1,,,,,,,,,,,,,,,,,,,,,,,,,,,,,,,,,,,,,,,,,,,,,,,,,,,,,,,,,,,,,,,,,,,
,,,,042186,001,2023-07-28_02h57.02.615,fluency,2022.2.4,Win32,59.80503558,,,,,,,,,,,,,,,,,,,,,,,,,,,,,,,,,,,,,,,,,,,,,,,,,,,,,,,,,,,,,,,,,,,,,,,,,,,"[""j""]",[2.7636000000014747],"[""j""]",[2.7636000000014747],1,0,0,0,0,1,,,,,,,,,,,,,,,,,,,,,,,,,,,,,,,,,,,,,,,,,,,,,,,,,,,,,,,,,,,,,,,,,,,,,,,,,,
,,,,042186,001,2023-07-28_02h57.02.615,fluency,2022.2.4,Win32,59.80503558,,,,,,,,,,,,,,,,,,,,,,,5,9,img/B09_05.jpg,GCNB,Press J if the face is GENDER-CONFORMING and K if the face is NONBINARY,Gender-conforming means that the face appears to be a typical example of its gender. Nonbinary means that the face does not conform to any particular gender norms.,JK,,,,,,,,,,,,,,,,,,,,,,,,,,,,,,,,1,1.2119,,,,,,,,,,,,,,,,,,,,,,,space,3.2376,0,76,76,93,1,,,,,,,,,,,,,,,,,,,,,,,,,,,,,,,,,,,,,,,,,,,,,,,,,,,,,,,,,,,,,,,,,,,
,,,,042186,001,2023-07-28_02h57.02.615,fluency,2022.2.4,Win32,59.80503558,,,,,,,,,,,,,,,,,,,,,,,,,,,,,,,,,,,,,,,,,,,,,,,,,,,,,,,,,,,,,,,,,,,,,,,,,,,"[""k""]",[1.1241999999992913],"[""k""]",[1.1241999999992913],1,0,0,0,0,1,,,,,,,,,,,,,,,,,,,,,,,,,,,,,,,,,,,,,,,,,,,,,,,,,,,,,,,,,,,,,,,,,,,,,,,,,,
,,,,042186,001,2023-07-28_02h57.02.615,fluency,2022.2.4,Win32,59.80503558,,,,,,,,,,,,,,,,,,,,,,,5,5,img/B05_05.jpg,GCNB,Press J if the face is GENDER-CONFORMING and K if the face is NONBINARY,Gender-conforming means that the face appears to be a typical example of its gender. Nonbinary means that the face does not conform to any particular gender norms.,JK,,,,,,,,,,,,,,,,,,,,,,,,,,,,,,,,1,0.3727,,,,,,,,,,,,,,,,,,,,,,,space,0.3027,0,77,77,49,1,,,,,,,,,,,,,,,,,,,,,,,,,,,,,,,,,,,,,,,,,,,,,,,,,,,,,,,,,,,,,,,,,,,
,,,,042186,001,2023-07-28_02h57.02.615,fluency,2022.2.4,Win32,59.80503558,,,,,,,,,,,,,,,,,,,,,,,,,,,,,,,,,,,,,,,,,,,,,,,,,,,,,,,,,,,,,,,,,,,,,,,,,,,"[""j""]",[1.6672000000030494],"[""u"",""j""]","[1.2888000000008333,1.6672000000030494]",1,0,0,0,0,1,,,,,,,,,,,,,,,,,,,,,,,,,,,,,,,,,,,,,,,,,,,,,,,,,,,,,,,,,,,,,,,,,,,,,,,,,,
,,,,042186,001,2023-07-28_02h57.02.615,fluency,2022.2.4,Win32,59.80503558,,,,,,,,,,,,,,,,,,,,,,,10,2,img/B02_10.jpg,GCNB,Press J if the face is GENDER-CONFORMING and K if the face is NONBINARY,Gender-conforming means that the face appears to be a typical example of its gender. Nonbinary means that the face does not conform to any particular gender norms.,JK,,,,,,,,,,,,,,,,,,,,,,,,,,,,,,,,4,0.715,,,,,,,,,,,,,,,,,,,,,,,space,0.2855,0,78,78,21,1,,,,,,,,,,,,,,,,,,,,,,,,,,,,,,,,,,,,,,,,,,,,,,,,,,,,,,,,,,,,,,,,,,,
,,,,042186,001,2023-07-28_02h57.02.615,fluency,2022.2.4,Win32,59.80503558,,,,,,,,,,,,,,,,,,,,,,,,,,,,,,,,,,,,,,,,,,,,,,,,,,,,,,,,,,,,,,,,,,,,,,,,,,,"[""k""]",[0.8302000000029466],"[""k""]",[0.8303000000007614],1,0,0,0,0,1,,,,,,,,,,,,,,,,,,,,,,,,,,,,,,,,,,,,,,,,,,,,,,,,,,,,,,,,,,,,,,,,,,,,,,,,,,
,,,,042186,001,2023-07-28_02h57.02.615,fluency,2022.2.4,Win32,59.80503558,,,,,,,,,,,,,,,,,,,,,,,7,8,img/B08_07.jpg,GCNB,Press J if the face is GENDER-CONFORMING and K if the face is NONBINARY,Gender-conforming means that the face appears to be a typical example of its gender. Nonbinary means that the face does not conform to any particular gender norms.,JK,,,,,,,,,,,,,,,,,,,,,,,,,,,,,,,,1,0.2496,,,,,,,,,,,,,,,,,,,,,,,space,0.1428,0,79,79,84,1,,,,,,,,,,,,,,,,,,,,,,,,,,,,,,,,,,,,,,,,,,,,,,,,,,,,,,,,,,,,,,,,,,,
,,,,042186,001,2023-07-28_02h57.02.615,fluency,2022.2.4,Win32,59.80503558,,,,,,,,,,,,,,,,,,,,,,,,,,,,,,,,,,,,,,,,,,,,,,,,,,,,,,,,,,,,,,,,,,,,,,,,,,,"[""j""]",[1.6801999999993313],"[""j""]",[1.6801000000015165],1,0,0,0,0,1,,,,,,,,,,,,,,,,,,,,,,,,,,,,,,,,,,,,,,,,,,,,,,,,,,,,,,,,,,,,,,,,,,,,,,,,,,
,,,,042186,001,2023-07-28_02h57.02.615,fluency,2022.2.4,Win32,59.80503558,,,,,,,,,,,,,,,,,,,,,,,1,10,img/B10_01.jpg,GCNB,Press J if the face is GENDER-CONFORMING and K if the face is NONBINARY,Gender-conforming means that the face appears to be a typical example of its gender. Nonbinary means that the face does not conform to any particular gender norms.,JK,,,,,,,,,,,,,,,,,,,,,,,,,,,,,,,,6,0.6297,,,,,,,,,,,,,,,,,,,,,,,space,0.4004,0,80,80,100,1,,,,,,,,,,,,,,,,,,,,,,,,,,,,,,,,,,,,,,,,,,,,,,,,,,,,,,,,,,,,,,,,,,,
,,,,042186,001,2023-07-28_02h57.02.615,fluency,2022.2.4,Win32,59.80503558,,,,,,,,,,,,,,,,,,,,,,,,,,,,,,,,,,,,,,,,,,,,,,,,,,,,,,,,,,,,,,,,,,,,,,,,,,,"[""j""]",[1.2051999999993086],"[""j""]",[1.2051999999993086],1,0,0,0,0,1,,,,,,,,,,,,,,,,,,,,,,,,,,,,,,,,,,,,,,,,,,,,,,,,,,,,,,,,,,,,,,,,,,,,,,,,,,
,,,,042186,001,2023-07-28_02h57.02.615,fluency,2022.2.4,Win32,59.80503558,,,,,,,,,,,,,,,,,,,,,,,0,5,img/B05_00.jpg,GCNB,Press J if the face is GENDER-CONFORMING and K if the face is NONBINARY,Gender-conforming means that the face appears to be a typical example of its gender. Nonbinary means that the face does not conform to any particular gender norms.,JK,,,,,,,,,,,,,,,,,,,,,,,,,,,,,,,,4,0.4021,,,,,,,,,,,,,,,,,,,,,,,space,0.2372,0,81,81,44,1,,,,,,,,,,,,,,,,,,,,,,,,,,,,,,,,,,,,,,,,,,,,,,,,,,,,,,,,,,,,,,,,,,,
,,,,042186,001,2023-07-28_02h57.02.615,fluency,2022.2.4,Win32,59.80503558,,,,,,,,,,,,,,,,,,,,,,,,,,,,,,,,,,,,,,,,,,,,,,,,,,,,,,,,,,,,,,,,,,,,,,,,,,,"[""k""]",[1.8393999999984771],"[""k""]",[1.8393999999984771],1,0,0,0,0,1,,,,,,,,,,,,,,,,,,,,,,,,,,,,,,,,,,,,,,,,,,,,,,,,,,,,,,,,,,,,,,,,,,,,,,,,,,
,,,,042186,001,2023-07-28_02h57.02.615,fluency,2022.2.4,Win32,59.80503558,,,,,,,,,,,,,,,,,,,,,,,4,3,img/B03_04.jpg,GCNB,Press J if the face is GENDER-CONFORMING and K if the face is NONBINARY,Gender-conforming means that the face appears to be a typical example of its gender. Nonbinary means that the face does not conform to any particular gender norms.,JK,,,,,,,,,,,,,,,,,,,,,,,,,,,,,,,,4,1.1017,,,,,,,,,,,,,,,,,,,,,,,space,0.4171,0,82,82,26,1,,,,,,,,,,,,,,,,,,,,,,,,,,,,,,,,,,,,,,,,,,,,,,,,,,,,,,,,,,,,,,,,,,,
,,,,042186,001,2023-07-28_02h57.02.615,fluency,2022.2.4,Win32,59.80503558,,,,,,,,,,,,,,,,,,,,,,,,,,,,,,,,,,,,,,,,,,,,,,,,,,,,,,,,,,,,,,,,,,,,,,,,,,,"[""k""]",[1.6823000000007369],"[""k""]",[1.6823000000007369],1,0,0,0,0,1,,,,,,,,,,,,,,,,,,,,,,,,,,,,,,,,,,,,,,,,,,,,,,,,,,,,,,,,,,,,,,,,,,,,,,,,,,
,,,,042186,001,2023-07-28_02h57.02.615,fluency,2022.2.4,Win32,59.80503558,,,,,,,,,,,,,,,,,,,,,,,7,6,img/B06_07.jpg,GCNB,Press J if the face is GENDER-CONFORMING and K if the face is NONBINARY,Gender-conforming means that the face appears to be a typical example of its gender. Nonbinary means that the face does not conform to any particular gender norms.,JK,,,,,,,,,,,,,,,,,,,,,,,,,,,,,,,,2,0.44,,,,,,,,,,,,,,,,,,,,,,,space,0.2502,0,83,83,62,1,,,,,,,,,,,,,,,,,,,,,,,,,,,,,,,,,,,,,,,,,,,,,,,,,,,,,,,,,,,,,,,,,,,
,,,,042186,001,2023-07-28_02h57.02.615,fluency,2022.2.4,Win32,59.80503558,,,,,,,,,,,,,,,,,,,,,,,,,,,,,,,,,,,,,,,,,,,,,,,,,,,,,,,,,,,,,,,,,,,,,,,,,,,"[""k""]",[0.9809000000021797],"[""k""]",[0.9809000000021797],1,0,0,0,0,1,,,,,,,,,,,,,,,,,,,,,,,,,,,,,,,,,,,,,,,,,,,,,,,,,,,,,,,,,,,,,,,,,,,,,,,,,,
,,,,042186,001,2023-07-28_02h57.02.615,fluency,2022.2.4,Win32,59.80503558,,,,,,,,,,,,,,,,,,,,,,,6,5,img/B05_06.jpg,GCNB,Press J if the face is GENDER-CONFORMING and K if the face is NONBINARY,Gender-conforming means that the face appears to be a typical example of its gender. Nonbinary means that the face does not conform to any particular gender norms.,JK,,,,,,,,,,,,,,,,,,,,,,,,,,,,,,,,1,0.3964,,,,,,,,,,,,,,,,,,,,,,,space,0.2082,0,84,84,50,1,,,,,,,,,,,,,,,,,,,,,,,,,,,,,,,,,,,,,,,,,,,,,,,,,,,,,,,,,,,,,,,,,,,
,,,,042186,001,2023-07-28_02h57.02.615,fluency,2022.2.4,Win32,59.80503558,,,,,,,,,,,,,,,,,,,,,,,,,,,,,,,,,,,,,,,,,,,,,,,,,,,,,,,,,,,,,,,,,,,,,,,,,,,"[""j""]",[1.6798000000006823],"[""j""]",[1.6798000000006823],1,0,0,0,0,1,,,,,,,,,,,,,,,,,,,,,,,,,,,,,,,,,,,,,,,,,,,,,,,,,,,,,,,,,,,,,,,,,,,,,,,,,,
,,,,042186,001,2023-07-28_02h57.02.615,fluency,2022.2.4,Win32,59.80503558,,,,,,,,,,,,,,,,,,,,,,,1,1,img/B01_01.jpg,GCNB,Press J if the face is GENDER-CONFORMING and K if the face is NONBINARY,Gender-conforming means that the face appears to be a typical example of its gender. Nonbinary means that the face does not conform to any particular gender norms.,JK,,,,,,,,,,,,,,,,,,,,,,,,,,,,,,,,4,1.1245,,,,,,,,,,,,,,,,,,,,,,,space,0.7508,0,85,85,1,1,,,,,,,,,,,,,,,,,,,,,,,,,,,,,,,,,,,,,,,,,,,,,,,,,,,,,,,,,,,,,,,,,,,
,,,,042186,001,2023-07-28_02h57.02.615,fluency,2022.2.4,Win32,59.80503558,,,,,,,,,,,,,,,,,,,,,,,,,,,,,,,,,,,,,,,,,,,,,,,,,,,,,,,,,,,,,,,,,,,,,,,,,,,"[""j""]",[1.9664999999999964],"[""j""]",[1.9664999999999964],1,0,0,0,0,1,,,,,,,,,,,,,,,,,,,,,,,,,,,,,,,,,,,,,,,,,,,,,,,,,,,,,,,,,,,,,,,,,,,,,,,,,,
,,,,042186,001,2023-07-28_02h57.02.615,fluency,2022.2.4,Win32,59.80503558,,,,,,,,,,,,,,,,,,,,,,,10,3,img/B03_10.jpg,GCNB,Press J if the face is GENDER-CONFORMING and K if the face is NONBINARY,Gender-conforming means that the face appears to be a typical example of its gender. Nonbinary means that the face does not conform to any particular gender norms.,JK,,,,,,,,,,,,,,,,,,,,,,,,,,,,,,,,6,1.1918,,,,,,,,,,,,,,,,,,,,,,,space,0.5172,0,86,86,32,1,,,,,,,,,,,,,,,,,,,,,,,,,,,,,,,,,,,,,,,,,,,,,,,,,,,,,,,,,,,,,,,,,,,
,,,,042186,001,2023-07-28_02h57.02.615,fluency,2022.2.4,Win32,59.80503558,,,,,,,,,,,,,,,,,,,,,,,,,,,,,,,,,,,,,,,,,,,,,,,,,,,,,,,,,,,,,,,,,,,,,,,,,,,"[""j""]",[1.9558999999985645],"[""j""]",[1.9558999999985645],1,0,0,0,0,1,,,,,,,,,,,,,,,,,,,,,,,,,,,,,,,,,,,,,,,,,,,,,,,,,,,,,,,,,,,,,,,,,,,,,,,,,,
,,,,042186,001,2023-07-28_02h57.02.615,fluency,2022.2.4,Win32,59.80503558,,,,,,,,,,,,,,,,,,,,,,,1,9,img/B09_01.jpg,GCNB,Press J if the face is GENDER-CONFORMING and K if the face is NONBINARY,Gender-conforming means that the face appears to be a typical example of its gender. Nonbinary means that the face does not conform to any particular gender norms.,JK,,,,,,,,,,,,,,,,,,,,,,,,,,,,,,,,4,1.1348,,,,,,,,,,,,,,,,,,,,,,,space,0.8819,0,87,87,89,1,,,,,,,,,,,,,,,,,,,,,,,,,,,,,,,,,,,,,,,,,,,,,,,,,,,,,,,,,,,,,,,,,,,
,,,,042186,001,2023-07-28_02h57.02.615,fluency,2022.2.4,Win32,59.80503558,,,,,,,,,,,,,,,,,,,,,,,,,,,,,,,,,,,,,,,,,,,,,,,,,,,,,,,,,,,,,,,,,,,,,,,,,,,"[""k""]",[0.9968000000008033],"[""k""]",[0.9966999999992368],1,0,0,0,0,1,,,,,,,,,,,,,,,,,,,,,,,,,,,,,,,,,,,,,,,,,,,,,,,,,,,,,,,,,,,,,,,,,,,,,,,,,,
,,,,042186,001,2023-07-28_02h57.02.615,fluency,2022.2.4,Win32,59.80503558,,,,,,,,,,,,,,,,,,,,,,,6,6,img/B06_06.jpg,GCNB,Press J if the face is GENDER-CONFORMING and K if the face is NONBINARY,Gender-conforming means that the face appears to be a typical example of its gender. Nonbinary means that the face does not conform to any particular gender norms.,JK,,,,,,,,,,,,,,,,,,,,,,,,,,,,,,,,1,0.3798,,,,,,,,,,,,,,,,,,,,,,,space,0.3669,0,88,88,61,1,,,,,,,,,,,,,,,,,,,,,,,,,,,,,,,,,,,,,,,,,,,,,,,,,,,,,,,,,,,,,,,,,,,
,,,,042186,001,2023-07-28_02h57.02.615,fluency,2022.2.4,Win32,59.80503558,,,,,,,,,,,,,,,,,,,,,,,,,,,,,,,,,,,,,,,,,,,,,,,,,,,,,,,,,,,,,,,,,,,,,,,,,,,"[""k""]",[1.255300000000716],"[""k""]",[1.255300000000716],1,0,0,0,0,1,,,,,,,,,,,,,,,,,,,,,,,,,,,,,,,,,,,,,,,,,,,,,,,,,,,,,,,,,,,,,,,,,,,,,,,,,,
,,,,042186,001,2023-07-28_02h57.02.615,fluency,2022.2.4,Win32,59.80503558,,,,,,,,,,,,,,,,,,,,,,,6,1,img/B01_06.jpg,GCNB,Press J if the face is GENDER-CONFORMING and K if the face is NONBINARY,Gender-conforming means that the face appears to be a typical example of its gender. Nonbinary means that the face does not conform to any particular gender norms.,JK,,,,,,,,,,,,,,,,,,,,,,,,,,,,,,,,1,0.4831,,,,,,,,,,,,,,,,,,,,,,,space,0.331,0,89,89,6,1,,,,,,,,,,,,,,,,,,,,,,,,,,,,,,,,,,,,,,,,,,,,,,,,,,,,,,,,,,,,,,,,,,,
,,,,042186,001,2023-07-28_02h57.02.615,fluency,2022.2.4,Win32,59.80503558,,,,,,,,,,,,,,,,,,,,,,,,,,,,,,,,,,,,,,,,,,,,,,,,,,,,,,,,,,,,,,,,,,,,,,,,,,,"[""k""]",[0.9206999999993286],"[""k""]",[0.9205999999977621],1,0,0,0,0,1,,,,,,,,,,,,,,,,,,,,,,,,,,,,,,,,,,,,,,,,,,,,,,,,,,,,,,,,,,,,,,,,,,,,,,,,,,
,,,,042186,001,2023-07-28_02h57.02.615,fluency,2022.2.4,Win32,59.80503558,,,,,,,,,,,,,,,,,,,,,,,5,10,img/B10_05.jpg,GCNB,Press J if the face is GENDER-CONFORMING and K if the face is NONBINARY,Gender-conforming means that the face appears to be a typical example of its gender. Nonbinary means that the face does not conform to any particular gender norms.,JK,,,,,,,,,,,,,,,,,,,,,,,,,,,,,,,,1,0.3755,,,,,,,,,,,,,,,,,,,,,,,space,0.281,0,90,90,104,1,,,,,,,,,,,,,,,,,,,,,,,,,,,,,,,,,,,,,,,,,,,,,,,,,,,,,,,,,,,,,,,,,,,
,,,,042186,001,2023-07-28_02h57.02.615,fluency,2022.2.4,Win32,59.80503558,,,,,,,,,,,,,,,,,,,,,,,,,,,,,,,,,,,,,,,,,,,,,,,,,,,,,,,,,,,,,,,,,,,,,,,,,,,"[""k""]",[0.7890999999978021],"[""k""]",[0.7890999999978021],1,0,0,0,0,1,,,,,,,,,,,,,,,,,,,,,,,,,,,,,,,,,,,,,,,,,,,,,,,,,,,,,,,,,,,,,,,,,,,,,,,,,,
,,,,042186,001,2023-07-28_02h57.02.615,fluency,2022.2.4,Win32,59.80503558,,,,,,,,,,,,,,,,,,,,,,,1,6,img/B06_01.jpg,GCNB,Press J if the face is GENDER-CONFORMING and K if the face is NONBINARY,Gender-conforming means that the face appears to be a typical example of its gender. Nonbinary means that the face does not conform to any particular gender norms.,JK,,,,,,,,,,,,,,,,,,,,,,,,,,,,,,,,1,0.412,,,,,,,,,,,,,,,,,,,,,,,space,0.2836,0,91,91,56,1,,,,,,,,,,,,,,,,,,,,,,,,,,,,,,,,,,,,,,,,,,,,,,,,,,,,,,,,,,,,,,,,,,,
,,,,042186,001,2023-07-28_02h57.02.615,fluency,2022.2.4,Win32,59.80503558,,,,,,,,,,,,,,,,,,,,,,,,,,,,,,,,,,,,,,,,,,,,,,,,,,,,,,,,,,,,,,,,,,,,,,,,,,,"[""k""]",[0.7484000000022206],"[""k""]",[0.7485000000000355],1,0,0,0,0,1,,,,,,,,,,,,,,,,,,,,,,,,,,,,,,,,,,,,,,,,,,,,,,,,,,,,,,,,,,,,,,,,,,,,,,,,,,
,,,,042186,001,2023-07-28_02h57.02.615,fluency,2022.2.4,Win32,59.80503558,,,,,,,,,,,,,,,,,,,,,,,5,2,img/B02_05.jpg,GCNB,Press J if the face is GENDER-CONFORMING and K if the face is NONBINARY,Gender-conforming means that the face appears to be a typical example of its gender. Nonbinary means that the face does not conform to any particular gender norms.,JK,,,,,,,,,,,,,,,,,,,,,,,,,,,,,,,,1,0.4859,,,,,,,,,,,,,,,,,,,,,,,space,0.2735,0,92,92,16,1,,,,,,,,,,,,,,,,,,,,,,,,,,,,,,,,,,,,,,,,,,,,,,,,,,,,,,,,,,,,,,,,,,,
,,,,042186,001,2023-07-28_02h57.02.615,fluency,2022.2.4,Win32,59.80503558,,,,,,,,,,,,,,,,,,,,,,,,,,,,,,,,,,,,,,,,,,,,,,,,,,,,,,,,,,,,,,,,,,,,,,,,,,,"[""j""]",[1.6129999999999427],"[""j""]",[1.6130000000000564],1,0,0,0,0,1,,,,,,,,,,,,,,,,,,,,,,,,,,,,,,,,,,,,,,,,,,,,,,,,,,,,,,,,,,,,,,,,,,,,,,,,,,
,,,,042186,001,2023-07-28_02h57.02.615,fluency,2022.2.4,Win32,59.80503558,,,,,,,,,,,,,,,,,,,,,,,7,9,img/B09_07.jpg,GCNB,Press J if the face is GENDER-CONFORMING and K if the face is NONBINARY,Gender-conforming means that the face appears to be a typical example of its gender. Nonbinary means that the face does not conform to any particular gender norms.,JK,,,,,,,,,,,,,,,,,,,,,,,,,,,,,,,,2,0.4412,,,,,,,,,,,,,,,,,,,,,,,space,0.3554,0,93,93,95,1,,,,,,,,,,,,,,,,,,,,,,,,,,,,,,,,,,,,,,,,,,,,,,,,,,,,,,,,,,,,,,,,,,,
,,,,042186,001,2023-07-28_02h57.02.615,fluency,2022.2.4,Win32,59.80503558,,,,,,,,,,,,,,,,,,,,,,,,,,,,,,,,,,,,,,,,,,,,,,,,,,,,,,,,,,,,,,,,,,,,,,,,,,,"[""k""]",[0.9217000000029429],"[""k""]",[0.9216000000014901],1,0,0,0,0,1,,,,,,,,,,,,,,,,,,,,,,,,,,,,,,,,,,,,,,,,,,,,,,,,,,,,,,,,,,,,,,,,,,,,,,,,,,
,,,,042186,001,2023-07-28_02h57.02.615,fluency,2022.2.4,Win32,59.80503558,,,,,,,,,,,,,,,,,,,,,,,10,10,img/B10_10.jpg,GCNB,Press J if the face is GENDER-CONFORMING and K if the face is NONBINARY,Gender-conforming means that the face appears to be a typical example of its gender. Nonbinary means that the face does not conform to any particular gender norms.,JK,,,,,,,,,,,,,,,,,,,,,,,,,,,,,,,,2,1.5801,,,,,,,,,,,,,,,,,,,,,,,space,0.3744,0,94,94,109,1,,,,,,,,,,,,,,,,,,,,,,,,,,,,,,,,,,,,,,,,,,,,,,,,,,,,,,,,,,,,,,,,,,,
,,,,042186,001,2023-07-28_02h57.02.615,fluency,2022.2.4,Win32,59.80503558,,,,,,,,,,,,,,,,,,,,,,,,,,,,,,,,,,,,,,,,,,,,,,,,,,,,,,,,,,,,,,,,,,,,,,,,,,,"[""k""]",[1.029800000000705],"[""k""]",[1.029800000000705],1,0,0,0,0,1,,,,,,,,,,,,,,,,,,,,,,,,,,,,,,,,,,,,,,,,,,,,,,,,,,,,,,,,,,,,,,,,,,,,,,,,,,
,,,,042186,001,2023-07-28_02h57.02.615,fluency,2022.2.4,Win32,59.80503558,,,,,,,,,,,,,,,,,,,,,,,6,8,img/B08_06.jpg,GCNB,Press J if the face is GENDER-CONFORMING and K if the face is NONBINARY,Gender-conforming means that the face appears to be a typical example of its gender. Nonbinary means that the face does not conform to any particular gender norms.,JK,,,,,,,,,,,,,,,,,,,,,,,,,,,,,,,,1,0.4141,,,,,,,,,,,,,,,,,,,,,,,space,0.3673,0,95,95,83,1,,,,,,,,,,,,,,,,,,,,,,,,,,,,,,,,,,,,,,,,,,,,,,,,,,,,,,,,,,,,,,,,,,,
,,,,042186,001,2023-07-28_02h57.02.615,fluency,2022.2.4,Win32,59.80503558,,,,,,,,,,,,,,,,,,,,,,,,,,,,,,,,,,,,,,,,,,,,,,,,,,,,,,,,,,,,,,,,,,,,,,,,,,,"[""k""]",[1.716699999999264],"[""k""]",[1.716699999999264],1,0,0,0,0,1,,,,,,,,,,,,,,,,,,,,,,,,,,,,,,,,,,,,,,,,,,,,,,,,,,,,,,,,,,,,,,,,,,,,,,,,,,
,,,,042186,001,2023-07-28_02h57.02.615,fluency,2022.2.4,Win32,59.80503558,,,,,,,,,,,,,,,,,,,,,,,2,8,img/B08_02.jpg,GCNB,Press J if the face is GENDER-CONFORMING and K if the face is NONBINARY,Gender-conforming means that the face appears to be a typical example of its gender. Nonbinary means that the face does not conform to any particular gender norms.,JK,,,,,,,,,,,,,,,,,,,,,,,,,,,,,,,,2,1.5803,,,,,,,,,,,,,,,,,,,,,,,space,0.4005,0,96,96,79,1,,,,,,,,,,,,,,,,,,,,,,,,,,,,,,,,,,,,,,,,,,,,,,,,,,,,,,,,,,,,,,,,,,,
,,,,042186,001,2023-07-28_02h57.02.615,fluency,2022.2.4,Win32,59.80503558,,,,,,,,,,,,,,,,,,,,,,,,,,,,,,,,,,,,,,,,,,,,,,,,,,,,,,,,,,,,,,,,,,,,,,,,,,,"[""k""]",[0.9149999999999636],"[""k""]",[0.9149999999999636],1,0,0,0,0,1,,,,,,,,,,,,,,,,,,,,,,,,,,,,,,,,,,,,,,,,,,,,,,,,,,,,,,,,,,,,,,,,,,,,,,,,,,
,,,,042186,001,2023-07-28_02h57.02.615,fluency,2022.2.4,Win32,59.80503558,,,,,,,,,,,,,,,,,,,,,,,2,10,img/B10_02.jpg,GCNB,Press J if the face is GENDER-CONFORMING and K if the face is NONBINARY,Gender-conforming means that the face appears to be a typical example of its gender. Nonbinary means that the face does not conform to any particular gender norms.,JK,,,,,,,,,,,,,,,,,,,,,,,,,,,,,,,,7,0.6621,,,,,,,,,,,,,,,,,,,,,,,space,0.348,0,97,97,101,1,,,,,,,,,,,,,,,,,,,,,,,,,,,,,,,,,,,,,,,,,,,,,,,,,,,,,,,,,,,,,,,,,,,
,,,,042186,001,2023-07-28_02h57.02.615,fluency,2022.2.4,Win32,59.80503558,,,,,,,,,,,,,,,,,,,,,,,,,,,,,,,,,,,,,,,,,,,,,,,,,,,,,,,,,,,,,,,,,,,,,,,,,,,"[""k""]",[1.0003000000008342],"[""k""]",[1.0003999999985353],1,0,0,0,0,1,,,,,,,,,,,,,,,,,,,,,,,,,,,,,,,,,,,,,,,,,,,,,,,,,,,,,,,,,,,,,,,,,,,,,,,,,,
,,,,042186,001,2023-07-28_02h57.02.615,fluency,2022.2.4,Win32,59.80503558,,,,,,,,,,,,,,,,,,,,,,,2,2,img/B02_02.jpg,GCNB,Press J if the face is GENDER-CONFORMING and K if the face is NONBINARY,Gender-conforming means that the face appears to be a typical example of its gender. Nonbinary means that the face does not conform to any particular gender norms.,JK,,,,,,,,,,,,,,,,,,,,,,,,,,,,,,,,1,0.5334,,,,,,,,,,,,,,,,,,,,,,,space,0.3004,0,98,98,13,1,,,,,,,,,,,,,,,,,,,,,,,,,,,,,,,,,,,,,,,,,,,,,,,,,,,,,,,,,,,,,,,,,,,
,,,,042186,001,2023-07-28_02h57.02.615,fluency,2022.2.4,Win32,59.80503558,,,,,,,,,,,,,,,,,,,,,,,,,,,,,,,,,,,,,,,,,,,,,,,,,,,,,,,,,,,,,,,,,,,,,,,,,,,"[""j""]",[0.9810999999976957],"[""j""]",[0.9809999999999945],1,0,0,0,0,1,,,,,,,,,,,,,,,,,,,,,,,,,,,,,,,,,,,,,,,,,,,,,,,,,,,,,,,,,,,,,,,,,,,,,,,,,,
,,,,042186,001,2023-07-28_02h57.02.615,fluency,2022.2.4,Win32,59.80503558,,,,,,,,,,,,,,,,,,,,,,,8,9,img/B09_08.jpg,GCNB,Press J if the face is GENDER-CONFORMING and K if the face is NONBINARY,Gender-conforming means that the face appears to be a typical example of its gender. Nonbinary means that the face does not conform to any particular gender norms.,JK,,,,,,,,,,,,,,,,,,,,,,,,,,,,,,,,2,0.3678,,,,,,,,,,,,,,,,,,,,,,,space,0.2697,0,99,99,96,1,,,,,,,,,,,,,,,,,,,,,,,,,,,,,,,,,,,,,,,,,,,,,,,,,,,,,,,,,,,,,,,,,,,
,,,,042186,001,2023-07-28_02h57.02.615,fluency,2022.2.4,Win32,59.80503558,,,,,,,,,,,,,,,,,,,,,,,,,,,,,,,,,,,,,,,,,,,,,,,,,,,,,,,,,,,,,,,,,,,,,,,,,,,"[""k""]",[0.9153000000007978],"[""k""]",[0.9153000000007978],1,0,0,0,0,1,,,,,,,,,,,,,,,,,,,,,,,,,,,,,,,,,,,,,,,,,,,,,,,,,,,,,,,,,,,,,,,,,,,,,,,,,,
,,,,042186,001,2023-07-28_02h57.02.615,fluency,2022.2.4,Win32,59.80503558,,,,,,,,,,,,,,,,,,,,,,,4,8,img/B08_04.jpg,GCNB,Press J if the face is GENDER-CONFORMING and K if the face is NONBINARY,Gender-conforming means that the face appears to be a typical example of its gender. Nonbinary means that the face does not conform to any particular gender norms.,JK,,,,,,,,,,,,,,,,,,,,,,,,,,,,,,,,1,0.4445,,,,,,,,,,,,,,,,,,,,,,,space,0.271,0,100,100,81,1,,,,,,,,,,,,,,,,,,,,,,,,,,,,,,,,,,,,,,,,,,,,,,,,,,,,,,,,,,,,,,,,,,,
,,,,042186,001,2023-07-28_02h57.02.615,fluency,2022.2.4,Win32,59.80503558,,,,,,,,,,,,,,,,,,,,,,,,,,,,,,,,,,,,,,,,,,,,,,,,,,,,,,,,,,,,,,,,,,,,,,,,,,,"[""k""]",[1.7479999999999336],"[""k""]",[1.7478999999984808],1,0,0,0,0,1,,,,,,,,,,,,,,,,,,,,,,,,,,,,,,,,,,,,,,,,,,,,,,,,,,,,,,,,,,,,,,,,,,,,,,,,,,
,,,,042186,001,2023-07-28_02h57.02.615,fluency,2022.2.4,Win32,59.80503558,,,,,,,,,,,,,,,,,,,,,,,4,9,img/B09_04.jpg,GCNB,Press J if the face is GENDER-CONFORMING and K if the face is NONBINARY,Gender-conforming means that the face appears to be a typical example of its gender. Nonbinary means that the face does not conform to any particular gender norms.,JK,,,,,,,,,,,,,,,,,,,,,,,,,,,,,,,,2,0.5325,,,,,,,,,,,,,,,,,,,,,,,space,0.2348,0,101,101,92,1,,,,,,,,,,,,,,,,,,,,,,,,,,,,,,,,,,,,,,,,,,,,,,,,,,,,,,,,,,,,,,,,,,,
,,,,042186,001,2023-07-28_02h57.02.615,fluency,2022.2.4,Win32,59.80503558,,,,,,,,,,,,,,,,,,,,,,,,,,,,,,,,,,,,,,,,,,,,,,,,,,,,,,,,,,,,,,,,,,,,,,,,,,,"[""j""]",[1.5881000000014183],"[""j""]",[1.5879999999999654],1,0,0,0,0,1,,,,,,,,,,,,,,,,,,,,,,,,,,,,,,,,,,,,,,,,,,,,,,,,,,,,,,,,,,,,,,,,,,,,,,,,,,
,,,,042186,001,2023-07-28_02h57.02.615,fluency,2022.2.4,Win32,59.80503558,,,,,,,,,,,,,,,,,,,,,,,9,8,img/B08_09.jpg,GCNB,Press J if the face is GENDER-CONFORMING and K if the face is NONBINARY,Gender-conforming means that the face appears to be a typical example of its gender. Nonbinary means that the face does not conform to any particular gender norms.,JK,,,,,,,,,,,,,,,,,,,,,,,,,,,,,,,,2,1.6607,,,,,,,,,,,,,,,,,,,,,,,space,0.5651,0,102,102,86,1,,,,,,,,,,,,,,,,,,,,,,,,,,,,,,,,,,,,,,,,,,,,,,,,,,,,,,,,,,,,,,,,,,,
,,,,042186,001,2023-07-28_02h57.02.615,fluency,2022.2.4,Win32,59.80503558,,,,,,,,,,,,,,,,,,,,,,,,,,,,,,,,,,,,,,,,,,,,,,,,,,,,,,,,,,,,,,,,,,,,,,,,,,,"[""j""]",[0.8845000000000027],"[""j""]",[0.8845000000000027],1,0,0,0,0,1,,,,,,,,,,,,,,,,,,,,,,,,,,,,,,,,,,,,,,,,,,,,,,,,,,,,,,,,,,,,,,,,,,,,,,,,,,
,,,,042186,001,2023-07-28_02h57.02.615,fluency,2022.2.4,Win32,59.80503558,,,,,,,,,,,,,,,,,,,,,,,6,9,img/B09_06.jpg,GCNB,Press J if the face is GENDER-CONFORMING and K if the face is NONBINARY,Gender-conforming means that the face appears to be a typical example of its gender. Nonbinary means that the face does not conform to any particular gender norms.,JK,,,,,,,,,,,,,,,,,,,,,,,,,,,,,,,,3,0.3676,,,,,,,,,,,,,,,,,,,,,,,space,0.2836,0,103,103,94,1,,,,,,,,,,,,,,,,,,,,,,,,,,,,,,,,,,,,,,,,,,,,,,,,,,,,,,,,,,,,,,,,,,,
,,,,042186,001,2023-07-28_02h57.02.615,fluency,2022.2.4,Win32,59.80503558,,,,,,,,,,,,,,,,,,,,,,,,,,,,,,,,,,,,,,,,,,,,,,,,,,,,,,,,,,,,,,,,,,,,,,,,,,,"[""k""]",[1.1525000000000318],"[""k""]",[1.152399999998579],1,0,0,0,0,1,,,,,,,,,,,,,,,,,,,,,,,,,,,,,,,,,,,,,,,,,,,,,,,,,,,,,,,,,,,,,,,,,,,,,,,,,,
,,,,042186,001,2023-07-28_02h57.02.615,fluency,2022.2.4,Win32,59.80503558,,,,,,,,,,,,,,,,,,,,,,,5,7,img/B07_05.jpg,GCNB,Press J if the face is GENDER-CONFORMING and K if the face is NONBINARY,Gender-conforming means that the face appears to be a typical example of its gender. Nonbinary means that the face does not conform to any particular gender norms.,JK,,,,,,,,,,,,,,,,,,,,,,,,,,,,,,,,3,0.644,,,,,,,,,,,,,,,,,,,,,,,space,0.4239,0,104,104,71,1,,,,,,,,,,,,,,,,,,,,,,,,,,,,,,,,,,,,,,,,,,,,,,,,,,,,,,,,,,,,,,,,,,,
,,,,042186,001,2023-07-28_02h57.02.615,fluency,2022.2.4,Win32,59.80503558,,,,,,,,,,,,,,,,,,,,,,,,,,,,,,,,,,,,,,,,,,,,,,,,,,,,,,,,,,,,,,,,,,,,,,,,,,,"[""j""]",[1.586099999997714],"[""j""]",[1.5860000000000127],1,0,0,0,0,1,,,,,,,,,,,,,,,,,,,,,,,,,,,,,,,,,,,,,,,,,,,,,,,,,,,,,,,,,,,,,,,,,,,,,,,,,,
,,,,042186,001,2023-07-28_02h57.02.615,fluency,2022.2.4,Win32,59.80503558,,,,,,,,,,,,,,,,,,,,,,,9,4,img/B04_09.jpg,GCNB,Press J if the face is GENDER-CONFORMING and K if the face is NONBINARY,Gender-conforming means that the face appears to be a typical example of its gender. Nonbinary means that the face does not conform to any particular gender norms.,JK,,,,,,,,,,,,,,,,,,,,,,,,,,,,,,,,2,0.9516,,,,,,,,,,,,,,,,,,,,,,,space,0.4324,0,105,105,42,1,,,,,,,,,,,,,,,,,,,,,,,,,,,,,,,,,,,,,,,,,,,,,,,,,,,,,,,,,,,,,,,,,,,
,,,,042186,001,2023-07-28_02h57.02.615,fluency,2022.2.4,Win32,59.80503558,,,,,,,,,,,,,,,,,,,,,,,,,,,,,,,,,,,,,,,,,,,,,,,,,,,,,,,,,,,,,,,,,,,,,,,,,,,"[""j""]",[2.3979000000022097],"[""j""]",[2.3979000000022097],1,0,0,0,0,1,,,,,,,,,,,,,,,,,,,,,,,,,,,,,,,,,,,,,,,,,,,,,,,,,,,,,,,,,,,,,,,,,,,,,,,,,,
,,,,042186,001,2023-07-28_02h57.02.615,fluency,2022.2.4,Win32,59.80503558,,,,,,,,,,,,,,,,,,,,,,,10,6,img/B06_10.jpg,GCNB,Press J if the face is GENDER-CONFORMING and K if the face is NONBINARY,Gender-conforming means that the face appears to be a typical example of its gender. Nonbinary means that the face does not conform to any particular gender norms.,JK,,,,,,,,,,,,,,,,,,,,,,,,,,,,,,,,7,1.7334,,,,,,,,,,,,,,,,,,,,,,,space,0.9342,0,106,106,65,1,,,,,,,,,,,,,,,,,,,,,,,,,,,,,,,,,,,,,,,,,,,,,,,,,,,,,,,,,,,,,,,,,,,
,,,,042186,001,2023-07-28_02h57.02.615,fluency,2022.2.4,Win32,59.80503558,,,,,,,,,,,,,,,,,,,,,,,,,,,,,,,,,,,,,,,,,,,,,,,,,,,,,,,,,,,,,,,,,,,,,,,,,,,"[""k""]",[2.1538000000007287],"[""k""]",[2.1538000000007287],1,0,0,0,0,1,,,,,,,,,,,,,,,,,,,,,,,,,,,,,,,,,,,,,,,,,,,,,,,,,,,,,,,,,,,,,,,,,,,,,,,,,,
,,,,042186,001,2023-07-28_02h57.02.615,fluency,2022.2.4,Win32,59.80503558,,,,,,,,,,,,,,,,,,,,,,,7,4,img/B04_07.jpg,GCNB,Press J if the face is GENDER-CONFORMING and K if the face is NONBINARY,Gender-conforming means that the face appears to be a typical example of its gender. Nonbinary means that the face does not conform to any particular gender norms.,JK,,,,,,,,,,,,,,,,,,,,,,,,,,,,,,,,3,1.929,,,,,,,,,,,,,,,,,,,,,,,space,0.7696,0,107,107,40,1,,,,,,,,,,,,,,,,,,,,,,,,,,,,,,,,,,,,,,,,,,,,,,,,,,,,,,,,,,,,,,,,,,,
,,,,042186,001,2023-07-28_02h57.02.615,fluency,2022.2.4,Win32,59.80503558,,,,,,,,,,,,,,,,,,,,,,,,,,,,,,,,,,,,,,,,,,,,,,,,,,,,,,,,,,,,,,,,,,,,,,,,,,,"[""j""]",[1.2978000000007341],"[""j""]",[1.2978000000007341],1,0,0,0,0,1,,,,,,,,,,,,,,,,,,,,,,,,,,,,,,,,,,,,,,,,,,,,,,,,,,,,,,,,,,,,,,,,,,,,,,,,,,
,,,,042186,001,2023-07-28_02h57.02.615,fluency,2022.2.4,Win32,59.80503558,,,,,,,,,,,,,,,,,,,,,,,2,4,img/B04_02.jpg,GCNB,Press J if the face is GENDER-CONFORMING and K if the face is NONBINARY,Gender-conforming means that the face appears to be a typical example of its gender. Nonbinary means that the face does not conform to any particular gender norms.,JK,,,,,,,,,,,,,,,,,,,,,,,,,,,,,,,,8,1.6467,,,,,,,,,,,,,,,,,,,,,,,space,0.734,0,108,108,35,1,,,,,,,,,,,,,,,,,,,,,,,,,,,,,,,,,,,,,,,,,,,,,,,,,,,,,,,,,,,,,,,,,,,
,,,,042186,001,2023-07-28_02h57.02.615,fluency,2022.2.4,Win32,59.80503558,,,,,,,,,,,,,,,,,,,,,,,,,,,,,,,,,,,,,,,,,,,,,,,,,,,,,,,,,,,,,,,,,,,,,,,,,,,"[""j""]",[0.8484999999999445],"[""j""]",[0.8484000000022434],1,0,0,0,0,1,,,,,,,,,,,,,,,,,,,,,,,,,,,,,,,,,,,,,,,,,,,,,,,,,,,,,,,,,,,,,,,,,,,,,,,,,,
,,,,042186,001,2023-07-28_02h57.02.615,fluency,2022.2.4,Win32,59.80503558,,,,,,,,,,,,,,,,,,,,,,,8,8,img/B08_08.jpg,GCNB,Press J if the face is GENDER-CONFORMING and K if the face is NONBINARY,Gender-conforming means that the face appears to be a typical example of its gender. Nonbinary means that the face does not conform to any particular gender norms.,JK,,,,,,,,,,,,,,,,,,,,,,,,,,,,,,,,2,1.2344,,,,,,,,,,,,,,,,,,,,,,,space,2.0204,0,109,109,85,1,,,,,,,,,,,,,,,,,,,,,,,,,,,,,,,,,,,,,,,,,,,,,,,,,,,,,,,,,,,,,,,,,,,
,,,,042186,001,2023-07-28_02h57.02.615,fluency,2022.2.4,Win32,59.80503558,,,,,,,,,,,,,,,,,,,,,,,,,,,,,,,,,,,,,,,,,,,,,,,,,,,,,,,,,,,,,,,,,,,,,,,,,,,,,,,,,,,,,,,,,,,,,,,,,,,space,7.0897,,,,,,,,,,,,,,,,,,,,,,,,,,,,,,,,,,,,,,,,,,,,,,,,,,,,,,,,,,
,,,,042186,001,2023-07-28_02h57.02.615,fluency,2022.2.4,Win32,59.80503558,,,,,,,,,,,,,,,,,,,,,,,,,,,,,,,,,,,,,,,,,,,,,,,,,,,,,,,,,,,,,,,,,,,,,,,,,,,,,,,,,,,,,,,,,,,,,,,,,,,,,4,24.5672,3,20.9841,4,41.4371,6,45.95,1,[1.1835000000000946],[1.1835000000000946],,,,,,,,,,,,,,,,,,,,,,,,,,,,,,,,,,,,,,,,,,,,,,,
,,,,042186,001,2023-07-28_02h57.02.615,fluency,2022.2.4,Win32,59.80503558,,,,,,,,,,,,,,,,,,,,,,,,,,,,,,,,,,,,,,,,,,,,,,,,,,,,,,,,,,,,,,,,,,,,,,,,,,,,,,,,,,,,,,,,,,,,,,,,,,,,,,,,,,,,,,,,4,26.7625,2,31.3896,5,35.1896,5,38.6139,1,[0.5832000000029893],[0.5832000000029893],,,,,,,,,,,,,,,,,,,,,,,,,,,,,,,,,,,,
,,,,042186,001,2023-07-28_02h57.02.615,fluency,2022.2.4,Win32,59.80503558,,,,,,,,,,,,,,,,,,,,,,,,,,,,,,,,,,,,,,,,,,,,,,,,,,,,,,,,,,,,,,,,,,,,,,,,,,,,,,,,,,,,,,,,,,,,,,,,,,,,,,,,,,,,,,,,,,,,,,,,,,,3,6.4888,2,10.7215,2,15.2802,3,22.5641,1,[3.0499000000022534],[3.0499000000022534],,,,,,,,,,,,,,,,,,,,,,,,,
,,,,042186,001,2023-07-28_02h57.02.615,fluency,2022.2.4,Win32,59.80503558,,,,,,,,,,,,,,,,,,,,,,,,,,,,,,,,,,,,,,,,,,,,,,,,,,,,,,,,,,,,,,,,,,,,,,,,,,,,,,,,,,,,,,,,,,,,,,,,,,,,,,,,,,,,,,,,,,,,,,,,,,,,,,,,,,,,,,4,4.241,5,9.03,3,12.0767,1,[1.6833000000007132],[1.6833000000007132],,,,,,,,,,,,,,,,
,,,,042186,001,2023-07-28_02h57.02.615,fluency,2022.2.4,Win32,59.80503558,,,,,,,,,,,,,,,,,,,,,,,,,,,,,,,,,,,,,,,,,,,,,,,,,,,,,,,,,,,,,,,,,,,,,,,,,,,,,,,,,,,,,,,,,,,,,,,,,,,,,,,,,,,,,,,,,,,,,,,,,,,,,,,,,,,,,,,,,,,,,,,3,2.338,4,4.6779,,1,[5.0498000000008005],[5.0498000000008005],,,,,,,,
,,,,042186,001,2023-07-28_02h57.02.615,fluency,2022.2.4,Win32,59.80503558,,,,,,,,,,,,,,,,,,,,,,,,,,,,,,,,,,,,,,,,,,,,,,,,,,,,,,,,,,,,,,,,,,,,,,,,,,,,,,,,,,,,,,,,,,,,,,,,,,,,,,,,,,,,,,,,,,,,,,,,,,,,,,,,,,,,,,,,,,,,,,,,,,,,,,,"It was challenging to figure out the faces that were ""original"", specially at the beginning. But at a certain point I was able to identify the face in which the features most seemed correct to the respective faces I think. Plus on some faces you were able to see some almost transparent features on the hair and clothes.",1,[243.30530000000067],[243.30530000000067],,,,
,,,,042186,001,2023-07-28_02h57.02.615,fluency,2022.2.4,Win32,59.80503558,,,,,,,,,,,,,,,,,,,,,,,,,,,,,,,,,,,,,,,,,,,,,,,,,,,,,,,,,,,,,,,,,,,,,,,,,,,,,,,,,,,,,,,,,,,,,,,,,,,,,,,,,,,,,,,,,,,,,,,,,,,,,,,,,,,,,,,,,,,,,,,,,,,,,,,,,,,space,5.8807,,
,,,,042186,001,2023-07-28_02h57.02.615,fluency,2022.2.4,Win32,59.80503558,,,,,,,,,,,,,,,,,,,,,,,,,,,,,,,,,,,,,,,,,,,,,,,,,,,,,,,,,,,,,,,,,,,,,,,,,,,,,,,,,,,,,,,,,,,,,,,,,,,,,,,,,,,,,,,,,,,,,,,,,,,,,,,,,,,,,,,,,,,,,,,,,,,,,,,,,,,,,tab,28.3065
