idTextbox.text,welcomeDone.numClicks,welcomeDone.timesOn,welcomeDone.timesOff,participant,session,date,expName,psychopyVersion,OS,frameRate,consent_advance.keys,consent_advance.rt,consent_advance_2.keys,consent_advance_2.rt,consentClick.x,consentClick.y,consentClick.leftButton,consentClick.midButton,consentClick.rightButton,consentClick.time,consentClick.clicked_name,instr_advance_3.keys,instr_advance_3.rt,spec_instr_adv.keys,spec_instr_adv.rt,spec_instr_adv2.keys,spec_instr_adv2.rt,instrLoop.thisRepN,instrLoop.thisTrialN,instrLoop.thisN,instrLoop.thisIndex,instrLoop.ran,steps,fams,face_file,cond,instr,term,key_map,attnKeyResp1.keys,attnKeyResp1.rt,q1.thisRepN,q1.thisTrialN,q1.thisN,q1.thisIndex,q1.ran,attnKeyResp2.keys,attnKeyResp2.rt,q2.thisRepN,q2.thisTrialN,q2.thisN,q2.thisIndex,q2.ran,attnKeyResp3.keys,attnKeyResp3.rt,q3.thisRepN,q3.thisTrialN,q3.thisN,q3.thisIndex,q3.ran,practiceStart.keys,practiceStart.rt,practiceResp.keys,practiceResp.rt,timesRedone,practiceRepeat.thisRepN,practiceRepeat.thisTrialN,practiceRepeat.thisN,practiceRepeat.thisIndex,practiceRepeat.ran,attrRating.keys,attrRating.rt,practiceTrial.thisRepN,practiceTrial.thisTrialN,practiceTrial.thisN,practiceTrial.thisIndex,practiceTrial.ran,key_resp_3.keys,key_resp_3.rt,attnChecker.thisRepN,attnChecker.thisTrialN,attnChecker.thisN,attnChecker.thisIndex,attnChecker.ran,catResp.keys,catResp.rt,catAllKeys.keys,catAllKeys.rt,globalTimesRedone,repeat_loop.thisRepN,repeat_loop.thisTrialN,repeat_loop.thisN,repeat_loop.thisIndex,repeat_loop.ran,contResp.keys,contResp.rt,trials.thisRepN,trials.thisTrialN,trials.thisN,trials.thisIndex,trials.ran,contResp_2.keys,contResp_2.rt,respQ1.response,respQ1.rt,respQ2.response,respQ2.rt,respQ3.response,respQ3.rt,respQ4.response,respQ4.rt,surveyContinue1.numClicks,surveyContinue1.timesOn,surveyContinue1.timesOff,respQ5.response,respQ5.rt,respQ6.response,respQ6.rt,respQ7.response,respQ7.rt,respQ8.response,respQ8.rt,surveyContinue2.numClicks,surveyContinue2.timesOn,surveyContinue2.timesOff,respQ9.response,respQ9.rt,respQ10.response,respQ10.rt,respQ11.response,respQ11.rt,respQ12.response,respQ12.rt,surveyContinue3.numClicks,surveyContinue3.timesOn,surveyContinue3.timesOff,respQ13.response,respQ13.rt,respQ14.response,respQ14.rt,respQ15.response,respQ15.rt,surveyContinue4.numClicks,surveyContinue4.timesOn,surveyContinue4.timesOff,respAge.response,respAge.rt,genderResp1.response,genderResp1.rt,genderResp2.text,demogexitClick.numClicks,demogexitClick.timesOn,demogexitClick.timesOff,textbox.text,openAnswerClick.numClicks,openAnswerClick.timesOn,openAnswerClick.timesOff,debriefEnd.keys,debriefEnd.rt,exitKey.keys,exitKey.rt
60fcee7cb4390b2acec376e8,1,[6.918300000011897],[6.918300000011897],101436,001,2023-07-28_15h31.51.872,fluency,2022.2.4,Win32,59.82650314,,,,,,,,,,,,,,,,,,,,,,,,,,,,,,,,,,,,,,,,,,,,,,,,,,,,,,,,,,,,,,,,,,,,,,,,,,,,,,,,,,,,,,,,,,,,,,,,,,,,,,,,,,,,,,,,,,,,,,,,,,,,,,,,,,,,,,,,,,,,,,,,,,,,,,,
,,,,101436,001,2023-07-28_15h31.51.872,fluency,2022.2.4,Win32,59.82650314,space,5.8553,,,,,,,,,,,,,,,,,,,,,,,,,,,,,,,,,,,,,,,,,,,,,,,,,,,,,,,,,,,,,,,,,,,,,,,,,,,,,,,,,,,,,,,,,,,,,,,,,,,,,,,,,,,,,,,,,,,,,,,,,,,,,,,,,,,,,,,,,,,,,,,,,,,,,
,,,,101436,001,2023-07-28_15h31.51.872,fluency,2022.2.4,Win32,59.82650314,,,space,1.7789,,,,,,,,,,,,,,,,,,,,,,,,,,,,,,,,,,,,,,,,,,,,,,,,,,,,,,,,,,,,,,,,,,,,,,,,,,,,,,,,,,,,,,,,,,,,,,,,,,,,,,,,,,,,,,,,,,,,,,,,,,,,,,,,,,,,,,,,,,,,,,,,,,,
,,,,101436,001,2023-07-28_15h31.51.872,fluency,2022.2.4,Win32,59.82650314,,,,,0.377777778,-0.368518519,1,0,0,16.033,iAgree,,,,,,,,,,,,,,,,,,,,,,,,,,,,,,,,,,,,,,,,,,,,,,,,,,,,,,,,,,,,,,,,,,,,,,,,,,,,,,,,,,,,,,,,,,,,,,,,,,,,,,,,,,,,,,,,,,,,,,,,,,,,,,,,,,,,,,,,,,,,
,,,,101436,001,2023-07-28_15h31.51.872,fluency,2022.2.4,Win32,59.82650314,,,,,,,,,,,,space,11.1605,,,,,,,,,,,,,,,,,,,,,,,,,,,,,,,,,,,,,,,,,,,,,,,,,,,,,,,,,,,,,,,,,,,,,,,,,,,,,,,,,,,,,,,,,,,,,,,,,,,,,,,,,,,,,,,,,,,,,,,,,,,,,,,,,,,,,,,,,,
,,,,101436,001,2023-07-28_15h31.51.872,fluency,2022.2.4,Win32,59.82650314,,,,,,,,,,,,,,space,7.2036,space,7.7744,0,0,0,25,1,3,3,img/B03_03.jpg,CONTROL,Press K as soon as you see a face, ,KJ,,,,,,,,,,,,,,,,,,,,,,,,,,,,,,,,,,,,,,,,,,,,,,,,,,,,,,,,,,,,,,,,,,,,,,,,,,,,,,,,,,,,,,,,,,,,,,,,,,,,,,,,,,,,,,,,,,,,,,,,,,
,,,,101436,001,2023-07-28_15h31.51.872,fluency,2022.2.4,Win32,59.82650314,,,,,,,,,,,,,,,,,,,,,,,,,,,,,,c,5.138,0,0,0,0,1,,,,,,,,,,,,,,,,,,,,,,,,,,,,,,,,,,,,,,,,,,,,,,,,,,,,,,,,,,,,,,,,,,,,,,,,,,,,,,,,,,,,,,,,,,,,,,,,,,,,,,,,,,,,,,,,,,,
,,,,101436,001,2023-07-28_15h31.51.872,fluency,2022.2.4,Win32,59.82650314,,,,,,,,,,,,,,,,,,,,,,,,,,,,,,,,,,,,,a,4.1548,0,0,0,0,1,,,,,,,,,,,,,,,,,,,,,,,,,,,,,,,,,,,,,,,,,,,,,,,,,,,,,,,,,,,,,,,,,,,,,,,,,,,,,,,,,,,,,,,,,,,,,,,,,,,,,,,,,,,,
,,,,101436,001,2023-07-28_15h31.51.872,fluency,2022.2.4,Win32,59.82650314,,,,,,,,,,,,,,,,,,,,,,,,,,,,,,,,,,,,,,,,,,,,c,6.0779,0,0,0,0,1,,,,,,,,,,,,,,,,,,,,,,,,,,,,,,,,,,,,,,,,,,,,,,,,,,,,,,,,,,,,,,,,,,,,,,,,,,,,,,,,,,,,,,,,,,,,,,,,,,,,,
,,,,101436,001,2023-07-28_15h31.51.872,fluency,2022.2.4,Win32,59.82650314,,,,,,,,,,,,,,,,,,,,,,,,,,,,,,,,,,,,,,,,,,,,,,,,,,,space,0.6997,k,0.3135,0,0,0,0,0,1,,,,,,,,,,,,,,,,,,,,,,,,,,,,,,,,,,,,,,,,,,,,,,,,,,,,,,,,,,,,,,,,,,,,,,,,,,,,,,,,,,,,,,,,,,,
,,,,101436,001,2023-07-28_15h31.51.872,fluency,2022.2.4,Win32,59.82650314,,,,,,,,,,,,,,,,,,,,,,,,,,,,,,,,,,,,,,,,,,,,,,,,,,,,,,,,,,,,,6,1.2734,0,0,0,0,1,,,,,,,,,,,,,,,,,,,,,,,,,,,,,,,,,,,,,,,,,,,,,,,,,,,,,,,,,,,,,,,,,,,,,,,,,,,,,,,,,,,,
,,,,101436,001,2023-07-28_15h31.51.872,fluency,2022.2.4,Win32,59.82650314,,,,,,,,,,,,,,,,,,,,,,,,,,,,,,,,,,,,,,,,,,,,,,,,,,,,,,,,,,,,,,,,,,,,space,3.4621,0,0,0,0,1,,,,,,,,,,,,,,,,,,,,,,,,,,,,,,,,,,,,,,,,,,,,,,,,,,,,,,,,,,,,,,,,,,,,,,,,,,,,,
,,,,101436,001,2023-07-28_15h31.51.872,fluency,2022.2.4,Win32,59.82650314,,,,,,,,,,,,,,,,,,,,,,,,,,,,,,,,,,,,,,,,,,,,,,,,,,,,,,,,,,,,,,,,,,,,,,,,,,,"[""k""]",[0.5415000000000134],"[""k"",""5""]","[0.5415000000000134,2.5385999999940623]",0,0,0,0,0,1,,,,,,,,,,,,,,,,,,,,,,,,,,,,,,,,,,,,,,,,,,,,,,,,,,,,,,,,,,,,,,,,,,,
,,,,101436,001,2023-07-28_15h31.51.872,fluency,2022.2.4,Win32,59.82650314,,,,,,,,,,,,,,,,,,,,,,,0,10,img/B10_00.jpg,CONTROL,Press K as soon as you see a face, ,KJ,,,,,,,,,,,,,,,,,,,,,,,,,,,,,,,,5,0.5449,,,,,,,,,,,,,,,,,,,,,,,space,3.6066,0,0,0,99,1,,,,,,,,,,,,,,,,,,,,,,,,,,,,,,,,,,,,,,,,,,,,,,,,,,,,,,,,,,,,
,,,,101436,001,2023-07-28_15h31.51.872,fluency,2022.2.4,Win32,59.82650314,,,,,,,,,,,,,,,,,,,,,,,,,,,,,,,,,,,,,,,,,,,,,,,,,,,,,,,,,,,,,,,,,,,,,,,,,,,"[""k""]",[0.2628000000119357],"[""k""]",[0.2626999999880866],0,0,0,0,0,1,,,,,,,,,,,,,,,,,,,,,,,,,,,,,,,,,,,,,,,,,,,,,,,,,,,,,,,,,,,,,,,,,,,
,,,,101436,001,2023-07-28_15h31.51.872,fluency,2022.2.4,Win32,59.82650314,,,,,,,,,,,,,,,,,,,,,,,1,5,img/B05_01.jpg,CONTROL,Press K as soon as you see a face, ,KJ,,,,,,,,,,,,,,,,,,,,,,,,,,,,,,,,3,0.4982,,,,,,,,,,,,,,,,,,,,,,,space,2.4602,0,1,1,45,1,,,,,,,,,,,,,,,,,,,,,,,,,,,,,,,,,,,,,,,,,,,,,,,,,,,,,,,,,,,,
,,,,101436,001,2023-07-28_15h31.51.872,fluency,2022.2.4,Win32,59.82650314,,,,,,,,,,,,,,,,,,,,,,,,,,,,,,,,,,,,,,,,,,,,,,,,,,,,,,,,,,,,,,,,,,,,,,,,,,,"[""k""]",[0.26350000000002183],"[""k""]",[0.26340000000595865],0,0,0,0,0,1,,,,,,,,,,,,,,,,,,,,,,,,,,,,,,,,,,,,,,,,,,,,,,,,,,,,,,,,,,,,,,,,,,,
,,,,101436,001,2023-07-28_15h31.51.872,fluency,2022.2.4,Win32,59.82650314,,,,,,,,,,,,,,,,,,,,,,,1,6,img/B06_01.jpg,CONTROL,Press K as soon as you see a face, ,KJ,,,,,,,,,,,,,,,,,,,,,,,,,,,,,,,,3,0.46,,,,,,,,,,,,,,,,,,,,,,,space,0.5103,0,2,2,56,1,,,,,,,,,,,,,,,,,,,,,,,,,,,,,,,,,,,,,,,,,,,,,,,,,,,,,,,,,,,,
,,,,101436,001,2023-07-28_15h31.51.872,fluency,2022.2.4,Win32,59.82650314,,,,,,,,,,,,,,,,,,,,,,,,,,,,,,,,,,,,,,,,,,,,,,,,,,,,,,,,,,,,,,,,,,,,,,,,,,,"[""k""]",[0.5528000000118993],"[""k""]",[0.5528000000118993],0,0,0,0,0,1,,,,,,,,,,,,,,,,,,,,,,,,,,,,,,,,,,,,,,,,,,,,,,,,,,,,,,,,,,,,,,,,,,,
,,,,101436,001,2023-07-28_15h31.51.872,fluency,2022.2.4,Win32,59.82650314,,,,,,,,,,,,,,,,,,,,,,,5,9,img/B09_05.jpg,CONTROL,Press K as soon as you see a face, ,KJ,,,,,,,,,,,,,,,,,,,,,,,,,,,,,,,,6,0.6842,,,,,,,,,,,,,,,,,,,,,,,space,0.6011,0,3,3,93,1,,,,,,,,,,,,,,,,,,,,,,,,,,,,,,,,,,,,,,,,,,,,,,,,,,,,,,,,,,,,
,,,,101436,001,2023-07-28_15h31.51.872,fluency,2022.2.4,Win32,59.82650314,,,,,,,,,,,,,,,,,,,,,,,,,,,,,,,,,,,,,,,,,,,,,,,,,,,,,,,,,,,,,,,,,,,,,,,,,,,"[""k""]",[0.3294999999999959],"[""k""]",[0.3294999999999959],0,0,0,0,0,1,,,,,,,,,,,,,,,,,,,,,,,,,,,,,,,,,,,,,,,,,,,,,,,,,,,,,,,,,,,,,,,,,,,
,,,,101436,001,2023-07-28_15h31.51.872,fluency,2022.2.4,Win32,59.82650314,,,,,,,,,,,,,,,,,,,,,,,0,5,img/B05_00.jpg,CONTROL,Press K as soon as you see a face, ,KJ,,,,,,,,,,,,,,,,,,,,,,,,,,,,,,,,3,0.6456,,,,,,,,,,,,,,,,,,,,,,,space,0.5549,0,4,4,44,1,,,,,,,,,,,,,,,,,,,,,,,,,,,,,,,,,,,,,,,,,,,,,,,,,,,,,,,,,,,,
,,,,101436,001,2023-07-28_15h31.51.872,fluency,2022.2.4,Win32,59.82650314,,,,,,,,,,,,,,,,,,,,,,,,,,,,,,,,,,,,,,,,,,,,,,,,,,,,,,,,,,,,,,,,,,,,,,,,,,,"[""k""]",[0.40680000001191274],"[""k""]",[0.40680000001191274],0,0,0,0,0,1,,,,,,,,,,,,,,,,,,,,,,,,,,,,,,,,,,,,,,,,,,,,,,,,,,,,,,,,,,,,,,,,,,,
,,,,101436,001,2023-07-28_15h31.51.872,fluency,2022.2.4,Win32,59.82650314,,,,,,,,,,,,,,,,,,,,,,,1,7,img/B07_01.jpg,CONTROL,Press K as soon as you see a face, ,KJ,,,,,,,,,,,,,,,,,,,,,,,,,,,,,,,,4,0.6551,,,,,,,,,,,,,,,,,,,,,,,space,0.5041,0,5,5,67,1,,,,,,,,,,,,,,,,,,,,,,,,,,,,,,,,,,,,,,,,,,,,,,,,,,,,,,,,,,,,
,,,,101436,001,2023-07-28_15h31.51.872,fluency,2022.2.4,Win32,59.82650314,,,,,,,,,,,,,,,,,,,,,,,,,,,,,,,,,,,,,,,,,,,,,,,,,,,,,,,,,,,,,,,,,,,,,,,,,,,"[""k""]",[0.6488000000119314],"[""k""]",[0.6488000000119314],0,0,0,0,0,1,,,,,,,,,,,,,,,,,,,,,,,,,,,,,,,,,,,,,,,,,,,,,,,,,,,,,,,,,,,,,,,,,,,
,,,,101436,001,2023-07-28_15h31.51.872,fluency,2022.2.4,Win32,59.82650314,,,,,,,,,,,,,,,,,,,,,,,7,10,img/B10_07.jpg,CONTROL,Press K as soon as you see a face, ,KJ,,,,,,,,,,,,,,,,,,,,,,,,,,,,,,,,4,0.4976,,,,,,,,,,,,,,,,,,,,,,,space,0.4686,0,6,6,106,1,,,,,,,,,,,,,,,,,,,,,,,,,,,,,,,,,,,,,,,,,,,,,,,,,,,,,,,,,,,,
,,,,101436,001,2023-07-28_15h31.51.872,fluency,2022.2.4,Win32,59.82650314,,,,,,,,,,,,,,,,,,,,,,,,,,,,,,,,,,,,,,,,,,,,,,,,,,,,,,,,,,,,,,,,,,,,,,,,,,,"[""k""]",[0.4599000000059732],"[""k""]",[0.4599000000059732],0,0,0,0,0,1,,,,,,,,,,,,,,,,,,,,,,,,,,,,,,,,,,,,,,,,,,,,,,,,,,,,,,,,,,,,,,,,,,,
,,,,101436,001,2023-07-28_15h31.51.872,fluency,2022.2.4,Win32,59.82650314,,,,,,,,,,,,,,,,,,,,,,,4,3,img/B03_04.jpg,CONTROL,Press K as soon as you see a face, ,KJ,,,,,,,,,,,,,,,,,,,,,,,,,,,,,,,,3,0.3463,,,,,,,,,,,,,,,,,,,,,,,space,0.3858,0,7,7,26,1,,,,,,,,,,,,,,,,,,,,,,,,,,,,,,,,,,,,,,,,,,,,,,,,,,,,,,,,,,,,
,,,,101436,001,2023-07-28_15h31.51.872,fluency,2022.2.4,Win32,59.82650314,,,,,,,,,,,,,,,,,,,,,,,,,,,,,,,,,,,,,,,,,,,,,,,,,,,,,,,,,,,,,,,,,,,,,,,,,,,"[""k""]",[0.2910999999940316],"[""k""]",[0.2910999999940316],0,0,0,0,0,1,,,,,,,,,,,,,,,,,,,,,,,,,,,,,,,,,,,,,,,,,,,,,,,,,,,,,,,,,,,,,,,,,,,
,,,,101436,001,2023-07-28_15h31.51.872,fluency,2022.2.4,Win32,59.82650314,,,,,,,,,,,,,,,,,,,,,,,10,7,img/B07_10.jpg,CONTROL,Press K as soon as you see a face, ,KJ,,,,,,,,,,,,,,,,,,,,,,,,,,,,,,,,6,0.499,,,,,,,,,,,,,,,,,,,,,,,space,0.3768,0,8,8,76,1,,,,,,,,,,,,,,,,,,,,,,,,,,,,,,,,,,,,,,,,,,,,,,,,,,,,,,,,,,,,
,,,,101436,001,2023-07-28_15h31.51.872,fluency,2022.2.4,Win32,59.82650314,,,,,,,,,,,,,,,,,,,,,,,,,,,,,,,,,,,,,,,,,,,,,,,,,,,,,,,,,,,,,,,,,,,,,,,,,,,"[""k""]",[0.315299999982102],"[""k""]",[0.315299999982102],0,0,0,0,0,1,,,,,,,,,,,,,,,,,,,,,,,,,,,,,,,,,,,,,,,,,,,,,,,,,,,,,,,,,,,,,,,,,,,
,,,,101436,001,2023-07-28_15h31.51.872,fluency,2022.2.4,Win32,59.82650314,,,,,,,,,,,,,,,,,,,,,,,3,4,img/B04_03.jpg,CONTROL,Press K as soon as you see a face, ,KJ,,,,,,,,,,,,,,,,,,,,,,,,,,,,,,,,4,0.4022,,,,,,,,,,,,,,,,,,,,,,,space,0.3379,0,9,9,36,1,,,,,,,,,,,,,,,,,,,,,,,,,,,,,,,,,,,,,,,,,,,,,,,,,,,,,,,,,,,,
,,,,101436,001,2023-07-28_15h31.51.872,fluency,2022.2.4,Win32,59.82650314,,,,,,,,,,,,,,,,,,,,,,,,,,,,,,,,,,,,,,,,,,,,,,,,,,,,,,,,,,,,,,,,,,,,,,,,,,,"[""k""]",[0.4358999999761579],"[""k""]",[0.4358999999761579],0,0,0,0,0,1,,,,,,,,,,,,,,,,,,,,,,,,,,,,,,,,,,,,,,,,,,,,,,,,,,,,,,,,,,,,,,,,,,,
,,,,101436,001,2023-07-28_15h31.51.872,fluency,2022.2.4,Win32,59.82650314,,,,,,,,,,,,,,,,,,,,,,,0,6,img/B06_00.jpg,CONTROL,Press K as soon as you see a face, ,KJ,,,,,,,,,,,,,,,,,,,,,,,,,,,,,,,,3,0.4927,,,,,,,,,,,,,,,,,,,,,,,space,0.2938,0,10,10,55,1,,,,,,,,,,,,,,,,,,,,,,,,,,,,,,,,,,,,,,,,,,,,,,,,,,,,,,,,,,,,
,,,,101436,001,2023-07-28_15h31.51.872,fluency,2022.2.4,Win32,59.82650314,,,,,,,,,,,,,,,,,,,,,,,,,,,,,,,,,,,,,,,,,,,,,,,,,,,,,,,,,,,,,,,,,,,,,,,,,,,"[""k""]",[0.26079999998216863],"[""k""]",[0.26079999998216863],0,0,0,0,0,1,,,,,,,,,,,,,,,,,,,,,,,,,,,,,,,,,,,,,,,,,,,,,,,,,,,,,,,,,,,,,,,,,,,
,,,,101436,001,2023-07-28_15h31.51.872,fluency,2022.2.4,Win32,59.82650314,,,,,,,,,,,,,,,,,,,,,,,8,2,img/B02_08.jpg,CONTROL,Press K as soon as you see a face, ,KJ,,,,,,,,,,,,,,,,,,,,,,,,,,,,,,,,6,0.4508,,,,,,,,,,,,,,,,,,,,,,,space,0.3522,0,11,11,19,1,,,,,,,,,,,,,,,,,,,,,,,,,,,,,,,,,,,,,,,,,,,,,,,,,,,,,,,,,,,,
,,,,101436,001,2023-07-28_15h31.51.872,fluency,2022.2.4,Win32,59.82650314,,,,,,,,,,,,,,,,,,,,,,,,,,,,,,,,,,,,,,,,,,,,,,,,,,,,,,,,,,,,,,,,,,,,,,,,,,,"[""k""]",[0.4341000000238182],"[""k""]",[0.4342000000178814],0,0,0,0,0,1,,,,,,,,,,,,,,,,,,,,,,,,,,,,,,,,,,,,,,,,,,,,,,,,,,,,,,,,,,,,,,,,,,,
,,,,101436,001,2023-07-28_15h31.51.872,fluency,2022.2.4,Win32,59.82650314,,,,,,,,,,,,,,,,,,,,,,,6,8,img/B08_06.jpg,CONTROL,Press K as soon as you see a face, ,KJ,,,,,,,,,,,,,,,,,,,,,,,,,,,,,,,,4,0.3053,,,,,,,,,,,,,,,,,,,,,,,space,0.3034,0,12,12,83,1,,,,,,,,,,,,,,,,,,,,,,,,,,,,,,,,,,,,,,,,,,,,,,,,,,,,,,,,,,,,
,,,,101436,001,2023-07-28_15h31.51.872,fluency,2022.2.4,Win32,59.82650314,,,,,,,,,,,,,,,,,,,,,,,,,,,,,,,,,,,,,,,,,,,,,,,,,,,,,,,,,,,,,,,,,,,,,,,,,,,"[""k""]",[0.3498999999761736],"[""k""]",[0.35000000000002274],0,0,0,0,0,1,,,,,,,,,,,,,,,,,,,,,,,,,,,,,,,,,,,,,,,,,,,,,,,,,,,,,,,,,,,,,,,,,,,
,,,,101436,001,2023-07-28_15h31.51.872,fluency,2022.2.4,Win32,59.82650314,,,,,,,,,,,,,,,,,,,,,,,7,2,img/B02_07.jpg,CONTROL,Press K as soon as you see a face, ,KJ,,,,,,,,,,,,,,,,,,,,,,,,,,,,,,,,6,0.3418,,,,,,,,,,,,,,,,,,,,,,,space,0.2934,0,13,13,18,1,,,,,,,,,,,,,,,,,,,,,,,,,,,,,,,,,,,,,,,,,,,,,,,,,,,,,,,,,,,,
,,,,101436,001,2023-07-28_15h31.51.872,fluency,2022.2.4,Win32,59.82650314,,,,,,,,,,,,,,,,,,,,,,,,,,,,,,,,,,,,,,,,,,,,,,,,,,,,,,,,,,,,,,,,,,,,,,,,,,,"[""k""]",[0.39009999999404954],"[""k""]",[0.39009999999404954],0,0,0,0,0,1,,,,,,,,,,,,,,,,,,,,,,,,,,,,,,,,,,,,,,,,,,,,,,,,,,,,,,,,,,,,,,,,,,,
,,,,101436,001,2023-07-28_15h31.51.872,fluency,2022.2.4,Win32,59.82650314,,,,,,,,,,,,,,,,,,,,,,,5,6,img/B06_05.jpg,CONTROL,Press K as soon as you see a face, ,KJ,,,,,,,,,,,,,,,,,,,,,,,,,,,,,,,,5,0.3081,,,,,,,,,,,,,,,,,,,,,,,space,0.2547,0,14,14,60,1,,,,,,,,,,,,,,,,,,,,,,,,,,,,,,,,,,,,,,,,,,,,,,,,,,,,,,,,,,,,
,,,,101436,001,2023-07-28_15h31.51.872,fluency,2022.2.4,Win32,59.82650314,,,,,,,,,,,,,,,,,,,,,,,,,,,,,,,,,,,,,,,,,,,,,,,,,,,,,,,,,,,,,,,,,,,,,,,,,,,"[""k""]",[0.2903000000118823],"[""k""]",[0.29020000001787594],0,0,0,0,0,1,,,,,,,,,,,,,,,,,,,,,,,,,,,,,,,,,,,,,,,,,,,,,,,,,,,,,,,,,,,,,,,,,,,
,,,,101436,001,2023-07-28_15h31.51.872,fluency,2022.2.4,Win32,59.82650314,,,,,,,,,,,,,,,,,,,,,,,2,2,img/B02_02.jpg,CONTROL,Press K as soon as you see a face, ,KJ,,,,,,,,,,,,,,,,,,,,,,,,,,,,,,,,2,0.3249,,,,,,,,,,,,,,,,,,,,,,,space,0.8742,0,15,15,13,1,,,,,,,,,,,,,,,,,,,,,,,,,,,,,,,,,,,,,,,,,,,,,,,,,,,,,,,,,,,,
,,,,101436,001,2023-07-28_15h31.51.872,fluency,2022.2.4,Win32,59.82650314,,,,,,,,,,,,,,,,,,,,,,,,,,,,,,,,,,,,,,,,,,,,,,,,,,,,,,,,,,,,,,,,,,,,,,,,,,,"[""k""]",[0.26719999998806543],"[""k""]",[0.26719999998806543],0,0,0,0,0,1,,,,,,,,,,,,,,,,,,,,,,,,,,,,,,,,,,,,,,,,,,,,,,,,,,,,,,,,,,,,,,,,,,,
,,,,101436,001,2023-07-28_15h31.51.872,fluency,2022.2.4,Win32,59.82650314,,,,,,,,,,,,,,,,,,,,,,,0,9,img/B09_00.jpg,CONTROL,Press K as soon as you see a face, ,KJ,,,,,,,,,,,,,,,,,,,,,,,,,,,,,,,,3,0.3265,,,,,,,,,,,,,,,,,,,,,,,space,0.2855,0,16,16,88,1,,,,,,,,,,,,,,,,,,,,,,,,,,,,,,,,,,,,,,,,,,,,,,,,,,,,,,,,,,,,
,,,,101436,001,2023-07-28_15h31.51.872,fluency,2022.2.4,Win32,59.82650314,,,,,,,,,,,,,,,,,,,,,,,,,,,,,,,,,,,,,,,,,,,,,,,,,,,,,,,,,,,,,,,,,,,,,,,,,,,"[""k""]",[0.42739999997615996],"[""k""]",[0.4275000000000091],0,0,0,0,0,1,,,,,,,,,,,,,,,,,,,,,,,,,,,,,,,,,,,,,,,,,,,,,,,,,,,,,,,,,,,,,,,,,,,
,,,,101436,001,2023-07-28_15h31.51.872,fluency,2022.2.4,Win32,59.82650314,,,,,,,,,,,,,,,,,,,,,,,3,3,img/B03_03.jpg,CONTROL,Press K as soon as you see a face, ,KJ,,,,,,,,,,,,,,,,,,,,,,,,,,,,,,,,3,0.3796,,,,,,,,,,,,,,,,,,,,,,,space,0.341,0,17,17,25,1,,,,,,,,,,,,,,,,,,,,,,,,,,,,,,,,,,,,,,,,,,,,,,,,,,,,,,,,,,,,
,,,,101436,001,2023-07-28_15h31.51.872,fluency,2022.2.4,Win32,59.82650314,,,,,,,,,,,,,,,,,,,,,,,,,,,,,,,,,,,,,,,,,,,,,,,,,,,,,,,,,,,,,,,,,,,,,,,,,,,"[""k""]",[0.26409999999401634],"[""k""]",[0.26409999999401634],0,0,0,0,0,1,,,,,,,,,,,,,,,,,,,,,,,,,,,,,,,,,,,,,,,,,,,,,,,,,,,,,,,,,,,,,,,,,,,
,,,,101436,001,2023-07-28_15h31.51.872,fluency,2022.2.4,Win32,59.82650314,,,,,,,,,,,,,,,,,,,,,,,6,1,img/B01_06.jpg,CONTROL,Press K as soon as you see a face, ,KJ,,,,,,,,,,,,,,,,,,,,,,,,,,,,,,,,3,0.3139,,,,,,,,,,,,,,,,,,,,,,,space,0.2256,0,18,18,6,1,,,,,,,,,,,,,,,,,,,,,,,,,,,,,,,,,,,,,,,,,,,,,,,,,,,,,,,,,,,,
,,,,101436,001,2023-07-28_15h31.51.872,fluency,2022.2.4,Win32,59.82650314,,,,,,,,,,,,,,,,,,,,,,,,,,,,,,,,,,,,,,,,,,,,,,,,,,,,,,,,,,,,,,,,,,,,,,,,,,,"[""k""]",[0.3585000000000491],"[""k""]",[0.35849999999999227],0,0,0,0,0,1,,,,,,,,,,,,,,,,,,,,,,,,,,,,,,,,,,,,,,,,,,,,,,,,,,,,,,,,,,,,,,,,,,,
,,,,101436,001,2023-07-28_15h31.51.872,fluency,2022.2.4,Win32,59.82650314,,,,,,,,,,,,,,,,,,,,,,,8,1,img/B01_08.jpg,CONTROL,Press K as soon as you see a face, ,KJ,,,,,,,,,,,,,,,,,,,,,,,,,,,,,,,,3,0.3064,,,,,,,,,,,,,,,,,,,,,,,space,0.1535,0,19,19,8,1,,,,,,,,,,,,,,,,,,,,,,,,,,,,,,,,,,,,,,,,,,,,,,,,,,,,,,,,,,,,
,,,,101436,001,2023-07-28_15h31.51.872,fluency,2022.2.4,Win32,59.82650314,,,,,,,,,,,,,,,,,,,,,,,,,,,,,,,,,,,,,,,,,,,,,,,,,,,,,,,,,,,,,,,,,,,,,,,,,,,"[""k""]",[0.34269999998804224],"[""k""]",[0.34269999998804224],0,0,0,0,0,1,,,,,,,,,,,,,,,,,,,,,,,,,,,,,,,,,,,,,,,,,,,,,,,,,,,,,,,,,,,,,,,,,,,
,,,,101436,001,2023-07-28_15h31.51.872,fluency,2022.2.4,Win32,59.82650314,,,,,,,,,,,,,,,,,,,,,,,6,2,img/B02_06.jpg,CONTROL,Press K as soon as you see a face, ,KJ,,,,,,,,,,,,,,,,,,,,,,,,,,,,,,,,6,0.3276,,,,,,,,,,,,,,,,,,,,,,,space,0.1183,0,20,20,17,1,,,,,,,,,,,,,,,,,,,,,,,,,,,,,,,,,,,,,,,,,,,,,,,,,,,,,,,,,,,,
,,,,101436,001,2023-07-28_15h31.51.872,fluency,2022.2.4,Win32,59.82650314,,,,,,,,,,,,,,,,,,,,,,,,,,,,,,,,,,,,,,,,,,,,,,,,,,,,,,,,,,,,,,,,,,,,,,,,,,,"[""k""]",[0.3468000000119673],"[""k""]",[0.34670000001790413],0,0,0,0,0,1,,,,,,,,,,,,,,,,,,,,,,,,,,,,,,,,,,,,,,,,,,,,,,,,,,,,,,,,,,,,,,,,,,,
,,,,101436,001,2023-07-28_15h31.51.872,fluency,2022.2.4,Win32,59.82650314,,,,,,,,,,,,,,,,,,,,,,,6,3,img/B03_06.jpg,CONTROL,Press K as soon as you see a face, ,KJ,,,,,,,,,,,,,,,,,,,,,,,,,,,,,,,,5,0.3263,,,,,,,,,,,,,,,,,,,,,,,space,0.168,0,21,21,28,1,,,,,,,,,,,,,,,,,,,,,,,,,,,,,,,,,,,,,,,,,,,,,,,,,,,,,,,,,,,,
,,,,101436,001,2023-07-28_15h31.51.872,fluency,2022.2.4,Win32,59.82650314,,,,,,,,,,,,,,,,,,,,,,,,,,,,,,,,,,,,,,,,,,,,,,,,,,,,,,,,,,,,,,,,,,,,,,,,,,,"[""k""]",[0.3161999999880436],"[""k""]",[0.31559999999399224],0,0,0,0,0,1,,,,,,,,,,,,,,,,,,,,,,,,,,,,,,,,,,,,,,,,,,,,,,,,,,,,,,,,,,,,,,,,,,,
,,,,101436,001,2023-07-28_15h31.51.872,fluency,2022.2.4,Win32,59.82650314,,,,,,,,,,,,,,,,,,,,,,,3,1,img/B01_03.jpg,CONTROL,Press K as soon as you see a face, ,KJ,,,,,,,,,,,,,,,,,,,,,,,,,,,,,,,,2,0.4873,,,,,,,,,,,,,,,,,,,,,,,space,0.2006,0,22,22,3,1,,,,,,,,,,,,,,,,,,,,,,,,,,,,,,,,,,,,,,,,,,,,,,,,,,,,,,,,,,,,
,,,,101436,001,2023-07-28_15h31.51.872,fluency,2022.2.4,Win32,59.82650314,,,,,,,,,,,,,,,,,,,,,,,,,,,,,,,,,,,,,,,,,,,,,,,,,,,,,,,,,,,,,,,,,,,,,,,,,,,"[""k""]",[0.3455999999940218],"[""k""]",[0.3455999999940218],0,0,0,0,0,1,,,,,,,,,,,,,,,,,,,,,,,,,,,,,,,,,,,,,,,,,,,,,,,,,,,,,,,,,,,,,,,,,,,
,,,,101436,001,2023-07-28_15h31.51.872,fluency,2022.2.4,Win32,59.82650314,,,,,,,,,,,,,,,,,,,,,,,9,2,img/B02_09.jpg,CONTROL,Press K as soon as you see a face, ,KJ,,,,,,,,,,,,,,,,,,,,,,,,,,,,,,,,6,0.3503,,,,,,,,,,,,,,,,,,,,,,,space,0.1574,0,23,23,20,1,,,,,,,,,,,,,,,,,,,,,,,,,,,,,,,,,,,,,,,,,,,,,,,,,,,,,,,,,,,,
,,,,101436,001,2023-07-28_15h31.51.872,fluency,2022.2.4,Win32,59.82650314,,,,,,,,,,,,,,,,,,,,,,,,,,,,,,,,,,,,,,,,,,,,,,,,,,,,,,,,,,,,,,,,,,,,,,,,,,,"[""k""]",[0.3593000000118991],"[""k""]",[0.3593000000118991],0,0,0,0,0,1,,,,,,,,,,,,,,,,,,,,,,,,,,,,,,,,,,,,,,,,,,,,,,,,,,,,,,,,,,,,,,,,,,,
,,,,101436,001,2023-07-28_15h31.51.872,fluency,2022.2.4,Win32,59.82650314,,,,,,,,,,,,,,,,,,,,,,,4,10,img/B10_04.jpg,CONTROL,Press K as soon as you see a face, ,KJ,,,,,,,,,,,,,,,,,,,,,,,,,,,,,,,,5,0.5595,,,,,,,,,,,,,,,,,,,,,,,space,0.1402,0,24,24,103,1,,,,,,,,,,,,,,,,,,,,,,,,,,,,,,,,,,,,,,,,,,,,,,,,,,,,,,,,,,,,
,,,,101436,001,2023-07-28_15h31.51.872,fluency,2022.2.4,Win32,59.82650314,,,,,,,,,,,,,,,,,,,,,,,,,,,,,,,,,,,,,,,,,,,,,,,,,,,,,,,,,,,,,,,,,,,,,,,,,,,"[""k""]",[0.2769999999999868],"[""k""]",[0.2769999999999868],0,0,0,0,0,1,,,,,,,,,,,,,,,,,,,,,,,,,,,,,,,,,,,,,,,,,,,,,,,,,,,,,,,,,,,,,,,,,,,
,,,,101436,001,2023-07-28_15h31.51.872,fluency,2022.2.4,Win32,59.82650314,,,,,,,,,,,,,,,,,,,,,,,5,1,img/B01_05.jpg,CONTROL,Press K as soon as you see a face, ,KJ,,,,,,,,,,,,,,,,,,,,,,,,,,,,,,,,4,0.4798,,,,,,,,,,,,,,,,,,,,,,,space,0.2182,0,25,25,5,1,,,,,,,,,,,,,,,,,,,,,,,,,,,,,,,,,,,,,,,,,,,,,,,,,,,,,,,,,,,,
,,,,101436,001,2023-07-28_15h31.51.872,fluency,2022.2.4,Win32,59.82650314,,,,,,,,,,,,,,,,,,,,,,,,,,,,,,,,,,,,,,,,,,,,,,,,,,,,,,,,,,,,,,,,,,,,,,,,,,,"[""k""]",[0.35089999997614996],"[""k""]",[0.35089999997614996],0,0,0,0,0,1,,,,,,,,,,,,,,,,,,,,,,,,,,,,,,,,,,,,,,,,,,,,,,,,,,,,,,,,,,,,,,,,,,,
,,,,101436,001,2023-07-28_15h31.51.872,fluency,2022.2.4,Win32,59.82650314,,,,,,,,,,,,,,,,,,,,,,,7,6,img/B06_07.jpg,CONTROL,Press K as soon as you see a face, ,KJ,,,,,,,,,,,,,,,,,,,,,,,,,,,,,,,,7,0.6961,,,,,,,,,,,,,,,,,,,,,,,space,0.3863,0,26,26,62,1,,,,,,,,,,,,,,,,,,,,,,,,,,,,,,,,,,,,,,,,,,,,,,,,,,,,,,,,,,,,
,,,,101436,001,2023-07-28_15h31.51.872,fluency,2022.2.4,Win32,59.82650314,,,,,,,,,,,,,,,,,,,,,,,,,,,,,,,,,,,,,,,,,,,,,,,,,,,,,,,,,,,,,,,,,,,,,,,,,,,"[""k""]",[0.26600000000001955],"[""k""]",[0.2659000000060132],0,0,0,0,0,1,,,,,,,,,,,,,,,,,,,,,,,,,,,,,,,,,,,,,,,,,,,,,,,,,,,,,,,,,,,,,,,,,,,
,,,,101436,001,2023-07-28_15h31.51.872,fluency,2022.2.4,Win32,59.82650314,,,,,,,,,,,,,,,,,,,,,,,8,9,img/B09_08.jpg,CONTROL,Press K as soon as you see a face, ,KJ,,,,,,,,,,,,,,,,,,,,,,,,,,,,,,,,7,0.3394,,,,,,,,,,,,,,,,,,,,,,,space,0.5691,0,27,27,96,1,,,,,,,,,,,,,,,,,,,,,,,,,,,,,,,,,,,,,,,,,,,,,,,,,,,,,,,,,,,,
,,,,101436,001,2023-07-28_15h31.51.872,fluency,2022.2.4,Win32,59.82650314,,,,,,,,,,,,,,,,,,,,,,,,,,,,,,,,,,,,,,,,,,,,,,,,,,,,,,,,,,,,,,,,,,,,,,,,,,,"[""k""]",[0.30880000001189956],"[""k""]",[0.30880000001189956],0,0,0,0,0,1,,,,,,,,,,,,,,,,,,,,,,,,,,,,,,,,,,,,,,,,,,,,,,,,,,,,,,,,,,,,,,,,,,,
,,,,101436,001,2023-07-28_15h31.51.872,fluency,2022.2.4,Win32,59.82650314,,,,,,,,,,,,,,,,,,,,,,,7,5,img/B05_07.jpg,CONTROL,Press K as soon as you see a face, ,KJ,,,,,,,,,,,,,,,,,,,,,,,,,,,,,,,,5,0.3146,,,,,,,,,,,,,,,,,,,,,,,space,0.3176,0,28,28,51,1,,,,,,,,,,,,,,,,,,,,,,,,,,,,,,,,,,,,,,,,,,,,,,,,,,,,,,,,,,,,
,,,,101436,001,2023-07-28_15h31.51.872,fluency,2022.2.4,Win32,59.82650314,,,,,,,,,,,,,,,,,,,,,,,,,,,,,,,,,,,,,,,,,,,,,,,,,,,,,,,,,,,,,,,,,,,,,,,,,,,"[""k""]",[0.46180000001191956],"[""k""]",[0.46180000001191956],0,0,0,0,0,1,,,,,,,,,,,,,,,,,,,,,,,,,,,,,,,,,,,,,,,,,,,,,,,,,,,,,,,,,,,,,,,,,,,
,,,,101436,001,2023-07-28_15h31.51.872,fluency,2022.2.4,Win32,59.82650314,,,,,,,,,,,,,,,,,,,,,,,7,7,img/B07_07.jpg,CONTROL,Press K as soon as you see a face, ,KJ,,,,,,,,,,,,,,,,,,,,,,,,,,,,,,,,6,0.3411,,,,,,,,,,,,,,,,,,,,,,,space,0.2539,0,29,29,73,1,,,,,,,,,,,,,,,,,,,,,,,,,,,,,,,,,,,,,,,,,,,,,,,,,,,,,,,,,,,,
,,,,101436,001,2023-07-28_15h31.51.872,fluency,2022.2.4,Win32,59.82650314,,,,,,,,,,,,,,,,,,,,,,,,,,,,,,,,,,,,,,,,,,,,,,,,,,,,,,,,,,,,,,,,,,,,,,,,,,,"[""k""]",[0.3864000000059491],"[""k""]",[0.3864000000059491],0,0,0,0,0,1,,,,,,,,,,,,,,,,,,,,,,,,,,,,,,,,,,,,,,,,,,,,,,,,,,,,,,,,,,,,,,,,,,,
,,,,101436,001,2023-07-28_15h31.51.872,fluency,2022.2.4,Win32,59.82650314,,,,,,,,,,,,,,,,,,,,,,,0,4,img/B04_00.jpg,CONTROL,Press K as soon as you see a face, ,KJ,,,,,,,,,,,,,,,,,,,,,,,,,,,,,,,,3,0.362,,,,,,,,,,,,,,,,,,,,,,,space,0.2022,0,30,30,33,1,,,,,,,,,,,,,,,,,,,,,,,,,,,,,,,,,,,,,,,,,,,,,,,,,,,,,,,,,,,,
,,,,101436,001,2023-07-28_15h31.51.872,fluency,2022.2.4,Win32,59.82650314,,,,,,,,,,,,,,,,,,,,,,,,,,,,,,,,,,,,,,,,,,,,,,,,,,,,,,,,,,,,,,,,,,,,,,,,,,,"[""k""]",[0.4342999999821018],"[""k""]",[0.4341999999880386],0,0,0,0,0,1,,,,,,,,,,,,,,,,,,,,,,,,,,,,,,,,,,,,,,,,,,,,,,,,,,,,,,,,,,,,,,,,,,,
,,,,101436,001,2023-07-28_15h31.51.872,fluency,2022.2.4,Win32,59.82650314,,,,,,,,,,,,,,,,,,,,,,,5,10,img/B10_05.jpg,CONTROL,Press K as soon as you see a face, ,KJ,,,,,,,,,,,,,,,,,,,,,,,,,,,,,,,,4,0.339,,,,,,,,,,,,,,,,,,,,,,,space,0.2031,0,31,31,104,1,,,,,,,,,,,,,,,,,,,,,,,,,,,,,,,,,,,,,,,,,,,,,,,,,,,,,,,,,,,,
,,,,101436,001,2023-07-28_15h31.51.872,fluency,2022.2.4,Win32,59.82650314,,,,,,,,,,,,,,,,,,,,,,,,,,,,,,,,,,,,,,,,,,,,,,,,,,,,,,,,,,,,,,,,,,,,,,,,,,,"[""k""]",[0.7127999999821668],"[""k""]",[0.7120999999940523],0,0,0,0,0,1,,,,,,,,,,,,,,,,,,,,,,,,,,,,,,,,,,,,,,,,,,,,,,,,,,,,,,,,,,,,,,,,,,,
,,,,101436,001,2023-07-28_15h31.51.872,fluency,2022.2.4,Win32,59.82650314,,,,,,,,,,,,,,,,,,,,,,,9,10,img/B10_09.jpg,CONTROL,Press K as soon as you see a face, ,KJ,,,,,,,,,,,,,,,,,,,,,,,,,,,,,,,,5,0.3457,,,,,,,,,,,,,,,,,,,,,,,space,0.1701,0,32,32,108,1,,,,,,,,,,,,,,,,,,,,,,,,,,,,,,,,,,,,,,,,,,,,,,,,,,,,,,,,,,,,
,,,,101436,001,2023-07-28_15h31.51.872,fluency,2022.2.4,Win32,59.82650314,,,,,,,,,,,,,,,,,,,,,,,,,,,,,,,,,,,,,,,,,,,,,,,,,,,,,,,,,,,,,,,,,,,,,,,,,,,"[""k""]",[0.6095000000000255],"[""k""]",[0.6094000000059623],0,0,0,0,0,1,,,,,,,,,,,,,,,,,,,,,,,,,,,,,,,,,,,,,,,,,,,,,,,,,,,,,,,,,,,,,,,,,,,
,,,,101436,001,2023-07-28_15h31.51.872,fluency,2022.2.4,Win32,59.82650314,,,,,,,,,,,,,,,,,,,,,,,3,5,img/B05_03.jpg,CONTROL,Press K as soon as you see a face, ,KJ,,,,,,,,,,,,,,,,,,,,,,,,,,,,,,,,2,0.4217,,,,,,,,,,,,,,,,,,,,,,,space,0.2519,0,33,33,47,1,,,,,,,,,,,,,,,,,,,,,,,,,,,,,,,,,,,,,,,,,,,,,,,,,,,,,,,,,,,,
,,,,101436,001,2023-07-28_15h31.51.872,fluency,2022.2.4,Win32,59.82650314,,,,,,,,,,,,,,,,,,,,,,,,,,,,,,,,,,,,,,,,,,,,,,,,,,,,,,,,,,,,,,,,,,,,,,,,,,,"[""k""]",[0.3997000000179014],"[""k""]",[0.39970000001784456],0,0,0,0,0,1,,,,,,,,,,,,,,,,,,,,,,,,,,,,,,,,,,,,,,,,,,,,,,,,,,,,,,,,,,,,,,,,,,,
,,,,101436,001,2023-07-28_15h31.51.872,fluency,2022.2.4,Win32,59.82650314,,,,,,,,,,,,,,,,,,,,,,,8,3,img/B03_08.jpg,CONTROL,Press K as soon as you see a face, ,KJ,,,,,,,,,,,,,,,,,,,,,,,,,,,,,,,,4,0.4566,,,,,,,,,,,,,,,,,,,,,,,space,0.1853,0,34,34,30,1,,,,,,,,,,,,,,,,,,,,,,,,,,,,,,,,,,,,,,,,,,,,,,,,,,,,,,,,,,,,
,,,,101436,001,2023-07-28_15h31.51.872,fluency,2022.2.4,Win32,59.82650314,,,,,,,,,,,,,,,,,,,,,,,,,,,,,,,,,,,,,,,,,,,,,,,,,,,,,,,,,,,,,,,,,,,,,,,,,,,"[""k""]",[0.32450000000000045],"[""k""]",[0.32459999999406364],0,0,0,0,0,1,,,,,,,,,,,,,,,,,,,,,,,,,,,,,,,,,,,,,,,,,,,,,,,,,,,,,,,,,,,,,,,,,,,
,,,,101436,001,2023-07-28_15h31.51.872,fluency,2022.2.4,Win32,59.82650314,,,,,,,,,,,,,,,,,,,,,,,2,5,img/B05_02.jpg,CONTROL,Press K as soon as you see a face, ,KJ,,,,,,,,,,,,,,,,,,,,,,,,,,,,,,,,2,0.3113,,,,,,,,,,,,,,,,,,,,,,,space,0.1717,0,35,35,46,1,,,,,,,,,,,,,,,,,,,,,,,,,,,,,,,,,,,,,,,,,,,,,,,,,,,,,,,,,,,,
,,,,101436,001,2023-07-28_15h31.51.872,fluency,2022.2.4,Win32,59.82650314,,,,,,,,,,,,,,,,,,,,,,,,,,,,,,,,,,,,,,,,,,,,,,,,,,,,,,,,,,,,,,,,,,,,,,,,,,,"[""k""]",[0.2884999999999991],"[""k""]",[0.2884999999999991],0,0,0,0,0,1,,,,,,,,,,,,,,,,,,,,,,,,,,,,,,,,,,,,,,,,,,,,,,,,,,,,,,,,,,,,,,,,,,,
,,,,101436,001,2023-07-28_15h31.51.872,fluency,2022.2.4,Win32,59.82650314,,,,,,,,,,,,,,,,,,,,,,,7,8,img/B08_07.jpg,CONTROL,Press K as soon as you see a face, ,KJ,,,,,,,,,,,,,,,,,,,,,,,,,,,,,,,,5,0.3265,,,,,,,,,,,,,,,,,,,,,,,space,0.1686,0,36,36,84,1,,,,,,,,,,,,,,,,,,,,,,,,,,,,,,,,,,,,,,,,,,,,,,,,,,,,,,,,,,,,
,,,,101436,001,2023-07-28_15h31.51.872,fluency,2022.2.4,Win32,59.82650314,,,,,,,,,,,,,,,,,,,,,,,,,,,,,,,,,,,,,,,,,,,,,,,,,,,,,,,,,,,,,,,,,,,,,,,,,,,"[""k""]",[0.3235000000000241],"[""k""]",[0.3235000000000241],0,0,0,0,0,1,,,,,,,,,,,,,,,,,,,,,,,,,,,,,,,,,,,,,,,,,,,,,,,,,,,,,,,,,,,,,,,,,,,
,,,,101436,001,2023-07-28_15h31.51.872,fluency,2022.2.4,Win32,59.82650314,,,,,,,,,,,,,,,,,,,,,,,2,3,img/B03_02.jpg,CONTROL,Press K as soon as you see a face, ,KJ,,,,,,,,,,,,,,,,,,,,,,,,,,,,,,,,3,0.4703,,,,,,,,,,,,,,,,,,,,,,,space,0.1938,0,37,37,24,1,,,,,,,,,,,,,,,,,,,,,,,,,,,,,,,,,,,,,,,,,,,,,,,,,,,,,,,,,,,,
,,,,101436,001,2023-07-28_15h31.51.872,fluency,2022.2.4,Win32,59.82650314,,,,,,,,,,,,,,,,,,,,,,,,,,,,,,,,,,,,,,,,,,,,,,,,,,,,,,,,,,,,,,,,,,,,,,,,,,,"[""k""]",[0.45790000000596365],"[""k""]",[0.45790000000596365],0,0,0,0,0,1,,,,,,,,,,,,,,,,,,,,,,,,,,,,,,,,,,,,,,,,,,,,,,,,,,,,,,,,,,,,,,,,,,,
,,,,101436,001,2023-07-28_15h31.51.872,fluency,2022.2.4,Win32,59.82650314,,,,,,,,,,,,,,,,,,,,,,,4,8,img/B08_04.jpg,CONTROL,Press K as soon as you see a face, ,KJ,,,,,,,,,,,,,,,,,,,,,,,,,,,,,,,,4,0.3483,,,,,,,,,,,,,,,,,,,,,,,space,0.1945,0,38,38,81,1,,,,,,,,,,,,,,,,,,,,,,,,,,,,,,,,,,,,,,,,,,,,,,,,,,,,,,,,,,,,
,,,,101436,001,2023-07-28_15h31.51.872,fluency,2022.2.4,Win32,59.82650314,,,,,,,,,,,,,,,,,,,,,,,,,,,,,,,,,,,,,,,,,,,,,,,,,,,,,,,,,,,,,,,,,,,,,,,,,,,"[""k""]",[0.459400000005985],"[""k""]",[0.459400000005985],0,0,0,0,0,1,,,,,,,,,,,,,,,,,,,,,,,,,,,,,,,,,,,,,,,,,,,,,,,,,,,,,,,,,,,,,,,,,,,
,,,,101436,001,2023-07-28_15h31.51.872,fluency,2022.2.4,Win32,59.82650314,,,,,,,,,,,,,,,,,,,,,,,3,6,img/B06_03.jpg,CONTROL,Press K as soon as you see a face, ,KJ,,,,,,,,,,,,,,,,,,,,,,,,,,,,,,,,3,0.3367,,,,,,,,,,,,,,,,,,,,,,,space,0.216,0,39,39,58,1,,,,,,,,,,,,,,,,,,,,,,,,,,,,,,,,,,,,,,,,,,,,,,,,,,,,,,,,,,,,
,,,,101436,001,2023-07-28_15h31.51.872,fluency,2022.2.4,Win32,59.82650314,,,,,,,,,,,,,,,,,,,,,,,,,,,,,,,,,,,,,,,,,,,,,,,,,,,,,,,,,,,,,,,,,,,,,,,,,,,"[""k""]",[0.3410000000000082],"[""k""]",[0.3410000000000082],0,0,0,0,0,1,,,,,,,,,,,,,,,,,,,,,,,,,,,,,,,,,,,,,,,,,,,,,,,,,,,,,,,,,,,,,,,,,,,
,,,,101436,001,2023-07-28_15h31.51.872,fluency,2022.2.4,Win32,59.82650314,,,,,,,,,,,,,,,,,,,,,,,5,7,img/B07_05.jpg,CONTROL,Press K as soon as you see a face, ,KJ,,,,,,,,,,,,,,,,,,,,,,,,,,,,,,,,3,0.3163,,,,,,,,,,,,,,,,,,,,,,,space,0.168,0,40,40,71,1,,,,,,,,,,,,,,,,,,,,,,,,,,,,,,,,,,,,,,,,,,,,,,,,,,,,,,,,,,,,
,,,,101436,001,2023-07-28_15h31.51.872,fluency,2022.2.4,Win32,59.82650314,,,,,,,,,,,,,,,,,,,,,,,,,,,,,,,,,,,,,,,,,,,,,,,,,,,,,,,,,,,,,,,,,,,,,,,,,,,"[""k""]",[0.29349999999999454],"[""k""]",[0.29349999999999454],0,0,0,0,0,1,,,,,,,,,,,,,,,,,,,,,,,,,,,,,,,,,,,,,,,,,,,,,,,,,,,,,,,,,,,,,,,,,,,
,,,,101436,001,2023-07-28_15h31.51.872,fluency,2022.2.4,Win32,59.82650314,,,,,,,,,,,,,,,,,,,,,,,8,10,img/B10_08.jpg,CONTROL,Press K as soon as you see a face, ,KJ,,,,,,,,,,,,,,,,,,,,,,,,,,,,,,,,5,0.3362,,,,,,,,,,,,,,,,,,,,,,,space,0.1597,0,41,41,107,1,,,,,,,,,,,,,,,,,,,,,,,,,,,,,,,,,,,,,,,,,,,,,,,,,,,,,,,,,,,,
,,,,101436,001,2023-07-28_15h31.51.872,fluency,2022.2.4,Win32,59.82650314,,,,,,,,,,,,,,,,,,,,,,,,,,,,,,,,,,,,,,,,,,,,,,,,,,,,,,,,,,,,,,,,,,,,,,,,,,,"[""k""]",[0.4604999999999677],"[""k""]",[0.4603999999761186],0,0,0,0,0,1,,,,,,,,,,,,,,,,,,,,,,,,,,,,,,,,,,,,,,,,,,,,,,,,,,,,,,,,,,,,,,,,,,,
,,,,101436,001,2023-07-28_15h31.51.872,fluency,2022.2.4,Win32,59.82650314,,,,,,,,,,,,,,,,,,,,,,,9,4,img/B04_09.jpg,CONTROL,Press K as soon as you see a face, ,KJ,,,,,,,,,,,,,,,,,,,,,,,,,,,,,,,,4,0.4095,,,,,,,,,,,,,,,,,,,,,,,space,0.2577,0,42,42,42,1,,,,,,,,,,,,,,,,,,,,,,,,,,,,,,,,,,,,,,,,,,,,,,,,,,,,,,,,,,,,
,,,,101436,001,2023-07-28_15h31.51.872,fluency,2022.2.4,Win32,59.82650314,,,,,,,,,,,,,,,,,,,,,,,,,,,,,,,,,,,,,,,,,,,,,,,,,,,,,,,,,,,,,,,,,,,,,,,,,,,"[""k""]",[0.39980000001190774],"[""k""]",[0.3999000000059141],0,0,0,0,0,1,,,,,,,,,,,,,,,,,,,,,,,,,,,,,,,,,,,,,,,,,,,,,,,,,,,,,,,,,,,,,,,,,,,
,,,,101436,001,2023-07-28_15h31.51.872,fluency,2022.2.4,Win32,59.82650314,,,,,,,,,,,,,,,,,,,,,,,6,5,img/B05_06.jpg,CONTROL,Press K as soon as you see a face, ,KJ,,,,,,,,,,,,,,,,,,,,,,,,,,,,,,,,4,0.3111,,,,,,,,,,,,,,,,,,,,,,,space,0.2187,0,43,43,50,1,,,,,,,,,,,,,,,,,,,,,,,,,,,,,,,,,,,,,,,,,,,,,,,,,,,,,,,,,,,,
,,,,101436,001,2023-07-28_15h31.51.872,fluency,2022.2.4,Win32,59.82650314,,,,,,,,,,,,,,,,,,,,,,,,,,,,,,,,,,,,,,,,,,,,,,,,,,,,,,,,,,,,,,,,,,,,,,,,,,,"[""k""]",[0.4507999999821095],"[""k""]",[0.4507999999821095],0,0,0,0,0,1,,,,,,,,,,,,,,,,,,,,,,,,,,,,,,,,,,,,,,,,,,,,,,,,,,,,,,,,,,,,,,,,,,,
,,,,101436,001,2023-07-28_15h31.51.872,fluency,2022.2.4,Win32,59.82650314,,,,,,,,,,,,,,,,,,,,,,,4,6,img/B06_04.jpg,CONTROL,Press K as soon as you see a face, ,KJ,,,,,,,,,,,,,,,,,,,,,,,,,,,,,,,,4,0.2921,,,,,,,,,,,,,,,,,,,,,,,space,0.1695,0,44,44,59,1,,,,,,,,,,,,,,,,,,,,,,,,,,,,,,,,,,,,,,,,,,,,,,,,,,,,,,,,,,,,
,,,,101436,001,2023-07-28_15h31.51.872,fluency,2022.2.4,Win32,59.82650314,,,,,,,,,,,,,,,,,,,,,,,,,,,,,,,,,,,,,,,,,,,,,,,,,,,,,,,,,,,,,,,,,,,,,,,,,,,"[""k""]",[0.40869999998807316],"[""k""]",[0.4088000000119223],0,0,0,0,0,1,,,,,,,,,,,,,,,,,,,,,,,,,,,,,,,,,,,,,,,,,,,,,,,,,,,,,,,,,,,,,,,,,,,
,,,,101436,001,2023-07-28_15h31.51.872,fluency,2022.2.4,Win32,59.82650314,,,,,,,,,,,,,,,,,,,,,,,8,4,img/B04_08.jpg,CONTROL,Press K as soon as you see a face, ,KJ,,,,,,,,,,,,,,,,,,,,,,,,,,,,,,,,4,0.3301,,,,,,,,,,,,,,,,,,,,,,,space,0.1932,0,45,45,41,1,,,,,,,,,,,,,,,,,,,,,,,,,,,,,,,,,,,,,,,,,,,,,,,,,,,,,,,,,,,,
,,,,101436,001,2023-07-28_15h31.51.872,fluency,2022.2.4,Win32,59.82650314,,,,,,,,,,,,,,,,,,,,,,,,,,,,,,,,,,,,,,,,,,,,,,,,,,,,,,,,,,,,,,,,,,,,,,,,,,,"[""k""]",[0.30909999999403226],"[""k""]",[0.30890000000596274],0,0,0,0,0,1,,,,,,,,,,,,,,,,,,,,,,,,,,,,,,,,,,,,,,,,,,,,,,,,,,,,,,,,,,,,,,,,,,,
,,,,101436,001,2023-07-28_15h31.51.872,fluency,2022.2.4,Win32,59.82650314,,,,,,,,,,,,,,,,,,,,,,,1,9,img/B09_01.jpg,CONTROL,Press K as soon as you see a face, ,KJ,,,,,,,,,,,,,,,,,,,,,,,,,,,,,,,,5,0.4965,,,,,,,,,,,,,,,,,,,,,,,space,0.1865,0,46,46,89,1,,,,,,,,,,,,,,,,,,,,,,,,,,,,,,,,,,,,,,,,,,,,,,,,,,,,,,,,,,,,
,,,,101436,001,2023-07-28_15h31.51.872,fluency,2022.2.4,Win32,59.82650314,,,,,,,,,,,,,,,,,,,,,,,,,,,,,,,,,,,,,,,,,,,,,,,,,,,,,,,,,,,,,,,,,,,,,,,,,,,"[""k""]",[0.8350999999940427],"[""k""]",[0.8350999999940427],0,0,0,0,0,1,,,,,,,,,,,,,,,,,,,,,,,,,,,,,,,,,,,,,,,,,,,,,,,,,,,,,,,,,,,,,,,,,,,
,,,,101436,001,2023-07-28_15h31.51.872,fluency,2022.2.4,Win32,59.82650314,,,,,,,,,,,,,,,,,,,,,,,4,9,img/B09_04.jpg,CONTROL,Press K as soon as you see a face, ,KJ,,,,,,,,,,,,,,,,,,,,,,,,,,,,,,,,5,0.3478,,,,,,,,,,,,,,,,,,,,,,,space,0.1377,0,47,47,92,1,,,,,,,,,,,,,,,,,,,,,,,,,,,,,,,,,,,,,,,,,,,,,,,,,,,,,,,,,,,,
,,,,101436,001,2023-07-28_15h31.51.872,fluency,2022.2.4,Win32,59.82650314,,,,,,,,,,,,,,,,,,,,,,,,,,,,,,,,,,,,,,,,,,,,,,,,,,,,,,,,,,,,,,,,,,,,,,,,,,,"[""k""]",[0.4083000000119341],"[""k""]",[0.4083000000119341],0,0,0,0,0,1,,,,,,,,,,,,,,,,,,,,,,,,,,,,,,,,,,,,,,,,,,,,,,,,,,,,,,,,,,,,,,,,,,,
,,,,101436,001,2023-07-28_15h31.51.872,fluency,2022.2.4,Win32,59.82650314,,,,,,,,,,,,,,,,,,,,,,,9,9,img/B09_09.jpg,CONTROL,Press K as soon as you see a face, ,KJ,,,,,,,,,,,,,,,,,,,,,,,,,,,,,,,,7,0.3924,,,,,,,,,,,,,,,,,,,,,,,space,0.2447,0,48,48,97,1,,,,,,,,,,,,,,,,,,,,,,,,,,,,,,,,,,,,,,,,,,,,,,,,,,,,,,,,,,,,
,,,,101436,001,2023-07-28_15h31.51.872,fluency,2022.2.4,Win32,59.82650314,,,,,,,,,,,,,,,,,,,,,,,,,,,,,,,,,,,,,,,,,,,,,,,,,,,,,,,,,,,,,,,,,,,,,,,,,,,"[""k""]",[0.36290000000593636],"[""k""]",[0.36290000000593636],0,0,0,0,0,1,,,,,,,,,,,,,,,,,,,,,,,,,,,,,,,,,,,,,,,,,,,,,,,,,,,,,,,,,,,,,,,,,,,
,,,,101436,001,2023-07-28_15h31.51.872,fluency,2022.2.4,Win32,59.82650314,,,,,,,,,,,,,,,,,,,,,,,5,4,img/B04_05.jpg,CONTROL,Press K as soon as you see a face, ,KJ,,,,,,,,,,,,,,,,,,,,,,,,,,,,,,,,5,0.4186,,,,,,,,,,,,,,,,,,,,,,,space,0.2062,0,49,49,38,1,,,,,,,,,,,,,,,,,,,,,,,,,,,,,,,,,,,,,,,,,,,,,,,,,,,,,,,,,,,,
,,,,101436,001,2023-07-28_15h31.51.872,fluency,2022.2.4,Win32,59.82650314,,,,,,,,,,,,,,,,,,,,,,,,,,,,,,,,,,,,,,,,,,,,,,,,,,,,,,,,,,,,,,,,,,,,,,,,,,,"[""k""]",[0.45690000000593045],"[""k""]",[0.4568999999761445],0,0,0,0,0,1,,,,,,,,,,,,,,,,,,,,,,,,,,,,,,,,,,,,,,,,,,,,,,,,,,,,,,,,,,,,,,,,,,,
,,,,101436,001,2023-07-28_15h31.51.872,fluency,2022.2.4,Win32,59.82650314,,,,,,,,,,,,,,,,,,,,,,,2,7,img/B07_02.jpg,CONTROL,Press K as soon as you see a face, ,KJ,,,,,,,,,,,,,,,,,,,,,,,,,,,,,,,,4,0.5612,,,,,,,,,,,,,,,,,,,,,,,space,0.1847,0,50,50,68,1,,,,,,,,,,,,,,,,,,,,,,,,,,,,,,,,,,,,,,,,,,,,,,,,,,,,,,,,,,,,
,,,,101436,001,2023-07-28_15h31.51.872,fluency,2022.2.4,Win32,59.82650314,,,,,,,,,,,,,,,,,,,,,,,,,,,,,,,,,,,,,,,,,,,,,,,,,,,,,,,,,,,,,,,,,,,,,,,,,,,"[""k""]",[0.37559999999405136],"[""k""]",[0.375500000000045],0,0,0,0,0,1,,,,,,,,,,,,,,,,,,,,,,,,,,,,,,,,,,,,,,,,,,,,,,,,,,,,,,,,,,,,,,,,,,,
,,,,101436,001,2023-07-28_15h31.51.872,fluency,2022.2.4,Win32,59.82650314,,,,,,,,,,,,,,,,,,,,,,,2,1,img/B01_02.jpg,CONTROL,Press K as soon as you see a face, ,KJ,,,,,,,,,,,,,,,,,,,,,,,,,,,,,,,,2,0.4108,,,,,,,,,,,,,,,,,,,,,,,space,0.2383,0,51,51,2,1,,,,,,,,,,,,,,,,,,,,,,,,,,,,,,,,,,,,,,,,,,,,,,,,,,,,,,,,,,,,
,,,,101436,001,2023-07-28_15h31.51.872,fluency,2022.2.4,Win32,59.82650314,,,,,,,,,,,,,,,,,,,,,,,,,,,,,,,,,,,,,,,,,,,,,,,,,,,,,,,,,,,,,,,,,,,,,,,,,,,"[""k""]",[0.38130000001189046],"[""k""]",[0.38130000001189046],0,0,0,0,0,1,,,,,,,,,,,,,,,,,,,,,,,,,,,,,,,,,,,,,,,,,,,,,,,,,,,,,,,,,,,,,,,,,,,
,,,,101436,001,2023-07-28_15h31.51.872,fluency,2022.2.4,Win32,59.82650314,,,,,,,,,,,,,,,,,,,,,,,3,2,img/B02_03.jpg,CONTROL,Press K as soon as you see a face, ,KJ,,,,,,,,,,,,,,,,,,,,,,,,,,,,,,,,1,0.445,,,,,,,,,,,,,,,,,,,,,,,space,0.2549,0,52,52,14,1,,,,,,,,,,,,,,,,,,,,,,,,,,,,,,,,,,,,,,,,,,,,,,,,,,,,,,,,,,,,
,,,,101436,001,2023-07-28_15h31.51.872,fluency,2022.2.4,Win32,59.82650314,,,,,,,,,,,,,,,,,,,,,,,,,,,,,,,,,,,,,,,,,,,,,,,,,,,,,,,,,,,,,,,,,,,,,,,,,,,"[""k""]",[0.5105000000000359],"[""k""]",[0.5105000000000359],0,0,0,0,0,1,,,,,,,,,,,,,,,,,,,,,,,,,,,,,,,,,,,,,,,,,,,,,,,,,,,,,,,,,,,,,,,,,,,
,,,,101436,001,2023-07-28_15h31.51.872,fluency,2022.2.4,Win32,59.82650314,,,,,,,,,,,,,,,,,,,,,,,0,1,img/B01_00.jpg,CONTROL,Press K as soon as you see a face, ,KJ,,,,,,,,,,,,,,,,,,,,,,,,,,,,,,,,2,0.3649,,,,,,,,,,,,,,,,,,,,,,,space,0.2607,0,53,53,0,1,,,,,,,,,,,,,,,,,,,,,,,,,,,,,,,,,,,,,,,,,,,,,,,,,,,,,,,,,,,,
,,,,101436,001,2023-07-28_15h31.51.872,fluency,2022.2.4,Win32,59.82650314,,,,,,,,,,,,,,,,,,,,,,,,,,,,,,,,,,,,,,,,,,,,,,,,,,,,,,,,,,,,,,,,,,,,,,,,,,,"[""k""]",[0.5323000000119009],"[""k""]",[0.5323000000119009],0,0,0,0,0,1,,,,,,,,,,,,,,,,,,,,,,,,,,,,,,,,,,,,,,,,,,,,,,,,,,,,,,,,,,,,,,,,,,,
,,,,101436,001,2023-07-28_15h31.51.872,fluency,2022.2.4,Win32,59.82650314,,,,,,,,,,,,,,,,,,,,,,,10,1,img/B01_10.jpg,CONTROL,Press K as soon as you see a face, ,KJ,,,,,,,,,,,,,,,,,,,,,,,,,,,,,,,,2,0.3875,,,,,,,,,,,,,,,,,,,,,,,space,0.2735,0,54,54,10,1,,,,,,,,,,,,,,,,,,,,,,,,,,,,,,,,,,,,,,,,,,,,,,,,,,,,,,,,,,,,
,,,,101436,001,2023-07-28_15h31.51.872,fluency,2022.2.4,Win32,59.82650314,,,,,,,,,,,,,,,,,,,,,,,,,,,,,,,,,,,,,,,,,,,,,,,,,,,,,,,,,,,,,,,,,,,,,,,,,,,"[""k""]",[0.4477000000179032],"[""k""]",[0.4477000000179032],0,0,0,0,0,1,,,,,,,,,,,,,,,,,,,,,,,,,,,,,,,,,,,,,,,,,,,,,,,,,,,,,,,,,,,,,,,,,,,
,,,,101436,001,2023-07-28_15h31.51.872,fluency,2022.2.4,Win32,59.82650314,,,,,,,,,,,,,,,,,,,,,,,5,8,img/B08_05.jpg,CONTROL,Press K as soon as you see a face, ,KJ,,,,,,,,,,,,,,,,,,,,,,,,,,,,,,,,3,0.4143,,,,,,,,,,,,,,,,,,,,,,,space,0.2597,0,55,55,82,1,,,,,,,,,,,,,,,,,,,,,,,,,,,,,,,,,,,,,,,,,,,,,,,,,,,,,,,,,,,,
,,,,101436,001,2023-07-28_15h31.51.872,fluency,2022.2.4,Win32,59.82650314,,,,,,,,,,,,,,,,,,,,,,,,,,,,,,,,,,,,,,,,,,,,,,,,,,,,,,,,,,,,,,,,,,,,,,,,,,,"[""k""]",[0.3747999999821445],"[""k""]",[0.3747999999821445],0,0,0,0,0,1,,,,,,,,,,,,,,,,,,,,,,,,,,,,,,,,,,,,,,,,,,,,,,,,,,,,,,,,,,,,,,,,,,,
,,,,101436,001,2023-07-28_15h31.51.872,fluency,2022.2.4,Win32,59.82650314,,,,,,,,,,,,,,,,,,,,,,,7,9,img/B09_07.jpg,CONTROL,Press K as soon as you see a face, ,KJ,,,,,,,,,,,,,,,,,,,,,,,,,,,,,,,,7,0.4607,,,,,,,,,,,,,,,,,,,,,,,space,0.1949,0,56,56,95,1,,,,,,,,,,,,,,,,,,,,,,,,,,,,,,,,,,,,,,,,,,,,,,,,,,,,,,,,,,,,
,,,,101436,001,2023-07-28_15h31.51.872,fluency,2022.2.4,Win32,59.82650314,,,,,,,,,,,,,,,,,,,,,,,,,,,,,,,,,,,,,,,,,,,,,,,,,,,,,,,,,,,,,,,,,,,,,,,,,,,"[""k""]",[0.31330000001190683],"[""k""]",[0.31330000001190683],0,0,0,0,0,1,,,,,,,,,,,,,,,,,,,,,,,,,,,,,,,,,,,,,,,,,,,,,,,,,,,,,,,,,,,,,,,,,,,
,,,,101436,001,2023-07-28_15h31.51.872,fluency,2022.2.4,Win32,59.82650314,,,,,,,,,,,,,,,,,,,,,,,7,3,img/B03_07.jpg,CONTROL,Press K as soon as you see a face, ,KJ,,,,,,,,,,,,,,,,,,,,,,,,,,,,,,,,4,0.3715,,,,,,,,,,,,,,,,,,,,,,,space,0.1766,0,57,57,29,1,,,,,,,,,,,,,,,,,,,,,,,,,,,,,,,,,,,,,,,,,,,,,,,,,,,,,,,,,,,,
,,,,101436,001,2023-07-28_15h31.51.872,fluency,2022.2.4,Win32,59.82650314,,,,,,,,,,,,,,,,,,,,,,,,,,,,,,,,,,,,,,,,,,,,,,,,,,,,,,,,,,,,,,,,,,,,,,,,,,,"[""k""]",[0.3449000000059641],"[""k""]",[0.3448000000119009],0,0,0,0,0,1,,,,,,,,,,,,,,,,,,,,,,,,,,,,,,,,,,,,,,,,,,,,,,,,,,,,,,,,,,,,,,,,,,,
,,,,101436,001,2023-07-28_15h31.51.872,fluency,2022.2.4,Win32,59.82650314,,,,,,,,,,,,,,,,,,,,,,,10,3,img/B03_10.jpg,CONTROL,Press K as soon as you see a face, ,KJ,,,,,,,,,,,,,,,,,,,,,,,,,,,,,,,,3,0.3296,,,,,,,,,,,,,,,,,,,,,,,space,0.2191,0,58,58,32,1,,,,,,,,,,,,,,,,,,,,,,,,,,,,,,,,,,,,,,,,,,,,,,,,,,,,,,,,,,,,
,,,,101436,001,2023-07-28_15h31.51.872,fluency,2022.2.4,Win32,59.82650314,,,,,,,,,,,,,,,,,,,,,,,,,,,,,,,,,,,,,,,,,,,,,,,,,,,,,,,,,,,,,,,,,,,,,,,,,,,"[""k""]",[0.3509000000059359],"[""k""]",[0.3509000000059359],0,0,0,0,0,1,,,,,,,,,,,,,,,,,,,,,,,,,,,,,,,,,,,,,,,,,,,,,,,,,,,,,,,,,,,,,,,,,,,
,,,,101436,001,2023-07-28_15h31.51.872,fluency,2022.2.4,Win32,59.82650314,,,,,,,,,,,,,,,,,,,,,,,1,2,img/B02_01.jpg,CONTROL,Press K as soon as you see a face, ,KJ,,,,,,,,,,,,,,,,,,,,,,,,,,,,,,,,1,0.3159,,,,,,,,,,,,,,,,,,,,,,,space,0.3018,0,59,59,12,1,,,,,,,,,,,,,,,,,,,,,,,,,,,,,,,,,,,,,,,,,,,,,,,,,,,,,,,,,,,,
,,,,101436,001,2023-07-28_15h31.51.872,fluency,2022.2.4,Win32,59.82650314,,,,,,,,,,,,,,,,,,,,,,,,,,,,,,,,,,,,,,,,,,,,,,,,,,,,,,,,,,,,,,,,,,,,,,,,,,,"[""k""]",[0.37519999998812636],"[""k""]",[0.3750999999940632],0,0,0,0,0,1,,,,,,,,,,,,,,,,,,,,,,,,,,,,,,,,,,,,,,,,,,,,,,,,,,,,,,,,,,,,,,,,,,,
,,,,101436,001,2023-07-28_15h31.51.872,fluency,2022.2.4,Win32,59.82650314,,,,,,,,,,,,,,,,,,,,,,,6,7,img/B07_06.jpg,CONTROL,Press K as soon as you see a face, ,KJ,,,,,,,,,,,,,,,,,,,,,,,,,,,,,,,,4,0.4608,,,,,,,,,,,,,,,,,,,,,,,space,0.3185,0,60,60,72,1,,,,,,,,,,,,,,,,,,,,,,,,,,,,,,,,,,,,,,,,,,,,,,,,,,,,,,,,,,,,
,,,,101436,001,2023-07-28_15h31.51.872,fluency,2022.2.4,Win32,59.82650314,,,,,,,,,,,,,,,,,,,,,,,,,,,,,,,,,,,,,,,,,,,,,,,,,,,,,,,,,,,,,,,,,,,,,,,,,,,"[""k""]",[0.34749999999996817],"[""k""]",[0.34749999999996817],0,0,0,0,0,1,,,,,,,,,,,,,,,,,,,,,,,,,,,,,,,,,,,,,,,,,,,,,,,,,,,,,,,,,,,,,,,,,,,
,,,,101436,001,2023-07-28_15h31.51.872,fluency,2022.2.4,Win32,59.82650314,,,,,,,,,,,,,,,,,,,,,,,5,3,img/B03_05.jpg,CONTROL,Press K as soon as you see a face, ,KJ,,,,,,,,,,,,,,,,,,,,,,,,,,,,,,,,4,0.3632,,,,,,,,,,,,,,,,,,,,,,,space,0.1868,0,61,61,27,1,,,,,,,,,,,,,,,,,,,,,,,,,,,,,,,,,,,,,,,,,,,,,,,,,,,,,,,,,,,,
,,,,101436,001,2023-07-28_15h31.51.872,fluency,2022.2.4,Win32,59.82650314,,,,,,,,,,,,,,,,,,,,,,,,,,,,,,,,,,,,,,,,,,,,,,,,,,,,,,,,,,,,,,,,,,,,,,,,,,,"[""k""]",[0.44240000000593227],"[""k""]",[0.4419000000059441],0,0,0,0,0,1,,,,,,,,,,,,,,,,,,,,,,,,,,,,,,,,,,,,,,,,,,,,,,,,,,,,,,,,,,,,,,,,,,,
,,,,101436,001,2023-07-28_15h31.51.872,fluency,2022.2.4,Win32,59.82650314,,,,,,,,,,,,,,,,,,,,,,,8,7,img/B07_08.jpg,CONTROL,Press K as soon as you see a face, ,KJ,,,,,,,,,,,,,,,,,,,,,,,,,,,,,,,,5,0.3555,,,,,,,,,,,,,,,,,,,,,,,space,0.257,0,62,62,74,1,,,,,,,,,,,,,,,,,,,,,,,,,,,,,,,,,,,,,,,,,,,,,,,,,,,,,,,,,,,,
,,,,101436,001,2023-07-28_15h31.51.872,fluency,2022.2.4,Win32,59.82650314,,,,,,,,,,,,,,,,,,,,,,,,,,,,,,,,,,,,,,,,,,,,,,,,,,,,,,,,,,,,,,,,,,,,,,,,,,,"[""k""]",[0.31309999999405136],"[""k""]",[0.31309999999405136],0,0,0,0,0,1,,,,,,,,,,,,,,,,,,,,,,,,,,,,,,,,,,,,,,,,,,,,,,,,,,,,,,,,,,,,,,,,,,,
,,,,101436,001,2023-07-28_15h31.51.872,fluency,2022.2.4,Win32,59.82650314,,,,,,,,,,,,,,,,,,,,,,,10,5,img/B05_10.jpg,CONTROL,Press K as soon as you see a face, ,KJ,,,,,,,,,,,,,,,,,,,,,,,,,,,,,,,,4,0.3624,,,,,,,,,,,,,,,,,,,,,,,space,0.1686,0,63,63,54,1,,,,,,,,,,,,,,,,,,,,,,,,,,,,,,,,,,,,,,,,,,,,,,,,,,,,,,,,,,,,
,,,,101436,001,2023-07-28_15h31.51.872,fluency,2022.2.4,Win32,59.82650314,,,,,,,,,,,,,,,,,,,,,,,,,,,,,,,,,,,,,,,,,,,,,,,,,,,,,,,,,,,,,,,,,,,,,,,,,,,"[""k""]",[0.44459999999412503],"[""k""]",[0.44459999999412503],0,0,0,0,0,1,,,,,,,,,,,,,,,,,,,,,,,,,,,,,,,,,,,,,,,,,,,,,,,,,,,,,,,,,,,,,,,,,,,
,,,,101436,001,2023-07-28_15h31.51.872,fluency,2022.2.4,Win32,59.82650314,,,,,,,,,,,,,,,,,,,,,,,8,8,img/B08_08.jpg,CONTROL,Press K as soon as you see a face, ,KJ,,,,,,,,,,,,,,,,,,,,,,,,,,,,,,,,4,0.2904,,,,,,,,,,,,,,,,,,,,,,,space,0.219,0,64,64,85,1,,,,,,,,,,,,,,,,,,,,,,,,,,,,,,,,,,,,,,,,,,,,,,,,,,,,,,,,,,,,
,,,,101436,001,2023-07-28_15h31.51.872,fluency,2022.2.4,Win32,59.82650314,,,,,,,,,,,,,,,,,,,,,,,,,,,,,,,,,,,,,,,,,,,,,,,,,,,,,,,,,,,,,,,,,,,,,,,,,,,"[""k""]",[0.3434000000059996],"[""k""]",[0.3433000000119364],0,0,0,0,0,1,,,,,,,,,,,,,,,,,,,,,,,,,,,,,,,,,,,,,,,,,,,,,,,,,,,,,,,,,,,,,,,,,,,
,,,,101436,001,2023-07-28_15h31.51.872,fluency,2022.2.4,Win32,59.82650314,,,,,,,,,,,,,,,,,,,,,,,10,4,img/B04_10.jpg,CONTROL,Press K as soon as you see a face, ,KJ,,,,,,,,,,,,,,,,,,,,,,,,,,,,,,,,3,0.6464,,,,,,,,,,,,,,,,,,,,,,,space,0.2417,0,65,65,43,1,,,,,,,,,,,,,,,,,,,,,,,,,,,,,,,,,,,,,,,,,,,,,,,,,,,,,,,,,,,,
,,,,101436,001,2023-07-28_15h31.51.872,fluency,2022.2.4,Win32,59.82650314,,,,,,,,,,,,,,,,,,,,,,,,,,,,,,,,,,,,,,,,,,,,,,,,,,,,,,,,,,,,,,,,,,,,,,,,,,,"[""k""]",[0.43180000001189],"[""k""]",[0.43180000001189],0,0,0,0,0,1,,,,,,,,,,,,,,,,,,,,,,,,,,,,,,,,,,,,,,,,,,,,,,,,,,,,,,,,,,,,,,,,,,,
,,,,101436,001,2023-07-28_15h31.51.872,fluency,2022.2.4,Win32,59.82650314,,,,,,,,,,,,,,,,,,,,,,,0,7,img/B07_00.jpg,CONTROL,Press K as soon as you see a face, ,KJ,,,,,,,,,,,,,,,,,,,,,,,,,,,,,,,,3,0.7305,,,,,,,,,,,,,,,,,,,,,,,space,0.7705,0,66,66,66,1,,,,,,,,,,,,,,,,,,,,,,,,,,,,,,,,,,,,,,,,,,,,,,,,,,,,,,,,,,,,
,,,,101436,001,2023-07-28_15h31.51.872,fluency,2022.2.4,Win32,59.82650314,,,,,,,,,,,,,,,,,,,,,,,,,,,,,,,,,,,,,,,,,,,,,,,,,,,,,,,,,,,,,,,,,,,,,,,,,,,"[""k""]",[0.43450000000007094],"[""k""]",[0.43440000000600776],0,0,0,0,0,1,,,,,,,,,,,,,,,,,,,,,,,,,,,,,,,,,,,,,,,,,,,,,,,,,,,,,,,,,,,,,,,,,,,
,,,,101436,001,2023-07-28_15h31.51.872,fluency,2022.2.4,Win32,59.82650314,,,,,,,,,,,,,,,,,,,,,,,10,10,img/B10_10.jpg,CONTROL,Press K as soon as you see a face, ,KJ,,,,,,,,,,,,,,,,,,,,,,,,,,,,,,,,4,0.3278,,,,,,,,,,,,,,,,,,,,,,,space,0.4603,0,67,67,109,1,,,,,,,,,,,,,,,,,,,,,,,,,,,,,,,,,,,,,,,,,,,,,,,,,,,,,,,,,,,,
,,,,101436,001,2023-07-28_15h31.51.872,fluency,2022.2.4,Win32,59.82650314,,,,,,,,,,,,,,,,,,,,,,,,,,,,,,,,,,,,,,,,,,,,,,,,,,,,,,,,,,,,,,,,,,,,,,,,,,,"[""k""]",[0.45900000000006],"[""k""]",[0.45910000002390916],0,0,0,0,0,1,,,,,,,,,,,,,,,,,,,,,,,,,,,,,,,,,,,,,,,,,,,,,,,,,,,,,,,,,,,,,,,,,,,
,,,,101436,001,2023-07-28_15h31.51.872,fluency,2022.2.4,Win32,59.82650314,,,,,,,,,,,,,,,,,,,,,,,0,8,img/B08_00.jpg,CONTROL,Press K as soon as you see a face, ,KJ,,,,,,,,,,,,,,,,,,,,,,,,,,,,,,,,3,0.3262,,,,,,,,,,,,,,,,,,,,,,,space,0.3582,0,68,68,77,1,,,,,,,,,,,,,,,,,,,,,,,,,,,,,,,,,,,,,,,,,,,,,,,,,,,,,,,,,,,,
,,,,101436,001,2023-07-28_15h31.51.872,fluency,2022.2.4,Win32,59.82650314,,,,,,,,,,,,,,,,,,,,,,,,,,,,,,,,,,,,,,,,,,,,,,,,,,,,,,,,,,,,,,,,,,,,,,,,,,,"[""k""]",[1.1973000000119782],"[""3"",""k""]","[0.9180000000000064,1.1973000000119782]",0,0,0,0,0,1,,,,,,,,,,,,,,,,,,,,,,,,,,,,,,,,,,,,,,,,,,,,,,,,,,,,,,,,,,,,,,,,,,,
,,,,101436,001,2023-07-28_15h31.51.872,fluency,2022.2.4,Win32,59.82650314,,,,,,,,,,,,,,,,,,,,,,,2,4,img/B04_02.jpg,CONTROL,Press K as soon as you see a face, ,KJ,,,,,,,,,,,,,,,,,,,,,,,,,,,,,,,,3,0.4401,,,,,,,,,,,,,,,,,,,,,,,space,0.2732,0,69,69,35,1,,,,,,,,,,,,,,,,,,,,,,,,,,,,,,,,,,,,,,,,,,,,,,,,,,,,,,,,,,,,
,,,,101436,001,2023-07-28_15h31.51.872,fluency,2022.2.4,Win32,59.82650314,,,,,,,,,,,,,,,,,,,,,,,,,,,,,,,,,,,,,,,,,,,,,,,,,,,,,,,,,,,,,,,,,,,,,,,,,,,"[""k""]",[0.4691999999880636],"[""k""]",[0.4691999999880636],0,0,0,0,0,1,,,,,,,,,,,,,,,,,,,,,,,,,,,,,,,,,,,,,,,,,,,,,,,,,,,,,,,,,,,,,,,,,,,
,,,,101436,001,2023-07-28_15h31.51.872,fluency,2022.2.4,Win32,59.82650314,,,,,,,,,,,,,,,,,,,,,,,1,1,img/B01_01.jpg,CONTROL,Press K as soon as you see a face, ,KJ,,,,,,,,,,,,,,,,,,,,,,,,,,,,,,,,2,0.4038,,,,,,,,,,,,,,,,,,,,,,,space,0.203,0,70,70,1,1,,,,,,,,,,,,,,,,,,,,,,,,,,,,,,,,,,,,,,,,,,,,,,,,,,,,,,,,,,,,
,,,,101436,001,2023-07-28_15h31.51.872,fluency,2022.2.4,Win32,59.82650314,,,,,,,,,,,,,,,,,,,,,,,,,,,,,,,,,,,,,,,,,,,,,,,,,,,,,,,,,,,,,,,,,,,,,,,,,,,"[""k""]",[0.45110000002387096],"[""k""]",[0.45110000002387096],0,0,0,0,0,1,,,,,,,,,,,,,,,,,,,,,,,,,,,,,,,,,,,,,,,,,,,,,,,,,,,,,,,,,,,,,,,,,,,
,,,,101436,001,2023-07-28_15h31.51.872,fluency,2022.2.4,Win32,59.82650314,,,,,,,,,,,,,,,,,,,,,,,4,1,img/B01_04.jpg,CONTROL,Press K as soon as you see a face, ,KJ,,,,,,,,,,,,,,,,,,,,,,,,,,,,,,,,2,0.9157,,,,,,,,,,,,,,,,,,,,,,,space,0.2892,0,71,71,4,1,,,,,,,,,,,,,,,,,,,,,,,,,,,,,,,,,,,,,,,,,,,,,,,,,,,,,,,,,,,,
,,,,101436,001,2023-07-28_15h31.51.872,fluency,2022.2.4,Win32,59.82650314,,,,,,,,,,,,,,,,,,,,,,,,,,,,,,,,,,,,,,,,,,,,,,,,,,,,,,,,,,,,,,,,,,,,,,,,,,,"[""k""]",[0.35240000000590044],"[""k""]",[0.35240000000590044],0,0,0,0,0,1,,,,,,,,,,,,,,,,,,,,,,,,,,,,,,,,,,,,,,,,,,,,,,,,,,,,,,,,,,,,,,,,,,,
,,,,101436,001,2023-07-28_15h31.51.872,fluency,2022.2.4,Win32,59.82650314,,,,,,,,,,,,,,,,,,,,,,,9,6,img/B06_09.jpg,CONTROL,Press K as soon as you see a face, ,KJ,,,,,,,,,,,,,,,,,,,,,,,,,,,,,,,,7,0.3217,,,,,,,,,,,,,,,,,,,,,,,space,0.5936,0,72,72,64,1,,,,,,,,,,,,,,,,,,,,,,,,,,,,,,,,,,,,,,,,,,,,,,,,,,,,,,,,,,,,
,,,,101436,001,2023-07-28_15h31.51.872,fluency,2022.2.4,Win32,59.82650314,,,,,,,,,,,,,,,,,,,,,,,,,,,,,,,,,,,,,,,,,,,,,,,,,,,,,,,,,,,,,,,,,,,,,,,,,,,"[""k""]",[0.39779999998211224],"[""k""]",[0.39779999998211224],0,0,0,0,0,1,,,,,,,,,,,,,,,,,,,,,,,,,,,,,,,,,,,,,,,,,,,,,,,,,,,,,,,,,,,,,,,,,,,
,,,,101436,001,2023-07-28_15h31.51.872,fluency,2022.2.4,Win32,59.82650314,,,,,,,,,,,,,,,,,,,,,,,6,10,img/B10_06.jpg,CONTROL,Press K as soon as you see a face, ,KJ,,,,,,,,,,,,,,,,,,,,,,,,,,,,,,,,3,0.3155,,,,,,,,,,,,,,,,,,,,,,,space,0.2512,0,73,73,105,1,,,,,,,,,,,,,,,,,,,,,,,,,,,,,,,,,,,,,,,,,,,,,,,,,,,,,,,,,,,,
,,,,101436,001,2023-07-28_15h31.51.872,fluency,2022.2.4,Win32,59.82650314,,,,,,,,,,,,,,,,,,,,,,,,,,,,,,,,,,,,,,,,,,,,,,,,,,,,,,,,,,,,,,,,,,,,,,,,,,,"[""k""]",[0.34980000001201006],"[""k""]",[0.34980000001201006],0,0,0,0,0,1,,,,,,,,,,,,,,,,,,,,,,,,,,,,,,,,,,,,,,,,,,,,,,,,,,,,,,,,,,,,,,,,,,,
,,,,101436,001,2023-07-28_15h31.51.872,fluency,2022.2.4,Win32,59.82650314,,,,,,,,,,,,,,,,,,,,,,,2,10,img/B10_02.jpg,CONTROL,Press K as soon as you see a face, ,KJ,,,,,,,,,,,,,,,,,,,,,,,,,,,,,,,,3,0.4237,,,,,,,,,,,,,,,,,,,,,,,space,0.2742,0,74,74,101,1,,,,,,,,,,,,,,,,,,,,,,,,,,,,,,,,,,,,,,,,,,,,,,,,,,,,,,,,,,,,
,,,,101436,001,2023-07-28_15h31.51.872,fluency,2022.2.4,Win32,59.82650314,,,,,,,,,,,,,,,,,,,,,,,,,,,,,,,,,,,,,,,,,,,,,,,,,,,,,,,,,,,,,,,,,,,,,,,,,,,"[""k""]",[0.3769000000058895],"[""k""]",[0.3769000000058895],0,0,0,0,0,1,,,,,,,,,,,,,,,,,,,,,,,,,,,,,,,,,,,,,,,,,,,,,,,,,,,,,,,,,,,,,,,,,,,
,,,,101436,001,2023-07-28_15h31.51.872,fluency,2022.2.4,Win32,59.82650314,,,,,,,,,,,,,,,,,,,,,,,7,1,img/B01_07.jpg,CONTROL,Press K as soon as you see a face, ,KJ,,,,,,,,,,,,,,,,,,,,,,,,,,,,,,,,2,0.3208,,,,,,,,,,,,,,,,,,,,,,,space,0.5387,0,75,75,7,1,,,,,,,,,,,,,,,,,,,,,,,,,,,,,,,,,,,,,,,,,,,,,,,,,,,,,,,,,,,,
,,,,101436,001,2023-07-28_15h31.51.872,fluency,2022.2.4,Win32,59.82650314,,,,,,,,,,,,,,,,,,,,,,,,,,,,,,,,,,,,,,,,,,,,,,,,,,,,,,,,,,,,,,,,,,,,,,,,,,,"[""k""]",[0.34150000000011005],"[""k""]",[0.34159999999405954],0,0,0,0,0,1,,,,,,,,,,,,,,,,,,,,,,,,,,,,,,,,,,,,,,,,,,,,,,,,,,,,,,,,,,,,,,,,,,,
,,,,101436,001,2023-07-28_15h31.51.872,fluency,2022.2.4,Win32,59.82650314,,,,,,,,,,,,,,,,,,,,,,,9,3,img/B03_09.jpg,CONTROL,Press K as soon as you see a face, ,KJ,,,,,,,,,,,,,,,,,,,,,,,,,,,,,,,,3,0.4254,,,,,,,,,,,,,,,,,,,,,,,space,0.2211,0,76,76,31,1,,,,,,,,,,,,,,,,,,,,,,,,,,,,,,,,,,,,,,,,,,,,,,,,,,,,,,,,,,,,
,,,,101436,001,2023-07-28_15h31.51.872,fluency,2022.2.4,Win32,59.82650314,,,,,,,,,,,,,,,,,,,,,,,,,,,,,,,,,,,,,,,,,,,,,,,,,,,,,,,,,,,,,,,,,,,,,,,,,,,"[""k""]",[0.4418000000119946],"[""k""]",[0.4418000000119946],0,0,0,0,0,1,,,,,,,,,,,,,,,,,,,,,,,,,,,,,,,,,,,,,,,,,,,,,,,,,,,,,,,,,,,,,,,,,,,
,,,,101436,001,2023-07-28_15h31.51.872,fluency,2022.2.4,Win32,59.82650314,,,,,,,,,,,,,,,,,,,,,,,9,5,img/B05_09.jpg,CONTROL,Press K as soon as you see a face, ,KJ,,,,,,,,,,,,,,,,,,,,,,,,,,,,,,,,4,0.3319,,,,,,,,,,,,,,,,,,,,,,,space,0.254,0,77,77,53,1,,,,,,,,,,,,,,,,,,,,,,,,,,,,,,,,,,,,,,,,,,,,,,,,,,,,,,,,,,,,
,,,,101436,001,2023-07-28_15h31.51.872,fluency,2022.2.4,Win32,59.82650314,,,,,,,,,,,,,,,,,,,,,,,,,,,,,,,,,,,,,,,,,,,,,,,,,,,,,,,,,,,,,,,,,,,,,,,,,,,"[""k""]",[0.3605000000000018],"[""k""]",[0.3605000000000018],0,0,0,0,0,1,,,,,,,,,,,,,,,,,,,,,,,,,,,,,,,,,,,,,,,,,,,,,,,,,,,,,,,,,,,,,,,,,,,
,,,,101436,001,2023-07-28_15h31.51.872,fluency,2022.2.4,Win32,59.82650314,,,,,,,,,,,,,,,,,,,,,,,3,7,img/B07_03.jpg,CONTROL,Press K as soon as you see a face, ,KJ,,,,,,,,,,,,,,,,,,,,,,,,,,,,,,,,3,0.3895,,,,,,,,,,,,,,,,,,,,,,,space,0.2184,0,78,78,69,1,,,,,,,,,,,,,,,,,,,,,,,,,,,,,,,,,,,,,,,,,,,,,,,,,,,,,,,,,,,,
,,,,101436,001,2023-07-28_15h31.51.872,fluency,2022.2.4,Win32,59.82650314,,,,,,,,,,,,,,,,,,,,,,,,,,,,,,,,,,,,,,,,,,,,,,,,,,,,,,,,,,,,,,,,,,,,,,,,,,,"[""k""]",[0.44649999999990087],"[""k""]",[0.44649999999990087],0,0,0,0,0,1,,,,,,,,,,,,,,,,,,,,,,,,,,,,,,,,,,,,,,,,,,,,,,,,,,,,,,,,,,,,,,,,,,,
,,,,101436,001,2023-07-28_15h31.51.872,fluency,2022.2.4,Win32,59.82650314,,,,,,,,,,,,,,,,,,,,,,,9,1,img/B01_09.jpg,CONTROL,Press K as soon as you see a face, ,KJ,,,,,,,,,,,,,,,,,,,,,,,,,,,,,,,,3,0.3269,,,,,,,,,,,,,,,,,,,,,,,space,0.3677,0,79,79,9,1,,,,,,,,,,,,,,,,,,,,,,,,,,,,,,,,,,,,,,,,,,,,,,,,,,,,,,,,,,,,
,,,,101436,001,2023-07-28_15h31.51.872,fluency,2022.2.4,Win32,59.82650314,,,,,,,,,,,,,,,,,,,,,,,,,,,,,,,,,,,,,,,,,,,,,,,,,,,,,,,,,,,,,,,,,,,,,,,,,,,"[""k""]",[0.4407000000178414],"[""k""]",[0.44080000001190456],0,0,0,0,0,1,,,,,,,,,,,,,,,,,,,,,,,,,,,,,,,,,,,,,,,,,,,,,,,,,,,,,,,,,,,,,,,,,,,
,,,,101436,001,2023-07-28_15h31.51.872,fluency,2022.2.4,Win32,59.82650314,,,,,,,,,,,,,,,,,,,,,,,6,4,img/B04_06.jpg,CONTROL,Press K as soon as you see a face, ,KJ,,,,,,,,,,,,,,,,,,,,,,,,,,,,,,,,3,0.5388,,,,,,,,,,,,,,,,,,,,,,,space,0.4231,0,80,80,39,1,,,,,,,,,,,,,,,,,,,,,,,,,,,,,,,,,,,,,,,,,,,,,,,,,,,,,,,,,,,,
,,,,101436,001,2023-07-28_15h31.51.872,fluency,2022.2.4,Win32,59.82650314,,,,,,,,,,,,,,,,,,,,,,,,,,,,,,,,,,,,,,,,,,,,,,,,,,,,,,,,,,,,,,,,,,,,,,,,,,,"[""k""]",[0.2756999999880918],"[""k""]",[0.2756999999880918],0,0,0,0,0,1,,,,,,,,,,,,,,,,,,,,,,,,,,,,,,,,,,,,,,,,,,,,,,,,,,,,,,,,,,,,,,,,,,,
,,,,101436,001,2023-07-28_15h31.51.872,fluency,2022.2.4,Win32,59.82650314,,,,,,,,,,,,,,,,,,,,,,,1,10,img/B10_01.jpg,CONTROL,Press K as soon as you see a face, ,KJ,,,,,,,,,,,,,,,,,,,,,,,,,,,,,,,,3,0.3775,,,,,,,,,,,,,,,,,,,,,,,space,0.2858,0,81,81,100,1,,,,,,,,,,,,,,,,,,,,,,,,,,,,,,,,,,,,,,,,,,,,,,,,,,,,,,,,,,,,
,,,,101436,001,2023-07-28_15h31.51.872,fluency,2022.2.4,Win32,59.82650314,,,,,,,,,,,,,,,,,,,,,,,,,,,,,,,,,,,,,,,,,,,,,,,,,,,,,,,,,,,,,,,,,,,,,,,,,,,"[""k""]",[0.6136000000238937],"[""k""]",[0.6136000000238937],0,0,0,0,0,1,,,,,,,,,,,,,,,,,,,,,,,,,,,,,,,,,,,,,,,,,,,,,,,,,,,,,,,,,,,,,,,,,,,
,,,,101436,001,2023-07-28_15h31.51.872,fluency,2022.2.4,Win32,59.82650314,,,,,,,,,,,,,,,,,,,,,,,6,6,img/B06_06.jpg,CONTROL,Press K as soon as you see a face, ,KJ,,,,,,,,,,,,,,,,,,,,,,,,,,,,,,,,6,0.3522,,,,,,,,,,,,,,,,,,,,,,,space,0.8957,0,82,82,61,1,,,,,,,,,,,,,,,,,,,,,,,,,,,,,,,,,,,,,,,,,,,,,,,,,,,,,,,,,,,,
,,,,101436,001,2023-07-28_15h31.51.872,fluency,2022.2.4,Win32,59.82650314,,,,,,,,,,,,,,,,,,,,,,,,,,,,,,,,,,,,,,,,,,,,,,,,,,,,,,,,,,,,,,,,,,,,,,,,,,,"[""k""]",[0.37440000000594864],"[""k""]",[0.37440000000594864],0,0,0,0,0,1,,,,,,,,,,,,,,,,,,,,,,,,,,,,,,,,,,,,,,,,,,,,,,,,,,,,,,,,,,,,,,,,,,,
,,,,101436,001,2023-07-28_15h31.51.872,fluency,2022.2.4,Win32,59.82650314,,,,,,,,,,,,,,,,,,,,,,,1,4,img/B04_01.jpg,CONTROL,Press K as soon as you see a face, ,KJ,,,,,,,,,,,,,,,,,,,,,,,,,,,,,,,,3,0.4575,,,,,,,,,,,,,,,,,,,,,,,space,0.2288,0,83,83,34,1,,,,,,,,,,,,,,,,,,,,,,,,,,,,,,,,,,,,,,,,,,,,,,,,,,,,,,,,,,,,
,,,,101436,001,2023-07-28_15h31.51.872,fluency,2022.2.4,Win32,59.82650314,,,,,,,,,,,,,,,,,,,,,,,,,,,,,,,,,,,,,,,,,,,,,,,,,,,,,,,,,,,,,,,,,,,,,,,,,,,"[""k""]",[0.42670000001783137],"[""k""]",[0.42670000001783137],0,0,0,0,0,1,,,,,,,,,,,,,,,,,,,,,,,,,,,,,,,,,,,,,,,,,,,,,,,,,,,,,,,,,,,,,,,,,,,
,,,,101436,001,2023-07-28_15h31.51.872,fluency,2022.2.4,Win32,59.82650314,,,,,,,,,,,,,,,,,,,,,,,3,9,img/B09_03.jpg,CONTROL,Press K as soon as you see a face, ,KJ,,,,,,,,,,,,,,,,,,,,,,,,,,,,,,,,3,0.3152,,,,,,,,,,,,,,,,,,,,,,,space,0.2083,0,84,84,91,1,,,,,,,,,,,,,,,,,,,,,,,,,,,,,,,,,,,,,,,,,,,,,,,,,,,,,,,,,,,,
,,,,101436,001,2023-07-28_15h31.51.872,fluency,2022.2.4,Win32,59.82650314,,,,,,,,,,,,,,,,,,,,,,,,,,,,,,,,,,,,,,,,,,,,,,,,,,,,,,,,,,,,,,,,,,,,,,,,,,,"[""k""]",[0.49229999998203766],"[""k""]",[0.49239999997610084],0,0,0,0,0,1,,,,,,,,,,,,,,,,,,,,,,,,,,,,,,,,,,,,,,,,,,,,,,,,,,,,,,,,,,,,,,,,,,,
,,,,101436,001,2023-07-28_15h31.51.872,fluency,2022.2.4,Win32,59.82650314,,,,,,,,,,,,,,,,,,,,,,,7,4,img/B04_07.jpg,CONTROL,Press K as soon as you see a face, ,KJ,,,,,,,,,,,,,,,,,,,,,,,,,,,,,,,,4,0.3495,,,,,,,,,,,,,,,,,,,,,,,space,0.911,0,85,85,40,1,,,,,,,,,,,,,,,,,,,,,,,,,,,,,,,,,,,,,,,,,,,,,,,,,,,,,,,,,,,,
,,,,101436,001,2023-07-28_15h31.51.872,fluency,2022.2.4,Win32,59.82650314,,,,,,,,,,,,,,,,,,,,,,,,,,,,,,,,,,,,,,,,,,,,,,,,,,,,,,,,,,,,,,,,,,,,,,,,,,,"[""k""]",[0.3674000000058868],"[""k""]",[0.36729999998203766],0,0,0,0,0,1,,,,,,,,,,,,,,,,,,,,,,,,,,,,,,,,,,,,,,,,,,,,,,,,,,,,,,,,,,,,,,,,,,,
,,,,101436,001,2023-07-28_15h31.51.872,fluency,2022.2.4,Win32,59.82650314,,,,,,,,,,,,,,,,,,,,,,,10,8,img/B08_10.jpg,CONTROL,Press K as soon as you see a face, ,KJ,,,,,,,,,,,,,,,,,,,,,,,,,,,,,,,,2,0.5194,,,,,,,,,,,,,,,,,,,,,,,space,0.3117,0,86,86,87,1,,,,,,,,,,,,,,,,,,,,,,,,,,,,,,,,,,,,,,,,,,,,,,,,,,,,,,,,,,,,
,,,,101436,001,2023-07-28_15h31.51.872,fluency,2022.2.4,Win32,59.82650314,,,,,,,,,,,,,,,,,,,,,,,,,,,,,,,,,,,,,,,,,,,,,,,,,,,,,,,,,,,,,,,,,,,,,,,,,,,"[""k""]",[0.41290000000594773],"[""k""]",[0.4129999999998972],0,0,0,0,0,1,,,,,,,,,,,,,,,,,,,,,,,,,,,,,,,,,,,,,,,,,,,,,,,,,,,,,,,,,,,,,,,,,,,
,,,,101436,001,2023-07-28_15h31.51.872,fluency,2022.2.4,Win32,59.82650314,,,,,,,,,,,,,,,,,,,,,,,2,8,img/B08_02.jpg,CONTROL,Press K as soon as you see a face, ,KJ,,,,,,,,,,,,,,,,,,,,,,,,,,,,,,,,3,0.7594,,,,,,,,,,,,,,,,,,,,,,,space,0.1939,0,87,87,79,1,,,,,,,,,,,,,,,,,,,,,,,,,,,,,,,,,,,,,,,,,,,,,,,,,,,,,,,,,,,,
,,,,101436,001,2023-07-28_15h31.51.872,fluency,2022.2.4,Win32,59.82650314,,,,,,,,,,,,,,,,,,,,,,,,,,,,,,,,,,,,,,,,,,,,,,,,,,,,,,,,,,,,,,,,,,,,,,,,,,,"[""k""]",[0.37350000000003547],"[""k""]",[0.3734000000059723],0,0,0,0,0,1,,,,,,,,,,,,,,,,,,,,,,,,,,,,,,,,,,,,,,,,,,,,,,,,,,,,,,,,,,,,,,,,,,,
,,,,101436,001,2023-07-28_15h31.51.872,fluency,2022.2.4,Win32,59.82650314,,,,,,,,,,,,,,,,,,,,,,,10,9,img/B09_10.jpg,CONTROL,Press K as soon as you see a face, ,KJ,,,,,,,,,,,,,,,,,,,,,,,,,,,,,,,,4,0.3568,,,,,,,,,,,,,,,,,,,,,,,space,0.1866,0,88,88,98,1,,,,,,,,,,,,,,,,,,,,,,,,,,,,,,,,,,,,,,,,,,,,,,,,,,,,,,,,,,,,
,,,,101436,001,2023-07-28_15h31.51.872,fluency,2022.2.4,Win32,59.82650314,,,,,,,,,,,,,,,,,,,,,,,,,,,,,,,,,,,,,,,,,,,,,,,,,,,,,,,,,,,,,,,,,,,,,,,,,,,"[""k""]",[0.2625000000000455],"[""k""]",[0.2625000000000455],0,0,0,0,0,1,,,,,,,,,,,,,,,,,,,,,,,,,,,,,,,,,,,,,,,,,,,,,,,,,,,,,,,,,,,,,,,,,,,
,,,,101436,001,2023-07-28_15h31.51.872,fluency,2022.2.4,Win32,59.82650314,,,,,,,,,,,,,,,,,,,,,,,2,9,img/B09_02.jpg,CONTROL,Press K as soon as you see a face, ,KJ,,,,,,,,,,,,,,,,,,,,,,,,,,,,,,,,4,0.3316,,,,,,,,,,,,,,,,,,,,,,,space,0.1412,0,89,89,90,1,,,,,,,,,,,,,,,,,,,,,,,,,,,,,,,,,,,,,,,,,,,,,,,,,,,,,,,,,,,,
,,,,101436,001,2023-07-28_15h31.51.872,fluency,2022.2.4,Win32,59.82650314,,,,,,,,,,,,,,,,,,,,,,,,,,,,,,,,,,,,,,,,,,,,,,,,,,,,,,,,,,,,,,,,,,,,,,,,,,,"[""k""]",[0.2939999999999827],"[""k""]",[0.2939999999999827],0,0,0,0,0,1,,,,,,,,,,,,,,,,,,,,,,,,,,,,,,,,,,,,,,,,,,,,,,,,,,,,,,,,,,,,,,,,,,,
,,,,101436,001,2023-07-28_15h31.51.872,fluency,2022.2.4,Win32,59.82650314,,,,,,,,,,,,,,,,,,,,,,,0,2,img/B02_00.jpg,CONTROL,Press K as soon as you see a face, ,KJ,,,,,,,,,,,,,,,,,,,,,,,,,,,,,,,,1,0.3557,,,,,,,,,,,,,,,,,,,,,,,space,0.2445,0,90,90,11,1,,,,,,,,,,,,,,,,,,,,,,,,,,,,,,,,,,,,,,,,,,,,,,,,,,,,,,,,,,,,
,,,,101436,001,2023-07-28_15h31.51.872,fluency,2022.2.4,Win32,59.82650314,,,,,,,,,,,,,,,,,,,,,,,,,,,,,,,,,,,,,,,,,,,,,,,,,,,,,,,,,,,,,,,,,,,,,,,,,,,"[""k""]",[0.2767000000178541],"[""k""]",[0.2767000000178541],0,0,0,0,0,1,,,,,,,,,,,,,,,,,,,,,,,,,,,,,,,,,,,,,,,,,,,,,,,,,,,,,,,,,,,,,,,,,,,
,,,,101436,001,2023-07-28_15h31.51.872,fluency,2022.2.4,Win32,59.82650314,,,,,,,,,,,,,,,,,,,,,,,4,4,img/B04_04.jpg,CONTROL,Press K as soon as you see a face, ,KJ,,,,,,,,,,,,,,,,,,,,,,,,,,,,,,,,4,0.3923,,,,,,,,,,,,,,,,,,,,,,,space,0.202,0,91,91,37,1,,,,,,,,,,,,,,,,,,,,,,,,,,,,,,,,,,,,,,,,,,,,,,,,,,,,,,,,,,,,
,,,,101436,001,2023-07-28_15h31.51.872,fluency,2022.2.4,Win32,59.82650314,,,,,,,,,,,,,,,,,,,,,,,,,,,,,,,,,,,,,,,,,,,,,,,,,,,,,,,,,,,,,,,,,,,,,,,,,,,"[""k""]",[0.6299999999999955],"[""k""]",[0.6299000000059323],0,0,0,0,0,1,,,,,,,,,,,,,,,,,,,,,,,,,,,,,,,,,,,,,,,,,,,,,,,,,,,,,,,,,,,,,,,,,,,
,,,,101436,001,2023-07-28_15h31.51.872,fluency,2022.2.4,Win32,59.82650314,,,,,,,,,,,,,,,,,,,,,,,8,6,img/B06_08.jpg,CONTROL,Press K as soon as you see a face, ,KJ,,,,,,,,,,,,,,,,,,,,,,,,,,,,,,,,5,0.3109,,,,,,,,,,,,,,,,,,,,,,,space,0.4456,0,92,92,63,1,,,,,,,,,,,,,,,,,,,,,,,,,,,,,,,,,,,,,,,,,,,,,,,,,,,,,,,,,,,,
,,,,101436,001,2023-07-28_15h31.51.872,fluency,2022.2.4,Win32,59.82650314,,,,,,,,,,,,,,,,,,,,,,,,,,,,,,,,,,,,,,,,,,,,,,,,,,,,,,,,,,,,,,,,,,,,,,,,,,,"[""k""]",[0.41270000001793505],"[""k""]",[0.41280000001199824],0,0,0,0,0,1,,,,,,,,,,,,,,,,,,,,,,,,,,,,,,,,,,,,,,,,,,,,,,,,,,,,,,,,,,,,,,,,,,,
,,,,101436,001,2023-07-28_15h31.51.872,fluency,2022.2.4,Win32,59.82650314,,,,,,,,,,,,,,,,,,,,,,,3,8,img/B08_03.jpg,CONTROL,Press K as soon as you see a face, ,KJ,,,,,,,,,,,,,,,,,,,,,,,,,,,,,,,,3,0.4458,,,,,,,,,,,,,,,,,,,,,,,space,0.1596,0,93,93,80,1,,,,,,,,,,,,,,,,,,,,,,,,,,,,,,,,,,,,,,,,,,,,,,,,,,,,,,,,,,,,
,,,,101436,001,2023-07-28_15h31.51.872,fluency,2022.2.4,Win32,59.82650314,,,,,,,,,,,,,,,,,,,,,,,,,,,,,,,,,,,,,,,,,,,,,,,,,,,,,,,,,,,,,,,,,,,,,,,,,,,"[""k""]",[0.5784999999999627],"[""k""]",[0.5784999999999627],0,0,0,0,0,1,,,,,,,,,,,,,,,,,,,,,,,,,,,,,,,,,,,,,,,,,,,,,,,,,,,,,,,,,,,,,,,,,,,
,,,,101436,001,2023-07-28_15h31.51.872,fluency,2022.2.4,Win32,59.82650314,,,,,,,,,,,,,,,,,,,,,,,6,9,img/B09_06.jpg,CONTROL,Press K as soon as you see a face, ,KJ,,,,,,,,,,,,,,,,,,,,,,,,,,,,,,,,5,0.4345,,,,,,,,,,,,,,,,,,,,,,,space,0.6409,0,94,94,94,1,,,,,,,,,,,,,,,,,,,,,,,,,,,,,,,,,,,,,,,,,,,,,,,,,,,,,,,,,,,,
,,,,101436,001,2023-07-28_15h31.51.872,fluency,2022.2.4,Win32,59.82650314,,,,,,,,,,,,,,,,,,,,,,,,,,,,,,,,,,,,,,,,,,,,,,,,,,,,,,,,,,,,,,,,,,,,,,,,,,,"[""k""]",[0.3101999999880718],"[""k""]",[0.3101999999880718],0,0,0,0,0,1,,,,,,,,,,,,,,,,,,,,,,,,,,,,,,,,,,,,,,,,,,,,,,,,,,,,,,,,,,,,,,,,,,,
,,,,101436,001,2023-07-28_15h31.51.872,fluency,2022.2.4,Win32,59.82650314,,,,,,,,,,,,,,,,,,,,,,,10,6,img/B06_10.jpg,CONTROL,Press K as soon as you see a face, ,KJ,,,,,,,,,,,,,,,,,,,,,,,,,,,,,,,,5,0.4024,,,,,,,,,,,,,,,,,,,,,,,space,0.2218,0,95,95,65,1,,,,,,,,,,,,,,,,,,,,,,,,,,,,,,,,,,,,,,,,,,,,,,,,,,,,,,,,,,,,
,,,,101436,001,2023-07-28_15h31.51.872,fluency,2022.2.4,Win32,59.82650314,,,,,,,,,,,,,,,,,,,,,,,,,,,,,,,,,,,,,,,,,,,,,,,,,,,,,,,,,,,,,,,,,,,,,,,,,,,"[""k""]",[0.39110000002381184],"[""k""]",[0.39110000002381184],0,0,0,0,0,1,,,,,,,,,,,,,,,,,,,,,,,,,,,,,,,,,,,,,,,,,,,,,,,,,,,,,,,,,,,,,,,,,,,
,,,,101436,001,2023-07-28_15h31.51.872,fluency,2022.2.4,Win32,59.82650314,,,,,,,,,,,,,,,,,,,,,,,0,3,img/B03_00.jpg,CONTROL,Press K as soon as you see a face, ,KJ,,,,,,,,,,,,,,,,,,,,,,,,,,,,,,,,2,0.3269,,,,,,,,,,,,,,,,,,,,,,,space,0.2389,0,96,96,22,1,,,,,,,,,,,,,,,,,,,,,,,,,,,,,,,,,,,,,,,,,,,,,,,,,,,,,,,,,,,,
,,,,101436,001,2023-07-28_15h31.51.872,fluency,2022.2.4,Win32,59.82650314,,,,,,,,,,,,,,,,,,,,,,,,,,,,,,,,,,,,,,,,,,,,,,,,,,,,,,,,,,,,,,,,,,,,,,,,,,,"[""k""]",[0.39929999998207677],"[""k""]",[0.39929999998207677],0,0,0,0,0,1,,,,,,,,,,,,,,,,,,,,,,,,,,,,,,,,,,,,,,,,,,,,,,,,,,,,,,,,,,,,,,,,,,,
,,,,101436,001,2023-07-28_15h31.51.872,fluency,2022.2.4,Win32,59.82650314,,,,,,,,,,,,,,,,,,,,,,,8,5,img/B05_08.jpg,CONTROL,Press K as soon as you see a face, ,KJ,,,,,,,,,,,,,,,,,,,,,,,,,,,,,,,,4,0.3762,,,,,,,,,,,,,,,,,,,,,,,space,0.1684,0,97,97,52,1,,,,,,,,,,,,,,,,,,,,,,,,,,,,,,,,,,,,,,,,,,,,,,,,,,,,,,,,,,,,
,,,,101436,001,2023-07-28_15h31.51.872,fluency,2022.2.4,Win32,59.82650314,,,,,,,,,,,,,,,,,,,,,,,,,,,,,,,,,,,,,,,,,,,,,,,,,,,,,,,,,,,,,,,,,,,,,,,,,,,"[""k""]",[0.29180000001190365],"[""k""]",[0.29170000001784047],0,0,0,0,0,1,,,,,,,,,,,,,,,,,,,,,,,,,,,,,,,,,,,,,,,,,,,,,,,,,,,,,,,,,,,,,,,,,,,
,,,,101436,001,2023-07-28_15h31.51.872,fluency,2022.2.4,Win32,59.82650314,,,,,,,,,,,,,,,,,,,,,,,4,2,img/B02_04.jpg,CONTROL,Press K as soon as you see a face, ,KJ,,,,,,,,,,,,,,,,,,,,,,,,,,,,,,,,3,0.3068,,,,,,,,,,,,,,,,,,,,,,,space,0.1866,0,98,98,15,1,,,,,,,,,,,,,,,,,,,,,,,,,,,,,,,,,,,,,,,,,,,,,,,,,,,,,,,,,,,,
,,,,101436,001,2023-07-28_15h31.51.872,fluency,2022.2.4,Win32,59.82650314,,,,,,,,,,,,,,,,,,,,,,,,,,,,,,,,,,,,,,,,,,,,,,,,,,,,,,,,,,,,,,,,,,,,,,,,,,,"[""k""]",[0.3798000000118691],"[""k""]",[0.37969999998801995],0,0,0,0,0,1,,,,,,,,,,,,,,,,,,,,,,,,,,,,,,,,,,,,,,,,,,,,,,,,,,,,,,,,,,,,,,,,,,,
,,,,101436,001,2023-07-28_15h31.51.872,fluency,2022.2.4,Win32,59.82650314,,,,,,,,,,,,,,,,,,,,,,,10,2,img/B02_10.jpg,CONTROL,Press K as soon as you see a face, ,KJ,,,,,,,,,,,,,,,,,,,,,,,,,,,,,,,,4,0.3947,,,,,,,,,,,,,,,,,,,,,,,space,0.3714,0,99,99,21,1,,,,,,,,,,,,,,,,,,,,,,,,,,,,,,,,,,,,,,,,,,,,,,,,,,,,,,,,,,,,
,,,,101436,001,2023-07-28_15h31.51.872,fluency,2022.2.4,Win32,59.82650314,,,,,,,,,,,,,,,,,,,,,,,,,,,,,,,,,,,,,,,,,,,,,,,,,,,,,,,,,,,,,,,,,,,,,,,,,,,"[""k""]",[0.25760000002378547],"[""k""]",[0.25749999999993634],0,0,0,0,0,1,,,,,,,,,,,,,,,,,,,,,,,,,,,,,,,,,,,,,,,,,,,,,,,,,,,,,,,,,,,,,,,,,,,
,,,,101436,001,2023-07-28_15h31.51.872,fluency,2022.2.4,Win32,59.82650314,,,,,,,,,,,,,,,,,,,,,,,1,3,img/B03_01.jpg,CONTROL,Press K as soon as you see a face, ,KJ,,,,,,,,,,,,,,,,,,,,,,,,,,,,,,,,2,0.3072,,,,,,,,,,,,,,,,,,,,,,,space,0.3968,0,100,100,23,1,,,,,,,,,,,,,,,,,,,,,,,,,,,,,,,,,,,,,,,,,,,,,,,,,,,,,,,,,,,,
,,,,101436,001,2023-07-28_15h31.51.872,fluency,2022.2.4,Win32,59.82650314,,,,,,,,,,,,,,,,,,,,,,,,,,,,,,,,,,,,,,,,,,,,,,,,,,,,,,,,,,,,,,,,,,,,,,,,,,,"[""k""]",[0.32540000000597047],"[""k""]",[0.32540000000597047],0,0,0,0,0,1,,,,,,,,,,,,,,,,,,,,,,,,,,,,,,,,,,,,,,,,,,,,,,,,,,,,,,,,,,,,,,,,,,,
,,,,101436,001,2023-07-28_15h31.51.872,fluency,2022.2.4,Win32,59.82650314,,,,,,,,,,,,,,,,,,,,,,,4,7,img/B07_04.jpg,CONTROL,Press K as soon as you see a face, ,KJ,,,,,,,,,,,,,,,,,,,,,,,,,,,,,,,,3,0.347,,,,,,,,,,,,,,,,,,,,,,,space,0.2921,0,101,101,70,1,,,,,,,,,,,,,,,,,,,,,,,,,,,,,,,,,,,,,,,,,,,,,,,,,,,,,,,,,,,,
,,,,101436,001,2023-07-28_15h31.51.872,fluency,2022.2.4,Win32,59.82650314,,,,,,,,,,,,,,,,,,,,,,,,,,,,,,,,,,,,,,,,,,,,,,,,,,,,,,,,,,,,,,,,,,,,,,,,,,,"[""k""]",[0.4009000000060041],"[""k""]",[0.4009000000060041],0,0,0,0,0,1,,,,,,,,,,,,,,,,,,,,,,,,,,,,,,,,,,,,,,,,,,,,,,,,,,,,,,,,,,,,,,,,,,,
,,,,101436,001,2023-07-28_15h31.51.872,fluency,2022.2.4,Win32,59.82650314,,,,,,,,,,,,,,,,,,,,,,,4,5,img/B05_04.jpg,CONTROL,Press K as soon as you see a face, ,KJ,,,,,,,,,,,,,,,,,,,,,,,,,,,,,,,,3,0.4124,,,,,,,,,,,,,,,,,,,,,,,space,0.238,0,102,102,48,1,,,,,,,,,,,,,,,,,,,,,,,,,,,,,,,,,,,,,,,,,,,,,,,,,,,,,,,,,,,,
,,,,101436,001,2023-07-28_15h31.51.872,fluency,2022.2.4,Win32,59.82650314,,,,,,,,,,,,,,,,,,,,,,,,,,,,,,,,,,,,,,,,,,,,,,,,,,,,,,,,,,,,,,,,,,,,,,,,,,,"[""k""]",[0.3596000000238746],"[""k""]",[0.3596000000238746],0,0,0,0,0,1,,,,,,,,,,,,,,,,,,,,,,,,,,,,,,,,,,,,,,,,,,,,,,,,,,,,,,,,,,,,,,,,,,,
,,,,101436,001,2023-07-28_15h31.51.872,fluency,2022.2.4,Win32,59.82650314,,,,,,,,,,,,,,,,,,,,,,,9,7,img/B07_09.jpg,CONTROL,Press K as soon as you see a face, ,KJ,,,,,,,,,,,,,,,,,,,,,,,,,,,,,,,,6,0.3327,,,,,,,,,,,,,,,,,,,,,,,space,0.4214,0,103,103,75,1,,,,,,,,,,,,,,,,,,,,,,,,,,,,,,,,,,,,,,,,,,,,,,,,,,,,,,,,,,,,
,,,,101436,001,2023-07-28_15h31.51.872,fluency,2022.2.4,Win32,59.82650314,,,,,,,,,,,,,,,,,,,,,,,,,,,,,,,,,,,,,,,,,,,,,,,,,,,,,,,,,,,,,,,,,,,,,,,,,,,"[""k""]",[0.36930000001189],"[""k""]",[0.36930000001189],0,0,0,0,0,1,,,,,,,,,,,,,,,,,,,,,,,,,,,,,,,,,,,,,,,,,,,,,,,,,,,,,,,,,,,,,,,,,,,
,,,,101436,001,2023-07-28_15h31.51.872,fluency,2022.2.4,Win32,59.82650314,,,,,,,,,,,,,,,,,,,,,,,5,2,img/B02_05.jpg,CONTROL,Press K as soon as you see a face, ,KJ,,,,,,,,,,,,,,,,,,,,,,,,,,,,,,,,3,0.3678,,,,,,,,,,,,,,,,,,,,,,,space,0.425,0,104,104,16,1,,,,,,,,,,,,,,,,,,,,,,,,,,,,,,,,,,,,,,,,,,,,,,,,,,,,,,,,,,,,
,,,,101436,001,2023-07-28_15h31.51.872,fluency,2022.2.4,Win32,59.82650314,,,,,,,,,,,,,,,,,,,,,,,,,,,,,,,,,,,,,,,,,,,,,,,,,,,,,,,,,,,,,,,,,,,,,,,,,,,"[""k""]",[0.39159999999401407],"[""k""]",[0.39169999998807725],0,0,0,0,0,1,,,,,,,,,,,,,,,,,,,,,,,,,,,,,,,,,,,,,,,,,,,,,,,,,,,,,,,,,,,,,,,,,,,
,,,,101436,001,2023-07-28_15h31.51.872,fluency,2022.2.4,Win32,59.82650314,,,,,,,,,,,,,,,,,,,,,,,1,8,img/B08_01.jpg,CONTROL,Press K as soon as you see a face, ,KJ,,,,,,,,,,,,,,,,,,,,,,,,,,,,,,,,3,0.5167,,,,,,,,,,,,,,,,,,,,,,,space,0.2611,0,105,105,78,1,,,,,,,,,,,,,,,,,,,,,,,,,,,,,,,,,,,,,,,,,,,,,,,,,,,,,,,,,,,,
,,,,101436,001,2023-07-28_15h31.51.872,fluency,2022.2.4,Win32,59.82650314,,,,,,,,,,,,,,,,,,,,,,,,,,,,,,,,,,,,,,,,,,,,,,,,,,,,,,,,,,,,,,,,,,,,,,,,,,,"[""k""]",[0.5806000000237646],"[""k""]",[0.5804999999999154],0,0,0,0,0,1,,,,,,,,,,,,,,,,,,,,,,,,,,,,,,,,,,,,,,,,,,,,,,,,,,,,,,,,,,,,,,,,,,,
,,,,101436,001,2023-07-28_15h31.51.872,fluency,2022.2.4,Win32,59.82650314,,,,,,,,,,,,,,,,,,,,,,,9,8,img/B08_09.jpg,CONTROL,Press K as soon as you see a face, ,KJ,,,,,,,,,,,,,,,,,,,,,,,,,,,,,,,,3,0.4937,,,,,,,,,,,,,,,,,,,,,,,space,0.5398,0,106,106,86,1,,,,,,,,,,,,,,,,,,,,,,,,,,,,,,,,,,,,,,,,,,,,,,,,,,,,,,,,,,,,
,,,,101436,001,2023-07-28_15h31.51.872,fluency,2022.2.4,Win32,59.82650314,,,,,,,,,,,,,,,,,,,,,,,,,,,,,,,,,,,,,,,,,,,,,,,,,,,,,,,,,,,,,,,,,,,,,,,,,,,"[""k""]",[0.3180000000000973],"[""k""]",[0.3180999999940468],0,0,0,0,0,1,,,,,,,,,,,,,,,,,,,,,,,,,,,,,,,,,,,,,,,,,,,,,,,,,,,,,,,,,,,,,,,,,,,
,,,,101436,001,2023-07-28_15h31.51.872,fluency,2022.2.4,Win32,59.82650314,,,,,,,,,,,,,,,,,,,,,,,2,6,img/B06_02.jpg,CONTROL,Press K as soon as you see a face, ,KJ,,,,,,,,,,,,,,,,,,,,,,,,,,,,,,,,3,0.3405,,,,,,,,,,,,,,,,,,,,,,,space,0.1897,0,107,107,57,1,,,,,,,,,,,,,,,,,,,,,,,,,,,,,,,,,,,,,,,,,,,,,,,,,,,,,,,,,,,,
,,,,101436,001,2023-07-28_15h31.51.872,fluency,2022.2.4,Win32,59.82650314,,,,,,,,,,,,,,,,,,,,,,,,,,,,,,,,,,,,,,,,,,,,,,,,,,,,,,,,,,,,,,,,,,,,,,,,,,,"[""k""]",[0.4262999999821204],"[""k""]",[0.4263999999761836],0,0,0,0,0,1,,,,,,,,,,,,,,,,,,,,,,,,,,,,,,,,,,,,,,,,,,,,,,,,,,,,,,,,,,,,,,,,,,,
,,,,101436,001,2023-07-28_15h31.51.872,fluency,2022.2.4,Win32,59.82650314,,,,,,,,,,,,,,,,,,,,,,,3,10,img/B10_03.jpg,CONTROL,Press K as soon as you see a face, ,KJ,,,,,,,,,,,,,,,,,,,,,,,,,,,,,,,,3,1.2578,,,,,,,,,,,,,,,,,,,,,,,space,0.3058,0,108,108,102,1,,,,,,,,,,,,,,,,,,,,,,,,,,,,,,,,,,,,,,,,,,,,,,,,,,,,,,,,,,,,
,,,,101436,001,2023-07-28_15h31.51.872,fluency,2022.2.4,Win32,59.82650314,,,,,,,,,,,,,,,,,,,,,,,,,,,,,,,,,,,,,,,,,,,,,,,,,,,,,,,,,,,,,,,,,,,,,,,,,,,"[""k""]",[0.25900000000001455],"[""k""]",[0.25890000000595137],0,0,0,0,0,1,,,,,,,,,,,,,,,,,,,,,,,,,,,,,,,,,,,,,,,,,,,,,,,,,,,,,,,,,,,,,,,,,,,
,,,,101436,001,2023-07-28_15h31.51.872,fluency,2022.2.4,Win32,59.82650314,,,,,,,,,,,,,,,,,,,,,,,5,5,img/B05_05.jpg,CONTROL,Press K as soon as you see a face, ,KJ,,,,,,,,,,,,,,,,,,,,,,,,,,,,,,,,3,0.302,,,,,,,,,,,,,,,,,,,,,,,space,0.174,0,109,109,49,1,,,,,,,,,,,,,,,,,,,,,,,,,,,,,,,,,,,,,,,,,,,,,,,,,,,,,,,,,,,,
,,,,101436,001,2023-07-28_15h31.51.872,fluency,2022.2.4,Win32,59.82650314,,,,,,,,,,,,,,,,,,,,,,,,,,,,,,,,,,,,,,,,,,,,,,,,,,,,,,,,,,,,,,,,,,,,,,,,,,,,,,,,,,,,,,,,,,,,space,4.9681,,,,,,,,,,,,,,,,,,,,,,,,,,,,,,,,,,,,,,,,,,,,,,,,,,,,,,,,,,
,,,,101436,001,2023-07-28_15h31.51.872,fluency,2022.2.4,Win32,59.82650314,,,,,,,,,,,,,,,,,,,,,,,,,,,,,,,,,,,,,,,,,,,,,,,,,,,,,,,,,,,,,,,,,,,,,,,,,,,,,,,,,,,,,,,,,,,,,,5,15.5207,4,19.3639,4,24.5379,5,26.5196,1,[0.7862000000178568],[0.7862000000178568],,,,,,,,,,,,,,,,,,,,,,,,,,,,,,,,,,,,,,,,,,,,,,,
,,,,101436,001,2023-07-28_15h31.51.872,fluency,2022.2.4,Win32,59.82650314,,,,,,,,,,,,,,,,,,,,,,,,,,,,,,,,,,,,,,,,,,,,,,,,,,,,,,,,,,,,,,,,,,,,,,,,,,,,,,,,,,,,,,,,,,,,,,,,,,,,,,,,,5,2.8993,5,5.5594,6,8.6032,5,10.5983,1,[0.46819999998808726],[0.46819999998808726],,,,,,,,,,,,,,,,,,,,,,,,,,,,,,,,,,,,
,,,,101436,001,2023-07-28_15h31.51.872,fluency,2022.2.4,Win32,59.82650314,,,,,,,,,,,,,,,,,,,,,,,,,,,,,,,,,,,,,,,,,,,,,,,,,,,,,,,,,,,,,,,,,,,,,,,,,,,,,,,,,,,,,,,,,,,,,,,,,,,,,,,,,,,,,,,,,,,,5,3.6699,4,8.6659,6,11.7097,5,13.7318,1,[0.6245000000000118],[0.6245000000000118],,,,,,,,,,,,,,,,,,,,,,,,,
,,,,101436,001,2023-07-28_15h31.51.872,fluency,2022.2.4,Win32,59.82650314,,,,,,,,,,,,,,,,,,,,,,,,,,,,,,,,,,,,,,,,,,,,,,,,,,,,,,,,,,,,,,,,,,,,,,,,,,,,,,,,,,,,,,,,,,,,,,,,,,,,,,,,,,,,,,,,,,,,,,,,,,,,,,,4,2.1388,4,6.2554,4,7.9243,1,[0.8411999999881346],[0.8411999999881346],,,,,,,,,,,,,,,,
,,,,101436,001,2023-07-28_15h31.51.872,fluency,2022.2.4,Win32,59.82650314,,,,,,,,,,,,,,,,,,,,,,,,,,,,,,,,,,,,,,,,,,,,,,,,,,,,,,,,,,,,,,,,,,,,,,,,,,,,,,,,,,,,,,,,,,,,,,,,,,,,,,,,,,,,,,,,,,,,,,,,,,,,,,,,,,,,,,,,2,3.0843,5,3.8701,,1,[0.9869000000059032],[0.9869999999999663],,,,,,,,
,,,,101436,001,2023-07-28_15h31.51.872,fluency,2022.2.4,Win32,59.82650314,,,,,,,,,,,,,,,,,,,,,,,,,,,,,,,,,,,,,,,,,,,,,,,,,,,,,,,,,,,,,,,,,,,,,,,,,,,,,,,,,,,,,,,,,,,,,,,,,,,,,,,,,,,,,,,,,,,,,,,,,,,,,,,,,,,,,,,,,,,,,,,,"I think I was aware of some of the faces being reused, so was automatically responding with the same rating (or at leas trying to).",1,[37.242099999994025],[37.242099999994025],,,,
,,,,101436,001,2023-07-28_15h31.51.872,fluency,2022.2.4,Win32,59.82650314,,,,,,,,,,,,,,,,,,,,,,,,,,,,,,,,,,,,,,,,,,,,,,,,,,,,,,,,,,,,,,,,,,,,,,,,,,,,,,,,,,,,,,,,,,,,,,,,,,,,,,,,,,,,,,,,,,,,,,,,,,,,,,,,,,,,,,,,,,,,,,,,,,,,space,31.9383,,
,,,,101436,001,2023-07-28_15h31.51.872,fluency,2022.2.4,Win32,59.82650314,,,,,,,,,,,,,,,,,,,,,,,,,,,,,,,,,,,,,,,,,,,,,,,,,,,,,,,,,,,,,,,,,,,,,,,,,,,,,,,,,,,,,,,,,,,,,,,,,,,,,,,,,,,,,,,,,,,,,,,,,,,,,,,,,,,,,,,,,,,,,,,,,,,,,,tab,22.9563
