idTextbox.text,welcomeDone.numClicks,welcomeDone.timesOn,welcomeDone.timesOff,participant,session,date,expName,psychopyVersion,OS,frameRate,consent_advance.keys,consent_advance.rt,consent_advance_2.keys,consent_advance_2.rt,consentClick.x,consentClick.y,consentClick.leftButton,consentClick.midButton,consentClick.rightButton,consentClick.time,consentClick.clicked_name,instr_advance_3.keys,instr_advance_3.rt,spec_instr_adv.keys,spec_instr_adv.rt,spec_instr_adv2.keys,spec_instr_adv2.rt,instrLoop.thisRepN,instrLoop.thisTrialN,instrLoop.thisN,instrLoop.thisIndex,instrLoop.ran,steps,fams,face_file,cond,instr,term,key_map,attnKeyResp1.keys,attnKeyResp1.rt,q1.thisRepN,q1.thisTrialN,q1.thisN,q1.thisIndex,q1.ran,attnKeyResp2.keys,attnKeyResp2.rt,q2.thisRepN,q2.thisTrialN,q2.thisN,q2.thisIndex,q2.ran,failureAcknowledged.keys,failureAcknowledged.rt,attnFailure.thisRepN,attnFailure.thisTrialN,attnFailure.thisN,attnFailure.thisIndex,attnFailure.ran,attnLoop.thisRepN,attnLoop.thisTrialN,attnLoop.thisN,attnLoop.thisIndex,attnLoop.ran,instr_advance_2.keys,instr_advance_2.rt,spec_instr_adv_2.keys,spec_instr_adv_2.rt,rate_instr_adv2.keys,rate_instr_adv2.rt,reshowInstr.thisRepN,reshowInstr.thisTrialN,reshowInstr.thisN,reshowInstr.thisIndex,reshowInstr.ran,attnKeyResp3.keys,attnKeyResp3.rt,q3.thisRepN,q3.thisTrialN,q3.thisN,q3.thisIndex,q3.ran,practiceStart.keys,practiceStart.rt,practiceResp.keys,timesRedone,redo_keypress.keys,redo_keypress.rt,practiceFailed.thisRepN,practiceFailed.thisTrialN,practiceFailed.thisN,practiceFailed.thisIndex,practiceFailed.ran,practiceRepeat.thisRepN,practiceRepeat.thisTrialN,practiceRepeat.thisN,practiceRepeat.thisIndex,practiceRepeat.ran,practiceResp.rt,attrRating.keys,attrRating.rt,practiceTrial.thisRepN,practiceTrial.thisTrialN,practiceTrial.thisN,practiceTrial.thisIndex,practiceTrial.ran,key_resp_3.keys,key_resp_3.rt,attnChecker.thisRepN,attnChecker.thisTrialN,attnChecker.thisN,attnChecker.thisIndex,attnChecker.ran,catResp.keys,catAllKeys.keys,globalTimesRedone,redo_feedback_loop.thisRepN,redo_feedback_loop.thisTrialN,redo_feedback_loop.thisN,redo_feedback_loop.thisIndex,redo_feedback_loop.ran,repeat_loop.thisRepN,repeat_loop.thisTrialN,repeat_loop.thisN,repeat_loop.thisIndex,repeat_loop.ran,catResp.rt,catAllKeys.rt,contResp.keys,contResp.rt,trials.thisRepN,trials.thisTrialN,trials.thisN,trials.thisIndex,trials.ran,contResp_2.keys,contResp_2.rt,respQ1.response,respQ1.rt,respQ2.response,respQ2.rt,respQ3.response,respQ3.rt,respQ4.response,respQ4.rt,surveyContinue1.numClicks,surveyContinue1.timesOn,surveyContinue1.timesOff,respQ5.response,respQ5.rt,respQ6.response,respQ6.rt,respQ7.response,respQ7.rt,respQ8.response,respQ8.rt,surveyContinue2.numClicks,surveyContinue2.timesOn,surveyContinue2.timesOff,respQ9.response,respQ9.rt,respQ10.response,respQ10.rt,respQ11.response,respQ11.rt,respQ12.response,respQ12.rt,surveyContinue3.numClicks,surveyContinue3.timesOn,surveyContinue3.timesOff,respQ13.response,respQ13.rt,respQ14.response,respQ14.rt,respQ15.response,respQ15.rt,surveyContinue4.numClicks,surveyContinue4.timesOn,surveyContinue4.timesOff,respAge.response,respAge.rt,genderResp1.response,genderResp1.rt,genderResp2.text,demogexitClick.numClicks,demogexitClick.timesOn,demogexitClick.timesOff,textbox.text,openAnswerClick.numClicks,openAnswerClick.timesOn,openAnswerClick.timesOff,debriefEnd.keys,debriefEnd.rt
611668ee04c02e7be6c6a643,1,[77.72300000000001],[77.72400000000002],112377,001,2023-07-28_03h07.50.219,fluency,2022.2.4,Win32,60.0240096,,,,,,,,,,,,,,,,,,,,,,,,,,,,,,,,,,,,,,,,,,,,,,,,,,,,,,,,,,,,,,,,,,,,,,,,,,,,,,,,,,,,,,,,,,,,,,,,,,,,,,,,,,,,,,,,,,,,,,,,,,,,,,,,,,,,,,,,,,,,,,,,,,,,,,,,,,,,,,,,,,,,,,,,,,,,,,,,,,,,,,,,
,,,,112377,001,2023-07-28_03h07.50.219,fluency,2022.2.4,Win32,60.0240096,space,131.81,,,,,,,,,,,,,,,,,,,,,,,,,,,,,,,,,,,,,,,,,,,,,,,,,,,,,,,,,,,,,,,,,,,,,,,,,,,,,,,,,,,,,,,,,,,,,,,,,,,,,,,,,,,,,,,,,,,,,,,,,,,,,,,,,,,,,,,,,,,,,,,,,,,,,,,,,,,,,,,,,,,,,,,,,,,,,,,,,,,,,,
,,,,112377,001,2023-07-28_03h07.50.219,fluency,2022.2.4,Win32,60.0240096,,,space,2.033,,,,,,,,,,,,,,,,,,,,,,,,,,,,,,,,,,,,,,,,,,,,,,,,,,,,,,,,,,,,,,,,,,,,,,,,,,,,,,,,,,,,,,,,,,,,,,,,,,,,,,,,,,,,,,,,,,,,,,,,,,,,,,,,,,,,,,,,,,,,,,,,,,,,,,,,,,,,,,,,,,,,,,,,,,,,,,,,,,,,
,,,,112377,001,2023-07-28_03h07.50.219,fluency,2022.2.4,Win32,60.0240096,,,,,0.327964861,-0.356515373,1,0,0,24.285,iAgree,,,,,,,,,,,,,,,,,,,,,,,,,,,,,,,,,,,,,,,,,,,,,,,,,,,,,,,,,,,,,,,,,,,,,,,,,,,,,,,,,,,,,,,,,,,,,,,,,,,,,,,,,,,,,,,,,,,,,,,,,,,,,,,,,,,,,,,,,,,,,,,,,,,,,,,,,,,,,,,,,,,,,,,,,,,,,
,,,,112377,001,2023-07-28_03h07.50.219,fluency,2022.2.4,Win32,60.0240096,,,,,,,,,,,,space,231.922,,,,,,,,,,,,,,,,,,,,,,,,,,,,,,,,,,,,,,,,,,,,,,,,,,,,,,,,,,,,,,,,,,,,,,,,,,,,,,,,,,,,,,,,,,,,,,,,,,,,,,,,,,,,,,,,,,,,,,,,,,,,,,,,,,,,,,,,,,,,,,,,,,,,,,,,,,,,,,,,,,,,,,,,,,,
,,,,112377,001,2023-07-28_03h07.50.219,fluency,2022.2.4,Win32,60.0240096,,,,,,,,,,,,,,space,45.013,space,0.259,0,0,0,22,1,0,3,img/B03_00.jpg,MF,Press J if the face is MALE and K if the face is FEMALE, ,JK,,,,,,,,,,,,,,,,,,,,,,,,,,,,,,,,,,,,,,,,,,,,,,,,,,,,,,,,,,,,,,,,,,,,,,,,,,,,,,,,,,,,,,,,,,,,,,,,,,,,,,,,,,,,,,,,,,,,,,,,,,,,,,,,,,,,,,,,,,,,,,,,,,,,,,,,,,,
,,,,112377,001,2023-07-28_03h07.50.219,fluency,2022.2.4,Win32,60.0240096,,,,,,,,,,,,,,,,,,,,,,,,,,,,,,c,21.076,0,0,0,0,1,,,,,,,,,,,,,,,,,,,,,,,,,,,,,,,,,,,,,,,,,,,,,,,,,,,,,,,,,,,,,,,,,,,,,,,,,,,,,,,,,,,,,,,,,,,,,,,,,,,,,,,,,,,,,,,,,,,,,,,,,,,,,,,,,,,,,,,,,,,,,,,,,,,,
,,,,112377,001,2023-07-28_03h07.50.219,fluency,2022.2.4,Win32,60.0240096,,,,,,,,,,,,,,,,,,,,,,,,,,,,,,,,,,,,,c,0.004,0,0,0,0,1,,,,,,,,,,,,,,,,,,,,,,,,,,,,,,,,,,,,,,,,,,,,,,,,,,,,,,,,,,,,,,,,,,,,,,,,,,,,,,,,,,,,,,,,,,,,,,,,,,,,,,,,,,,,,,,,,,,,,,,,,,,,,,,,,,,,,,,,,,,,,
,,,,112377,001,2023-07-28_03h07.50.219,fluency,2022.2.4,Win32,60.0240096,,,,,,,,,,,,,,,,,,,,,,,,,,,,,,,,,,,,,,,,,,,,space,5.214,0,0,0,0,1,,,,,,,,,,,,,,,,,,,,,,,,,,,,,,,,,,,,,,,,,,,,,,,,,,,,,,,,,,,,,,,,,,,,,,,,,,,,,,,,,,,,,,,,,,,,,,,,,,,,,,,,,,,,,,,,,,,,,,,,,,,,,,,,,,,,,,
,,,,112377,001,2023-07-28_03h07.50.219,fluency,2022.2.4,Win32,60.0240096,,,,,,,,,,,,,,,,,,,,,,,,,,,,,,,,,,,,,,,,,,,,,,,,,,,0,0,0,0,1,,,,,,,,,,,,,,,,,,,,,,,,,,,,,,,,,,,,,,,,,,,,,,,,,,,,,,,,,,,,,,,,,,,,,,,,,,,,,,,,,,,,,,,,,,,,,,,,,,,,,,,,,,,,,,,,,,,,,,,,,,,,,,,,,
,,,,112377,001,2023-07-28_03h07.50.219,fluency,2022.2.4,Win32,60.0240096,,,,,,,,,,,,,,,,,,,,,,,,,,,,,,,,,,,,,,,,,,,,,,,,,,,,,,,,space,15.514,space,11.714,space,10.991,0,0,0,0,1,,,,,,,,,,,,,,,,,,,,,,,,,,,,,,,,,,,,,,,,,,,,,,,,,,,,,,,,,,,,,,,,,,,,,,,,,,,,,,,,,,,,,,,,,,,,,,,,,,,,,,,,,,,,,,,,,,,,,,
,,,,112377,001,2023-07-28_03h07.50.219,fluency,2022.2.4,Win32,60.0240096,,,,,,,,,,,,,,,,,,,,,,,,,,,,,,c,6.818,0,0,0,0,1,,,,,,,,,,,,,,,,,,,,,,,,,,,,,,,,,,,,,,,,,,,,,,,,,,,,,,,,,,,,,,,,,,,,,,,,,,,,,,,,,,,,,,,,,,,,,,,,,,,,,,,,,,,,,,,,,,,,,,,,,,,,,,,,,,,,,,,,,,,,,,,,,,,,
,,,,112377,001,2023-07-28_03h07.50.219,fluency,2022.2.4,Win32,60.0240096,,,,,,,,,,,,,,,,,,,,,,,,,,,,,,,,,,,,,a,6.082,0,0,0,0,1,,,,,,,,,,,,,,,,,,,,,,,,,,,,,,,,,,,,,,,,,,,,,,,,,,,,,,,,,,,,,,,,,,,,,,,,,,,,,,,,,,,,,,,,,,,,,,,,,,,,,,,,,,,,,,,,,,,,,,,,,,,,,,,,,,,,,,,,,,,,,
,,,,112377,001,2023-07-28_03h07.50.219,fluency,2022.2.4,Win32,60.0240096,,,,,,,,,,,,,,,,,,,,,,,,,,,,,,,,,,,,,,,,,,,,,,,,,,,,,,,,,,,,,,,,,,,c,12.731,0,0,0,0,1,,,,,,,,,,,,,,,,,,,,,,,,,,,,,,,,,,,,,,,,,,,,,,,,,,,,,,,,,,,,,,,,,,,,,,,,,,,,,,,,,,,,,,,,,,,,,,,,,,,,,,,,,,,,,,,
,,,,112377,001,2023-07-28_03h07.50.219,fluency,2022.2.4,Win32,60.0240096,,,,,,,,,,,,,,,,,,,,,,,,,,,,,,,,,,,,,,,,,,,,,,,,,,,,,,,,,,,,,,,,,,,,,,,,,,space,1.833,,1,space,15.784,0,0,0,0,1,,,,,,,,,,,,,,,,,,,,,,,,,,,,,,,,,,,,,,,,,,,,,,,,,,,,,,,,,,,,,,,,,,,,,,,,,,,,,,,,,,,,,,,,,,,,,,,,,,,,
,,,,112377,001,2023-07-28_03h07.50.219,fluency,2022.2.4,Win32,60.0240096,,,,,,,,,,,,,,,,,,,,,,,,,,,,,,,,,,,,,,,,,,,,,,,,,,,,,,,,,,,,,,,,,,,,,,,,,,,,,,,,,,,,,0,0,0,0,1,,,,,,,,,,,,,,,,,,,,,,,,,,,,,,,,,,,,,,,,,,,,,,,,,,,,,,,,,,,,,,,,,,,,,,,,,,,,,,,,,,,,,,,,,,,,,,,
,,,,112377,001,2023-07-28_03h07.50.219,fluency,2022.2.4,Win32,60.0240096,,,,,,,,,,,,,,,,,,,,,,,,,,,,,,,,,,,,,,,,,,,,,,,,,,,,,,,,,,,,,,,,,,,,,,,,,,,,j,1,,,,,,,,1,0,1,0,1,0.988,,,,,,,,,,,,,,,,,,,,,,,,,,,,,,,,,,,,,,,,,,,,,,,,,,,,,,,,,,,,,,,,,,,,,,,,,,,,,,,,,,,,,,,,,,,,,,
,,,,112377,001,2023-07-28_03h07.50.219,fluency,2022.2.4,Win32,60.0240096,,,,,,,,,,,,,,,,,,,,,,,,,,,,,,,,,,,,,,,,,,,,,,,,,,,,,,,,,,,,,,,,,,,,,,,,,,,,,,,,,,,,,,,,,,,6,4.847,0,0,0,0,1,,,,,,,,,,,,,,,,,,,,,,,,,,,,,,,,,,,,,,,,,,,,,,,,,,,,,,,,,,,,,,,,,,,,,,,,,,,,,,,,,,,,,,,
,,,,112377,001,2023-07-28_03h07.50.219,fluency,2022.2.4,Win32,60.0240096,,,,,,,,,,,,,,,,,,,,,,,,,,,,,,,,,,,,,,,,,,,,,,,,,,,,,,,,,,,,,,,,,,,,,,,,,,,,,,,,,,,,,,,,,,,,,,,,,,space,850.468,0,0,0,0,1,,,,,,,,,,,,,,,,,,,,,,,,,,,,,,,,,,,,,,,,,,,,,,,,,,,,,,,,,,,,,,,,,,,,,,,,,,,,,,,,
,,,,112377,001,2023-07-28_03h07.50.219,fluency,2022.2.4,Win32,60.0240096,,,,,,,,,,,,,,,,,,,,,,,,,,,,,,,,,,,,,,,,,,,,,,,,,,,,,,,,,,,,,,,,,,,,,,,,,,,,,,space,4.368,,,,,,,,,,,,,,,,,,,,,,,,,,,,2,0,0,0,0,1,,,,,,,,,,,,,,,,,,,,,,,,,,,,,,,,,,,,,,,,,,,,,,,,,,,,,,,,,,,,,,,,,,,,,,,,
,,,,112377,001,2023-07-28_03h07.50.219,fluency,2022.2.4,Win32,60.0240096,,,,,,,,,,,,,,,,,,,,,,,,,,,,,,,,,,,,,,,,,,,,,,,,,,,,,,,,,,,,,,,,,,,,,,,,,,,,,,,,,,,,,,,,,,,,,,,,,,,,,,,,,,,,,,,,,0,0,0,0,1,,,,,,,,,,,,,,,,,,,,,,,,,,,,,,,,,,,,,,,,,,,,,,,,,,,,,,,,,,,,,,,,,,,
,,,,112377,001,2023-07-28_03h07.50.219,fluency,2022.2.4,Win32,60.0240096,,,,,,,,,,,,,,,,,,,,,,,,,,,,,,,,,,,,,,,,,,,,,,,,,,,,,,,,,,,,,,,,,,,,,,,,,,,,,,,,,,,,,,,,,,,,,,,,,,,,,,,,,"[""k""]","[""k""]",2,,,,,,1,0,1,0,1,[0.6870000000001255],[0.6870000000001255],,,,,,,,,,,,,,,,,,,,,,,,,,,,,,,,,,,,,,,,,,,,,,,,,,,,,,,,,,,,,,,,,
,,,,112377,001,2023-07-28_03h07.50.219,fluency,2022.2.4,Win32,60.0240096,,,,,,,,,,,,,,,,,,,,,,,9,7,img/B07_09.jpg,MF,Press J if the face is MALE and K if the face is FEMALE, ,JK,,,,,,,,,,,,,,,,,,,,,,,,,,,,,,,,,,,,,,,,,,,,,,,,,,,,,,,,,,,,,,5,2.671,,,,,,,,,,,,,,,,,,,,,,,,,,,,space,5.687,0,0,0,75,1,,,,,,,,,,,,,,,,,,,,,,,,,,,,,,,,,,,,,,,,,,,,,,,,,,,,,,,,,,
,,,,112377,001,2023-07-28_03h07.50.219,fluency,2022.2.4,Win32,60.0240096,,,,,,,,,,,,,,,,,,,,,,,,,,,,,,,,,,,,,,,,,,,,,,,,,,,,,,,,,,,,,,,,,,,,,,,,,,,,,,,,,,,,,,,,,,,,,,,,,,,,,,,,,"[""k""]","[""k""]",2,,,,,,0,0,0,0,1,[1.8579999999999472],[1.8579999999999472],,,,,,,,,,,,,,,,,,,,,,,,,,,,,,,,,,,,,,,,,,,,,,,,,,,,,,,,,,,,,,,,,
,,,,112377,001,2023-07-28_03h07.50.219,fluency,2022.2.4,Win32,60.0240096,,,,,,,,,,,,,,,,,,,,,,,10,1,img/B01_10.jpg,MF,Press J if the face is MALE and K if the face is FEMALE, ,JK,,,,,,,,,,,,,,,,,,,,,,,,,,,,,,,,,,,,,,,,,,,,,,,,,,,,,,,,,,,,,,3,2.906,,,,,,,,,,,,,,,,,,,,,,,,,,,,space,4.499,0,1,1,10,1,,,,,,,,,,,,,,,,,,,,,,,,,,,,,,,,,,,,,,,,,,,,,,,,,,,,,,,,,,
,,,,112377,001,2023-07-28_03h07.50.219,fluency,2022.2.4,Win32,60.0240096,,,,,,,,,,,,,,,,,,,,,,,,,,,,,,,,,,,,,,,,,,,,,,,,,,,,,,,,,,,,,,,,,,,,,,,,,,,,,,,,,,,,,,,,,,,,,,,,,,,,,,,,,"[""k""]","[""k""]",2,,,,,,0,0,0,0,1,[1.7860000000000582],[1.7860000000000582],,,,,,,,,,,,,,,,,,,,,,,,,,,,,,,,,,,,,,,,,,,,,,,,,,,,,,,,,,,,,,,,,
,,,,112377,001,2023-07-28_03h07.50.219,fluency,2022.2.4,Win32,60.0240096,,,,,,,,,,,,,,,,,,,,,,,9,10,img/B10_09.jpg,MF,Press J if the face is MALE and K if the face is FEMALE, ,JK,,,,,,,,,,,,,,,,,,,,,,,,,,,,,,,,,,,,,,,,,,,,,,,,,,,,,,,,,,,,,,4,3.33,,,,,,,,,,,,,,,,,,,,,,,,,,,,space,1.642,0,2,2,108,1,,,,,,,,,,,,,,,,,,,,,,,,,,,,,,,,,,,,,,,,,,,,,,,,,,,,,,,,,,
,,,,112377,001,2023-07-28_03h07.50.219,fluency,2022.2.4,Win32,60.0240096,,,,,,,,,,,,,,,,,,,,,,,,,,,,,,,,,,,,,,,,,,,,,,,,,,,,,,,,,,,,,,,,,,,,,,,,,,,,,,,,,,,,,,,,,,,,,,,,,,,,,,,,,"[""k""]","[""k""]",2,,,,,,0,0,0,0,1,[1.7409999999999854],[1.7409999999999854],,,,,,,,,,,,,,,,,,,,,,,,,,,,,,,,,,,,,,,,,,,,,,,,,,,,,,,,,,,,,,,,,
,,,,112377,001,2023-07-28_03h07.50.219,fluency,2022.2.4,Win32,60.0240096,,,,,,,,,,,,,,,,,,,,,,,10,5,img/B05_10.jpg,MF,Press J if the face is MALE and K if the face is FEMALE, ,JK,,,,,,,,,,,,,,,,,,,,,,,,,,,,,,,,,,,,,,,,,,,,,,,,,,,,,,,,,,,,,,4,2.243,,,,,,,,,,,,,,,,,,,,,,,,,,,,space,2.369,0,3,3,54,1,,,,,,,,,,,,,,,,,,,,,,,,,,,,,,,,,,,,,,,,,,,,,,,,,,,,,,,,,,
,,,,112377,001,2023-07-28_03h07.50.219,fluency,2022.2.4,Win32,60.0240096,,,,,,,,,,,,,,,,,,,,,,,,,,,,,,,,,,,,,,,,,,,,,,,,,,,,,,,,,,,,,,,,,,,,,,,,,,,,,,space,3.465,,,,,,,,,,,,,,,,,,,,,,,,,,,,3,0,0,0,0,1,,,,,,,,,,,,,,,,,,,,,,,,,,,,,,,,,,,,,,,,,,,,,,,,,,,,,,,,,,,,,,,,,,,,,,,,
,,,,112377,001,2023-07-28_03h07.50.219,fluency,2022.2.4,Win32,60.0240096,,,,,,,,,,,,,,,,,,,,,,,,,,,,,,,,,,,,,,,,,,,,,,,,,,,,,,,,,,,,,,,,,,,,,,,,,,,,,,,,,,,,,,,,,,,,,,,,,,,,,,,,,,,,,,,,,0,0,0,0,1,,,,,,,,,,,,,,,,,,,,,,,,,,,,,,,,,,,,,,,,,,,,,,,,,,,,,,,,,,,,,,,,,,,
,,,,112377,001,2023-07-28_03h07.50.219,fluency,2022.2.4,Win32,60.0240096,,,,,,,,,,,,,,,,,,,,,,,,,,,,,,,,,,,,,,,,,,,,,,,,,,,,,,,,,,,,,,,,,,,,,,,,,,,,,,,,,,,,,,,,,,,,,,,,,,,,,,,,,"[""k""]","[""k""]",3,,,,,,1,0,1,0,1,[0.4179999999998927],[0.4179999999998927],,,,,,,,,,,,,,,,,,,,,,,,,,,,,,,,,,,,,,,,,,,,,,,,,,,,,,,,,,,,,,,,,
,,,,112377,001,2023-07-28_03h07.50.219,fluency,2022.2.4,Win32,60.0240096,,,,,,,,,,,,,,,,,,,,,,,6,10,img/B10_06.jpg,MF,Press J if the face is MALE and K if the face is FEMALE, ,JK,,,,,,,,,,,,,,,,,,,,,,,,,,,,,,,,,,,,,,,,,,,,,,,,,,,,,,,,,,,,,,5,1.928,,,,,,,,,,,,,,,,,,,,,,,,,,,,space,1.27,0,4,4,105,1,,,,,,,,,,,,,,,,,,,,,,,,,,,,,,,,,,,,,,,,,,,,,,,,,,,,,,,,,,
,,,,112377,001,2023-07-28_03h07.50.219,fluency,2022.2.4,Win32,60.0240096,,,,,,,,,,,,,,,,,,,,,,,,,,,,,,,,,,,,,,,,,,,,,,,,,,,,,,,,,,,,,,,,,,,,,,,,,,,,,,,,,,,,,,,,,,,,,,,,,,,,,,,,,"[""k""]","[""k""]",3,,,,,,0,0,0,0,1,[1.3410000000001219],[1.3410000000001219],,,,,,,,,,,,,,,,,,,,,,,,,,,,,,,,,,,,,,,,,,,,,,,,,,,,,,,,,,,,,,,,,
,,,,112377,001,2023-07-28_03h07.50.219,fluency,2022.2.4,Win32,60.0240096,,,,,,,,,,,,,,,,,,,,,,,6,9,img/B09_06.jpg,MF,Press J if the face is MALE and K if the face is FEMALE, ,JK,,,,,,,,,,,,,,,,,,,,,,,,,,,,,,,,,,,,,,,,,,,,,,,,,,,,,,,,,,,,,,5,1.956,,,,,,,,,,,,,,,,,,,,,,,,,,,,space,1.168,0,5,5,94,1,,,,,,,,,,,,,,,,,,,,,,,,,,,,,,,,,,,,,,,,,,,,,,,,,,,,,,,,,,
,,,,112377,001,2023-07-28_03h07.50.219,fluency,2022.2.4,Win32,60.0240096,,,,,,,,,,,,,,,,,,,,,,,,,,,,,,,,,,,,,,,,,,,,,,,,,,,,,,,,,,,,,,,,,,,,,,,,,,,,,,,,,,,,,,,,,,,,,,,,,,,,,,,,,"[""j""]","[""j""]",3,,,,,,0,0,0,0,1,[0.724999999999909],[0.724999999999909],,,,,,,,,,,,,,,,,,,,,,,,,,,,,,,,,,,,,,,,,,,,,,,,,,,,,,,,,,,,,,,,,
,,,,112377,001,2023-07-28_03h07.50.219,fluency,2022.2.4,Win32,60.0240096,,,,,,,,,,,,,,,,,,,,,,,10,8,img/B08_10.jpg,MF,Press J if the face is MALE and K if the face is FEMALE, ,JK,,,,,,,,,,,,,,,,,,,,,,,,,,,,,,,,,,,,,,,,,,,,,,,,,,,,,,,,,,,,,,4,2.088,,,,,,,,,,,,,,,,,,,,,,,,,,,,space,0.947,0,6,6,87,1,,,,,,,,,,,,,,,,,,,,,,,,,,,,,,,,,,,,,,,,,,,,,,,,,,,,,,,,,,
,,,,112377,001,2023-07-28_03h07.50.219,fluency,2022.2.4,Win32,60.0240096,,,,,,,,,,,,,,,,,,,,,,,,,,,,,,,,,,,,,,,,,,,,,,,,,,,,,,,,,,,,,,,,,,,,,,,,,,,,,,,,,,,,,,,,,,,,,,,,,,,,,,,,,"[""j""]","[""j""]",3,,,,,,0,0,0,0,1,[0.9939999999999145],[0.9939999999999145],,,,,,,,,,,,,,,,,,,,,,,,,,,,,,,,,,,,,,,,,,,,,,,,,,,,,,,,,,,,,,,,,
,,,,112377,001,2023-07-28_03h07.50.219,fluency,2022.2.4,Win32,60.0240096,,,,,,,,,,,,,,,,,,,,,,,5,9,img/B09_05.jpg,MF,Press J if the face is MALE and K if the face is FEMALE, ,JK,,,,,,,,,,,,,,,,,,,,,,,,,,,,,,,,,,,,,,,,,,,,,,,,,,,,,,,,,,,,,,4,1.533,,,,,,,,,,,,,,,,,,,,,,,,,,,,space,1.079,0,7,7,93,1,,,,,,,,,,,,,,,,,,,,,,,,,,,,,,,,,,,,,,,,,,,,,,,,,,,,,,,,,,
,,,,112377,001,2023-07-28_03h07.50.219,fluency,2022.2.4,Win32,60.0240096,,,,,,,,,,,,,,,,,,,,,,,,,,,,,,,,,,,,,,,,,,,,,,,,,,,,,,,,,,,,,,,,,,,,,,,,,,,,,,,,,,,,,,,,,,,,,,,,,,,,,,,,,,,3,,,,,,0,0,0,0,1,,,,,,,,,,,,,,,,,,,,,,,,,,,,,,,,,,,,,,,,,,,,,,,,,,,,,,,,,,,,,,,,,,,
,,,,112377,001,2023-07-28_03h07.50.219,fluency,2022.2.4,Win32,60.0240096,,,,,,,,,,,,,,,,,,,,,,,8,7,img/B07_08.jpg,MF,Press J if the face is MALE and K if the face is FEMALE, ,JK,,,,,,,,,,,,,,,,,,,,,,,,,,,,,,,,,,,,,,,,,,,,,,,,,,,,,,,,,,,,,,6,3.662,,,,,,,,,,,,,,,,,,,,,,,,,,,,space,1.116,0,8,8,74,1,,,,,,,,,,,,,,,,,,,,,,,,,,,,,,,,,,,,,,,,,,,,,,,,,,,,,,,,,,
,,,,112377,001,2023-07-28_03h07.50.219,fluency,2022.2.4,Win32,60.0240096,,,,,,,,,,,,,,,,,,,,,,,,,,,,,,,,,,,,,,,,,,,,,,,,,,,,,,,,,,,,,,,,,,,,,,,,,,,,,,,,,,,,,,,,,,,,,,,,,,,,,,,,,"[""j""]","[""h"",""j""]",3,,,,,,0,0,0,0,1,[2.316000000000031],"[1.775000000000091,2.316000000000031]",,,,,,,,,,,,,,,,,,,,,,,,,,,,,,,,,,,,,,,,,,,,,,,,,,,,,,,,,,,,,,,,,
,,,,112377,001,2023-07-28_03h07.50.219,fluency,2022.2.4,Win32,60.0240096,,,,,,,,,,,,,,,,,,,,,,,2,3,img/B03_02.jpg,MF,Press J if the face is MALE and K if the face is FEMALE, ,JK,,,,,,,,,,,,,,,,,,,,,,,,,,,,,,,,,,,,,,,,,,,,,,,,,,,,,,,,,,,,,,6,2.1,,,,,,,,,,,,,,,,,,,,,,,,,,,,space,0.953,0,9,9,24,1,,,,,,,,,,,,,,,,,,,,,,,,,,,,,,,,,,,,,,,,,,,,,,,,,,,,,,,,,,
,,,,112377,001,2023-07-28_03h07.50.219,fluency,2022.2.4,Win32,60.0240096,,,,,,,,,,,,,,,,,,,,,,,,,,,,,,,,,,,,,,,,,,,,,,,,,,,,,,,,,,,,,,,,,,,,,,,,,,,,,,,,,,,,,,,,,,,,,,,,,,,,,,,,,"[""k""]","[""k""]",3,,,,,,0,0,0,0,1,[0.8880000000001473],[0.8880000000001473],,,,,,,,,,,,,,,,,,,,,,,,,,,,,,,,,,,,,,,,,,,,,,,,,,,,,,,,,,,,,,,,,
,,,,112377,001,2023-07-28_03h07.50.219,fluency,2022.2.4,Win32,60.0240096,,,,,,,,,,,,,,,,,,,,,,,7,10,img/B10_07.jpg,MF,Press J if the face is MALE and K if the face is FEMALE, ,JK,,,,,,,,,,,,,,,,,,,,,,,,,,,,,,,,,,,,,,,,,,,,,,,,,,,,,,,,,,,,,,4,2.305,,,,,,,,,,,,,,,,,,,,,,,,,,,,space,1.05,0,10,10,106,1,,,,,,,,,,,,,,,,,,,,,,,,,,,,,,,,,,,,,,,,,,,,,,,,,,,,,,,,,,
,,,,112377,001,2023-07-28_03h07.50.219,fluency,2022.2.4,Win32,60.0240096,,,,,,,,,,,,,,,,,,,,,,,,,,,,,,,,,,,,,,,,,,,,,,,,,,,,,,,,,,,,,,,,,,,,,,,,,,,,,,,,,,,,,,,,,,,,,,,,,,,,,,,,,"[""j""]","[""j""]",3,,,,,,0,0,0,0,1,[0.9339999999999691],[0.9339999999999691],,,,,,,,,,,,,,,,,,,,,,,,,,,,,,,,,,,,,,,,,,,,,,,,,,,,,,,,,,,,,,,,,
,,,,112377,001,2023-07-28_03h07.50.219,fluency,2022.2.4,Win32,60.0240096,,,,,,,,,,,,,,,,,,,,,,,2,1,img/B01_02.jpg,MF,Press J if the face is MALE and K if the face is FEMALE, ,JK,,,,,,,,,,,,,,,,,,,,,,,,,,,,,,,,,,,,,,,,,,,,,,,,,,,,,,,,,,,,,,5,1.611,,,,,,,,,,,,,,,,,,,,,,,,,,,,space,0.802,0,11,11,2,1,,,,,,,,,,,,,,,,,,,,,,,,,,,,,,,,,,,,,,,,,,,,,,,,,,,,,,,,,,
,,,,112377,001,2023-07-28_03h07.50.219,fluency,2022.2.4,Win32,60.0240096,,,,,,,,,,,,,,,,,,,,,,,,,,,,,,,,,,,,,,,,,,,,,,,,,,,,,,,,,,,,,,,,,,,,,,,,,,,,,,,,,,,,,,,,,,,,,,,,,,,,,,,,,"[""k""]","[""k""]",3,,,,,,0,0,0,0,1,[0.7190000000000509],[0.7190000000000509],,,,,,,,,,,,,,,,,,,,,,,,,,,,,,,,,,,,,,,,,,,,,,,,,,,,,,,,,,,,,,,,,
,,,,112377,001,2023-07-28_03h07.50.219,fluency,2022.2.4,Win32,60.0240096,,,,,,,,,,,,,,,,,,,,,,,4,8,img/B08_04.jpg,MF,Press J if the face is MALE and K if the face is FEMALE, ,JK,,,,,,,,,,,,,,,,,,,,,,,,,,,,,,,,,,,,,,,,,,,,,,,,,,,,,,,,,,,,,,5,1.32,,,,,,,,,,,,,,,,,,,,,,,,,,,,space,1.003,0,12,12,81,1,,,,,,,,,,,,,,,,,,,,,,,,,,,,,,,,,,,,,,,,,,,,,,,,,,,,,,,,,,
,,,,112377,001,2023-07-28_03h07.50.219,fluency,2022.2.4,Win32,60.0240096,,,,,,,,,,,,,,,,,,,,,,,,,,,,,,,,,,,,,,,,,,,,,,,,,,,,,,,,,,,,,,,,,,,,,,,,,,,,,,,,,,,,,,,,,,,,,,,,,,,,,,,,,"[""k""]","[""k""]",3,,,,,,0,0,0,0,1,[0.8789999999999054],[0.8789999999999054],,,,,,,,,,,,,,,,,,,,,,,,,,,,,,,,,,,,,,,,,,,,,,,,,,,,,,,,,,,,,,,,,
,,,,112377,001,2023-07-28_03h07.50.219,fluency,2022.2.4,Win32,60.0240096,,,,,,,,,,,,,,,,,,,,,,,7,2,img/B02_07.jpg,MF,Press J if the face is MALE and K if the face is FEMALE, ,JK,,,,,,,,,,,,,,,,,,,,,,,,,,,,,,,,,,,,,,,,,,,,,,,,,,,,,,,,,,,,,,7,0.924,,,,,,,,,,,,,,,,,,,,,,,,,,,,space,1.113,0,13,13,18,1,,,,,,,,,,,,,,,,,,,,,,,,,,,,,,,,,,,,,,,,,,,,,,,,,,,,,,,,,,
,,,,112377,001,2023-07-28_03h07.50.219,fluency,2022.2.4,Win32,60.0240096,,,,,,,,,,,,,,,,,,,,,,,,,,,,,,,,,,,,,,,,,,,,,,,,,,,,,,,,,,,,,,,,,,,,,,,,,,,,,,,,,,,,,,,,,,,,,,,,,,,,,,,,,"[""k""]","[""k""]",3,,,,,,0,0,0,0,1,[0.8719999999998436],[0.8719999999998436],,,,,,,,,,,,,,,,,,,,,,,,,,,,,,,,,,,,,,,,,,,,,,,,,,,,,,,,,,,,,,,,,
,,,,112377,001,2023-07-28_03h07.50.219,fluency,2022.2.4,Win32,60.0240096,,,,,,,,,,,,,,,,,,,,,,,10,9,img/B09_10.jpg,MF,Press J if the face is MALE and K if the face is FEMALE, ,JK,,,,,,,,,,,,,,,,,,,,,,,,,,,,,,,,,,,,,,,,,,,,,,,,,,,,,,,,,,,,,,5,1.023,,,,,,,,,,,,,,,,,,,,,,,,,,,,space,0.754,0,14,14,98,1,,,,,,,,,,,,,,,,,,,,,,,,,,,,,,,,,,,,,,,,,,,,,,,,,,,,,,,,,,
,,,,112377,001,2023-07-28_03h07.50.219,fluency,2022.2.4,Win32,60.0240096,,,,,,,,,,,,,,,,,,,,,,,,,,,,,,,,,,,,,,,,,,,,,,,,,,,,,,,,,,,,,,,,,,,,,,,,,,,,,,,,,,,,,,,,,,,,,,,,,,,,,,,,,"[""j""]","[""j""]",3,,,,,,0,0,0,0,1,[1.009999999999991],[1.009999999999991],,,,,,,,,,,,,,,,,,,,,,,,,,,,,,,,,,,,,,,,,,,,,,,,,,,,,,,,,,,,,,,,,
,,,,112377,001,2023-07-28_03h07.50.219,fluency,2022.2.4,Win32,60.0240096,,,,,,,,,,,,,,,,,,,,,,,1,5,img/B05_01.jpg,MF,Press J if the face is MALE and K if the face is FEMALE, ,JK,,,,,,,,,,,,,,,,,,,,,,,,,,,,,,,,,,,,,,,,,,,,,,,,,,,,,,,,,,,,,,6,1.894,,,,,,,,,,,,,,,,,,,,,,,,,,,,space,1.002,0,15,15,45,1,,,,,,,,,,,,,,,,,,,,,,,,,,,,,,,,,,,,,,,,,,,,,,,,,,,,,,,,,,
,,,,112377,001,2023-07-28_03h07.50.219,fluency,2022.2.4,Win32,60.0240096,,,,,,,,,,,,,,,,,,,,,,,,,,,,,,,,,,,,,,,,,,,,,,,,,,,,,,,,,,,,,,,,,,,,,,,,,,,,,,,,,,,,,,,,,,,,,,,,,,,,,,,,,"[""j""]","[""j""]",3,,,,,,0,0,0,0,1,[0.8379999999999654],[0.8389999999999418],,,,,,,,,,,,,,,,,,,,,,,,,,,,,,,,,,,,,,,,,,,,,,,,,,,,,,,,,,,,,,,,,
,,,,112377,001,2023-07-28_03h07.50.219,fluency,2022.2.4,Win32,60.0240096,,,,,,,,,,,,,,,,,,,,,,,4,4,img/B04_04.jpg,MF,Press J if the face is MALE and K if the face is FEMALE, ,JK,,,,,,,,,,,,,,,,,,,,,,,,,,,,,,,,,,,,,,,,,,,,,,,,,,,,,,,,,,,,,,5,2.045,,,,,,,,,,,,,,,,,,,,,,,,,,,,space,1.04,0,16,16,37,1,,,,,,,,,,,,,,,,,,,,,,,,,,,,,,,,,,,,,,,,,,,,,,,,,,,,,,,,,,
,,,,112377,001,2023-07-28_03h07.50.219,fluency,2022.2.4,Win32,60.0240096,,,,,,,,,,,,,,,,,,,,,,,,,,,,,,,,,,,,,,,,,,,,,,,,,,,,,,,,,,,,,,,,,,,,,,,,,,,,,,,,,,,,,,,,,,,,,,,,,,,,,,,,,"[""k""]","[""k""]",3,,,,,,0,0,0,0,1,[0.8920000000000528],[0.8920000000000528],,,,,,,,,,,,,,,,,,,,,,,,,,,,,,,,,,,,,,,,,,,,,,,,,,,,,,,,,,,,,,,,,
,,,,112377,001,2023-07-28_03h07.50.219,fluency,2022.2.4,Win32,60.0240096,,,,,,,,,,,,,,,,,,,,,,,5,5,img/B05_05.jpg,MF,Press J if the face is MALE and K if the face is FEMALE, ,JK,,,,,,,,,,,,,,,,,,,,,,,,,,,,,,,,,,,,,,,,,,,,,,,,,,,,,,,,,,,,,,6,1.827,,,,,,,,,,,,,,,,,,,,,,,,,,,,space,1.3,0,17,17,49,1,,,,,,,,,,,,,,,,,,,,,,,,,,,,,,,,,,,,,,,,,,,,,,,,,,,,,,,,,,
,,,,112377,001,2023-07-28_03h07.50.219,fluency,2022.2.4,Win32,60.0240096,,,,,,,,,,,,,,,,,,,,,,,,,,,,,,,,,,,,,,,,,,,,,,,,,,,,,,,,,,,,,,,,,,,,,,,,,,,,,,,,,,,,,,,,,,,,,,,,,,,,,,,,,"[""j""]","[""j""]",3,,,,,,0,0,0,0,1,[1.0169999999998254],[1.0169999999998254],,,,,,,,,,,,,,,,,,,,,,,,,,,,,,,,,,,,,,,,,,,,,,,,,,,,,,,,,,,,,,,,,
,,,,112377,001,2023-07-28_03h07.50.219,fluency,2022.2.4,Win32,60.0240096,,,,,,,,,,,,,,,,,,,,,,,2,2,img/B02_02.jpg,MF,Press J if the face is MALE and K if the face is FEMALE, ,JK,,,,,,,,,,,,,,,,,,,,,,,,,,,,,,,,,,,,,,,,,,,,,,,,,,,,,,,,,,,,,,5,0.766,,,,,,,,,,,,,,,,,,,,,,,,,,,,space,0.784,0,18,18,13,1,,,,,,,,,,,,,,,,,,,,,,,,,,,,,,,,,,,,,,,,,,,,,,,,,,,,,,,,,,
,,,,112377,001,2023-07-28_03h07.50.219,fluency,2022.2.4,Win32,60.0240096,,,,,,,,,,,,,,,,,,,,,,,,,,,,,,,,,,,,,,,,,,,,,,,,,,,,,,,,,,,,,,,,,,,,,,,,,,,,,,,,,,,,,,,,,,,,,,,,,,,,,,,,,"[""k""]","[""k""]",3,,,,,,0,0,0,0,1,[0.9480000000000928],[0.9480000000000928],,,,,,,,,,,,,,,,,,,,,,,,,,,,,,,,,,,,,,,,,,,,,,,,,,,,,,,,,,,,,,,,,
,,,,112377,001,2023-07-28_03h07.50.219,fluency,2022.2.4,Win32,60.0240096,,,,,,,,,,,,,,,,,,,,,,,6,4,img/B04_06.jpg,MF,Press J if the face is MALE and K if the face is FEMALE, ,JK,,,,,,,,,,,,,,,,,,,,,,,,,,,,,,,,,,,,,,,,,,,,,,,,,,,,,,,,,,,,,,6,1.55,,,,,,,,,,,,,,,,,,,,,,,,,,,,space,1.2,0,19,19,39,1,,,,,,,,,,,,,,,,,,,,,,,,,,,,,,,,,,,,,,,,,,,,,,,,,,,,,,,,,,
,,,,112377,001,2023-07-28_03h07.50.219,fluency,2022.2.4,Win32,60.0240096,,,,,,,,,,,,,,,,,,,,,,,,,,,,,,,,,,,,,,,,,,,,,,,,,,,,,,,,,,,,,,,,,,,,,,,,,,,,,,,,,,,,,,,,,,,,,,,,,,,,,,,,,"[""k""]","[""k""]",3,,,,,,0,0,0,0,1,[0.79300000000012],[0.79300000000012],,,,,,,,,,,,,,,,,,,,,,,,,,,,,,,,,,,,,,,,,,,,,,,,,,,,,,,,,,,,,,,,,
,,,,112377,001,2023-07-28_03h07.50.219,fluency,2022.2.4,Win32,60.0240096,,,,,,,,,,,,,,,,,,,,,,,6,3,img/B03_06.jpg,MF,Press J if the face is MALE and K if the face is FEMALE, ,JK,,,,,,,,,,,,,,,,,,,,,,,,,,,,,,,,,,,,,,,,,,,,,,,,,,,,,,,,,,,,,,6,0.546,,,,,,,,,,,,,,,,,,,,,,,,,,,,space,2.185,0,20,20,28,1,,,,,,,,,,,,,,,,,,,,,,,,,,,,,,,,,,,,,,,,,,,,,,,,,,,,,,,,,,
,,,,112377,001,2023-07-28_03h07.50.219,fluency,2022.2.4,Win32,60.0240096,,,,,,,,,,,,,,,,,,,,,,,,,,,,,,,,,,,,,,,,,,,,,,,,,,,,,,,,,,,,,,,,,,,,,,,,,,,,,,,,,,,,,,,,,,,,,,,,,,,,,,,,,"[""k""]","[""k""]",3,,,,,,0,0,0,0,1,[0.831000000000131],[0.831000000000131],,,,,,,,,,,,,,,,,,,,,,,,,,,,,,,,,,,,,,,,,,,,,,,,,,,,,,,,,,,,,,,,,
,,,,112377,001,2023-07-28_03h07.50.219,fluency,2022.2.4,Win32,60.0240096,,,,,,,,,,,,,,,,,,,,,,,7,3,img/B03_07.jpg,MF,Press J if the face is MALE and K if the face is FEMALE, ,JK,,,,,,,,,,,,,,,,,,,,,,,,,,,,,,,,,,,,,,,,,,,,,,,,,,,,,,,,,,,,,,6,1.735,,,,,,,,,,,,,,,,,,,,,,,,,,,,space,0.621,0,21,21,29,1,,,,,,,,,,,,,,,,,,,,,,,,,,,,,,,,,,,,,,,,,,,,,,,,,,,,,,,,,,
,,,,112377,001,2023-07-28_03h07.50.219,fluency,2022.2.4,Win32,60.0240096,,,,,,,,,,,,,,,,,,,,,,,,,,,,,,,,,,,,,,,,,,,,,,,,,,,,,,,,,,,,,,,,,,,,,,,,,,,,,,,,,,,,,,,,,,,,,,,,,,,,,,,,,"[""j""]","[""j""]",3,,,,,,0,0,0,0,1,[1.4580000000000837],[1.45900000000006],,,,,,,,,,,,,,,,,,,,,,,,,,,,,,,,,,,,,,,,,,,,,,,,,,,,,,,,,,,,,,,,,
,,,,112377,001,2023-07-28_03h07.50.219,fluency,2022.2.4,Win32,60.0240096,,,,,,,,,,,,,,,,,,,,,,,3,1,img/B01_03.jpg,MF,Press J if the face is MALE and K if the face is FEMALE, ,JK,,,,,,,,,,,,,,,,,,,,,,,,,,,,,,,,,,,,,,,,,,,,,,,,,,,,,,,,,,,,,,5,1.88,,,,,,,,,,,,,,,,,,,,,,,,,,,,space,0.951,0,22,22,3,1,,,,,,,,,,,,,,,,,,,,,,,,,,,,,,,,,,,,,,,,,,,,,,,,,,,,,,,,,,
,,,,112377,001,2023-07-28_03h07.50.219,fluency,2022.2.4,Win32,60.0240096,,,,,,,,,,,,,,,,,,,,,,,,,,,,,,,,,,,,,,,,,,,,,,,,,,,,,,,,,,,,,,,,,,,,,,,,,,,,,,space,96.079,,,,,,,,,,,,,,,,,,,,,,,,,,,,4,0,0,0,0,1,,,,,,,,,,,,,,,,,,,,,,,,,,,,,,,,,,,,,,,,,,,,,,,,,,,,,,,,,,,,,,,,,,,,,,,,
,,,,112377,001,2023-07-28_03h07.50.219,fluency,2022.2.4,Win32,60.0240096,,,,,,,,,,,,,,,,,,,,,,,,,,,,,,,,,,,,,,,,,,,,,,,,,,,,,,,,,,,,,,,,,,,,,,,,,,,,,,,,,,,,,,,,,,,,,,,,,,,,,,,,,,,,,,,,,0,0,0,0,1,,,,,,,,,,,,,,,,,,,,,,,,,,,,,,,,,,,,,,,,,,,,,,,,,,,,,,,,,,,,,,,,,,,
,,,,112377,001,2023-07-28_03h07.50.219,fluency,2022.2.4,Win32,60.0240096,,,,,,,,,,,,,,,,,,,,,,,,,,,,,,,,,,,,,,,,,,,,,,,,,,,,,,,,,,,,,,,,,,,,,,,,,,,,,,,,,,,,,,,,,,,,,,,,,,,,,,,,,"[""k""]","[""k""]",4,,,,,,1,0,1,0,1,[0.8420000000000982],[0.8420000000000982],,,,,,,,,,,,,,,,,,,,,,,,,,,,,,,,,,,,,,,,,,,,,,,,,,,,,,,,,,,,,,,,,
,,,,112377,001,2023-07-28_03h07.50.219,fluency,2022.2.4,Win32,60.0240096,,,,,,,,,,,,,,,,,,,,,,,2,5,img/B05_02.jpg,MF,Press J if the face is MALE and K if the face is FEMALE, ,JK,,,,,,,,,,,,,,,,,,,,,,,,,,,,,,,,,,,,,,,,,,,,,,,,,,,,,,,,,,,,,,6,3.158,,,,,,,,,,,,,,,,,,,,,,,,,,,,space,0.843,0,23,23,46,1,,,,,,,,,,,,,,,,,,,,,,,,,,,,,,,,,,,,,,,,,,,,,,,,,,,,,,,,,,
,,,,112377,001,2023-07-28_03h07.50.219,fluency,2022.2.4,Win32,60.0240096,,,,,,,,,,,,,,,,,,,,,,,,,,,,,,,,,,,,,,,,,,,,,,,,,,,,,,,,,,,,,,,,,,,,,,,,,,,,,,,,,,,,,,,,,,,,,,,,,,,,,,,,,"[""k""]","[""k""]",4,,,,,,0,0,0,0,1,[1.0370000000000346],[1.0370000000000346],,,,,,,,,,,,,,,,,,,,,,,,,,,,,,,,,,,,,,,,,,,,,,,,,,,,,,,,,,,,,,,,,
,,,,112377,001,2023-07-28_03h07.50.219,fluency,2022.2.4,Win32,60.0240096,,,,,,,,,,,,,,,,,,,,,,,4,9,img/B09_04.jpg,MF,Press J if the face is MALE and K if the face is FEMALE, ,JK,,,,,,,,,,,,,,,,,,,,,,,,,,,,,,,,,,,,,,,,,,,,,,,,,,,,,,,,,,,,,,6,1.432,,,,,,,,,,,,,,,,,,,,,,,,,,,,space,0.6,0,24,24,92,1,,,,,,,,,,,,,,,,,,,,,,,,,,,,,,,,,,,,,,,,,,,,,,,,,,,,,,,,,,
,,,,112377,001,2023-07-28_03h07.50.219,fluency,2022.2.4,Win32,60.0240096,,,,,,,,,,,,,,,,,,,,,,,,,,,,,,,,,,,,,,,,,,,,,,,,,,,,,,,,,,,,,,,,,,,,,,,,,,,,,,,,,,,,,,,,,,,,,,,,,,,,,,,,,"[""k""]","[""k""]",4,,,,,,0,0,0,0,1,[0.8799999999998818],[0.8799999999998818],,,,,,,,,,,,,,,,,,,,,,,,,,,,,,,,,,,,,,,,,,,,,,,,,,,,,,,,,,,,,,,,,
,,,,112377,001,2023-07-28_03h07.50.219,fluency,2022.2.4,Win32,60.0240096,,,,,,,,,,,,,,,,,,,,,,,5,1,img/B01_05.jpg,MF,Press J if the face is MALE and K if the face is FEMALE, ,JK,,,,,,,,,,,,,,,,,,,,,,,,,,,,,,,,,,,,,,,,,,,,,,,,,,,,,,,,,,,,,,6,1.405,,,,,,,,,,,,,,,,,,,,,,,,,,,,space,0.608,0,25,25,5,1,,,,,,,,,,,,,,,,,,,,,,,,,,,,,,,,,,,,,,,,,,,,,,,,,,,,,,,,,,
,,,,112377,001,2023-07-28_03h07.50.219,fluency,2022.2.4,Win32,60.0240096,,,,,,,,,,,,,,,,,,,,,,,,,,,,,,,,,,,,,,,,,,,,,,,,,,,,,,,,,,,,,,,,,,,,,,,,,,,,,,,,,,,,,,,,,,,,,,,,,,,,,,,,,"[""k""]","[""k"",""space""]",4,,,,,,0,0,0,0,1,[1.0360000000000582],"[1.0350000000000819,2.155999999999949]",,,,,,,,,,,,,,,,,,,,,,,,,,,,,,,,,,,,,,,,,,,,,,,,,,,,,,,,,,,,,,,,,
,,,,112377,001,2023-07-28_03h07.50.219,fluency,2022.2.4,Win32,60.0240096,,,,,,,,,,,,,,,,,,,,,,,4,10,img/B10_04.jpg,MF,Press J if the face is MALE and K if the face is FEMALE, ,JK,,,,,,,,,,,,,,,,,,,,,,,,,,,,,,,,,,,,,,,,,,,,,,,,,,,,,,,,,,,,,,5,1.618,,,,,,,,,,,,,,,,,,,,,,,,,,,,space,0.532,0,26,26,103,1,,,,,,,,,,,,,,,,,,,,,,,,,,,,,,,,,,,,,,,,,,,,,,,,,,,,,,,,,,
,,,,112377,001,2023-07-28_03h07.50.219,fluency,2022.2.4,Win32,60.0240096,,,,,,,,,,,,,,,,,,,,,,,,,,,,,,,,,,,,,,,,,,,,,,,,,,,,,,,,,,,,,,,,,,,,,,,,,,,,,,,,,,,,,,,,,,,,,,,,,,,,,,,,,"[""k""]","[""k""]",4,,,,,,0,0,0,0,1,[0.8440000000000509],[0.8440000000000509],,,,,,,,,,,,,,,,,,,,,,,,,,,,,,,,,,,,,,,,,,,,,,,,,,,,,,,,,,,,,,,,,
,,,,112377,001,2023-07-28_03h07.50.219,fluency,2022.2.4,Win32,60.0240096,,,,,,,,,,,,,,,,,,,,,,,9,3,img/B03_09.jpg,MF,Press J if the face is MALE and K if the face is FEMALE, ,JK,,,,,,,,,,,,,,,,,,,,,,,,,,,,,,,,,,,,,,,,,,,,,,,,,,,,,,,,,,,,,,6,1.595,,,,,,,,,,,,,,,,,,,,,,,,,,,,space,0.58,0,27,27,31,1,,,,,,,,,,,,,,,,,,,,,,,,,,,,,,,,,,,,,,,,,,,,,,,,,,,,,,,,,,
,,,,112377,001,2023-07-28_03h07.50.219,fluency,2022.2.4,Win32,60.0240096,,,,,,,,,,,,,,,,,,,,,,,,,,,,,,,,,,,,,,,,,,,,,,,,,,,,,,,,,,,,,,,,,,,,,,,,,,,,,,,,,,,,,,,,,,,,,,,,,,,,,,,,,"[""k""]","[""k""]",4,,,,,,0,0,0,0,1,[2.4249999999999545],[2.425999999999931],,,,,,,,,,,,,,,,,,,,,,,,,,,,,,,,,,,,,,,,,,,,,,,,,,,,,,,,,,,,,,,,,
,,,,112377,001,2023-07-28_03h07.50.219,fluency,2022.2.4,Win32,60.0240096,,,,,,,,,,,,,,,,,,,,,,,8,10,img/B10_08.jpg,MF,Press J if the face is MALE and K if the face is FEMALE, ,JK,,,,,,,,,,,,,,,,,,,,,,,,,,,,,,,,,,,,,,,,,,,,,,,,,,,,,,,,,,,,,,7,1.483,,,,,,,,,,,,,,,,,,,,,,,,,,,,space,0.967,0,28,28,107,1,,,,,,,,,,,,,,,,,,,,,,,,,,,,,,,,,,,,,,,,,,,,,,,,,,,,,,,,,,
,,,,112377,001,2023-07-28_03h07.50.219,fluency,2022.2.4,Win32,60.0240096,,,,,,,,,,,,,,,,,,,,,,,,,,,,,,,,,,,,,,,,,,,,,,,,,,,,,,,,,,,,,,,,,,,,,,,,,,,,,,,,,,,,,,,,,,,,,,,,,,,,,,,,,"[""k""]","[""k""]",4,,,,,,0,0,0,0,1,[1.0019999999999527],[1.0019999999999527],,,,,,,,,,,,,,,,,,,,,,,,,,,,,,,,,,,,,,,,,,,,,,,,,,,,,,,,,,,,,,,,,
,,,,112377,001,2023-07-28_03h07.50.219,fluency,2022.2.4,Win32,60.0240096,,,,,,,,,,,,,,,,,,,,,,,9,5,img/B05_09.jpg,MF,Press J if the face is MALE and K if the face is FEMALE, ,JK,,,,,,,,,,,,,,,,,,,,,,,,,,,,,,,,,,,,,,,,,,,,,,,,,,,,,,,,,,,,,,6,1.416,,,,,,,,,,,,,,,,,,,,,,,,,,,,space,0.654,0,29,29,53,1,,,,,,,,,,,,,,,,,,,,,,,,,,,,,,,,,,,,,,,,,,,,,,,,,,,,,,,,,,
,,,,112377,001,2023-07-28_03h07.50.219,fluency,2022.2.4,Win32,60.0240096,,,,,,,,,,,,,,,,,,,,,,,,,,,,,,,,,,,,,,,,,,,,,,,,,,,,,,,,,,,,,,,,,,,,,,,,,,,,,,,,,,,,,,,,,,,,,,,,,,,,,,,,,"[""j""]","[""j""]",4,,,,,,0,0,0,0,1,[0.8519999999998618],[0.8519999999998618],,,,,,,,,,,,,,,,,,,,,,,,,,,,,,,,,,,,,,,,,,,,,,,,,,,,,,,,,,,,,,,,,
,,,,112377,001,2023-07-28_03h07.50.219,fluency,2022.2.4,Win32,60.0240096,,,,,,,,,,,,,,,,,,,,,,,2,6,img/B06_02.jpg,MF,Press J if the face is MALE and K if the face is FEMALE, ,JK,,,,,,,,,,,,,,,,,,,,,,,,,,,,,,,,,,,,,,,,,,,,,,,,,,,,,,,,,,,,,,7,0.808,,,,,,,,,,,,,,,,,,,,,,,,,,,,space,0.586,0,30,30,57,1,,,,,,,,,,,,,,,,,,,,,,,,,,,,,,,,,,,,,,,,,,,,,,,,,,,,,,,,,,
,,,,112377,001,2023-07-28_03h07.50.219,fluency,2022.2.4,Win32,60.0240096,,,,,,,,,,,,,,,,,,,,,,,,,,,,,,,,,,,,,,,,,,,,,,,,,,,,,,,,,,,,,,,,,,,,,,,,,,,,,,,,,,,,,,,,,,,,,,,,,,,,,,,,,"[""k""]","[""k""]",4,,,,,,0,0,0,0,1,[0.8759999999999764],[0.8759999999999764],,,,,,,,,,,,,,,,,,,,,,,,,,,,,,,,,,,,,,,,,,,,,,,,,,,,,,,,,,,,,,,,,
,,,,112377,001,2023-07-28_03h07.50.219,fluency,2022.2.4,Win32,60.0240096,,,,,,,,,,,,,,,,,,,,,,,4,1,img/B01_04.jpg,MF,Press J if the face is MALE and K if the face is FEMALE, ,JK,,,,,,,,,,,,,,,,,,,,,,,,,,,,,,,,,,,,,,,,,,,,,,,,,,,,,,,,,,,,,,5,1.096,,,,,,,,,,,,,,,,,,,,,,,,,,,,space,0.738,0,31,31,4,1,,,,,,,,,,,,,,,,,,,,,,,,,,,,,,,,,,,,,,,,,,,,,,,,,,,,,,,,,,
,,,,112377,001,2023-07-28_03h07.50.219,fluency,2022.2.4,Win32,60.0240096,,,,,,,,,,,,,,,,,,,,,,,,,,,,,,,,,,,,,,,,,,,,,,,,,,,,,,,,,,,,,,,,,,,,,,,,,,,,,,,,,,,,,,,,,,,,,,,,,,,,,,,,,"[""k""]","[""k""]",4,,,,,,0,0,0,0,1,[0.9790000000000418],[0.9790000000000418],,,,,,,,,,,,,,,,,,,,,,,,,,,,,,,,,,,,,,,,,,,,,,,,,,,,,,,,,,,,,,,,,
,,,,112377,001,2023-07-28_03h07.50.219,fluency,2022.2.4,Win32,60.0240096,,,,,,,,,,,,,,,,,,,,,,,5,6,img/B06_05.jpg,MF,Press J if the face is MALE and K if the face is FEMALE, ,JK,,,,,,,,,,,,,,,,,,,,,,,,,,,,,,,,,,,,,,,,,,,,,,,,,,,,,,,,,,,,,,5,2.842,,,,,,,,,,,,,,,,,,,,,,,,,,,,space,0.853,0,32,32,60,1,,,,,,,,,,,,,,,,,,,,,,,,,,,,,,,,,,,,,,,,,,,,,,,,,,,,,,,,,,
,,,,112377,001,2023-07-28_03h07.50.219,fluency,2022.2.4,Win32,60.0240096,,,,,,,,,,,,,,,,,,,,,,,,,,,,,,,,,,,,,,,,,,,,,,,,,,,,,,,,,,,,,,,,,,,,,,,,,,,,,,space,2.318,,,,,,,,,,,,,,,,,,,,,,,,,,,,5,0,0,0,0,1,,,,,,,,,,,,,,,,,,,,,,,,,,,,,,,,,,,,,,,,,,,,,,,,,,,,,,,,,,,,,,,,,,,,,,,,
,,,,112377,001,2023-07-28_03h07.50.219,fluency,2022.2.4,Win32,60.0240096,,,,,,,,,,,,,,,,,,,,,,,,,,,,,,,,,,,,,,,,,,,,,,,,,,,,,,,,,,,,,,,,,,,,,,,,,,,,,,,,,,,,,,,,,,,,,,,,,,,,,,,,,,,,,,,,,0,0,0,0,1,,,,,,,,,,,,,,,,,,,,,,,,,,,,,,,,,,,,,,,,,,,,,,,,,,,,,,,,,,,,,,,,,,,
,,,,112377,001,2023-07-28_03h07.50.219,fluency,2022.2.4,Win32,60.0240096,,,,,,,,,,,,,,,,,,,,,,,,,,,,,,,,,,,,,,,,,,,,,,,,,,,,,,,,,,,,,,,,,,,,,,,,,,,,,,,,,,,,,,,,,,,,,,,,,,,,,,,,,"[""j""]","[""j""]",5,,,,,,1,0,1,0,1,[0.5059999999998581],[0.5059999999998581],,,,,,,,,,,,,,,,,,,,,,,,,,,,,,,,,,,,,,,,,,,,,,,,,,,,,,,,,,,,,,,,,
,,,,112377,001,2023-07-28_03h07.50.219,fluency,2022.2.4,Win32,60.0240096,,,,,,,,,,,,,,,,,,,,,,,1,3,img/B03_01.jpg,MF,Press J if the face is MALE and K if the face is FEMALE, ,JK,,,,,,,,,,,,,,,,,,,,,,,,,,,,,,,,,,,,,,,,,,,,,,,,,,,,,,,,,,,,,,6,1.149,,,,,,,,,,,,,,,,,,,,,,,,,,,,space,0.316,0,33,33,23,1,,,,,,,,,,,,,,,,,,,,,,,,,,,,,,,,,,,,,,,,,,,,,,,,,,,,,,,,,,
,,,,112377,001,2023-07-28_03h07.50.219,fluency,2022.2.4,Win32,60.0240096,,,,,,,,,,,,,,,,,,,,,,,,,,,,,,,,,,,,,,,,,,,,,,,,,,,,,,,,,,,,,,,,,,,,,,,,,,,,,,,,,,,,,,,,,,,,,,,,,,,,,,,,,"[""k""]","[""k""]",5,,,,,,0,0,0,0,1,[1.9639999999999418],[1.9639999999999418],,,,,,,,,,,,,,,,,,,,,,,,,,,,,,,,,,,,,,,,,,,,,,,,,,,,,,,,,,,,,,,,,
,,,,112377,001,2023-07-28_03h07.50.219,fluency,2022.2.4,Win32,60.0240096,,,,,,,,,,,,,,,,,,,,,,,8,1,img/B01_08.jpg,MF,Press J if the face is MALE and K if the face is FEMALE, ,JK,,,,,,,,,,,,,,,,,,,,,,,,,,,,,,,,,,,,,,,,,,,,,,,,,,,,,,,,,,,,,,5,1.88,,,,,,,,,,,,,,,,,,,,,,,,,,,,space,0.917,0,34,34,8,1,,,,,,,,,,,,,,,,,,,,,,,,,,,,,,,,,,,,,,,,,,,,,,,,,,,,,,,,,,
,,,,112377,001,2023-07-28_03h07.50.219,fluency,2022.2.4,Win32,60.0240096,,,,,,,,,,,,,,,,,,,,,,,,,,,,,,,,,,,,,,,,,,,,,,,,,,,,,,,,,,,,,,,,,,,,,,,,,,,,,,,,,,,,,,,,,,,,,,,,,,,,,,,,,"[""j""]","[""j""]",5,,,,,,0,0,0,0,1,[1.4549999999999272],[1.4549999999999272],,,,,,,,,,,,,,,,,,,,,,,,,,,,,,,,,,,,,,,,,,,,,,,,,,,,,,,,,,,,,,,,,
,,,,112377,001,2023-07-28_03h07.50.219,fluency,2022.2.4,Win32,60.0240096,,,,,,,,,,,,,,,,,,,,,,,9,8,img/B08_09.jpg,MF,Press J if the face is MALE and K if the face is FEMALE, ,JK,,,,,,,,,,,,,,,,,,,,,,,,,,,,,,,,,,,,,,,,,,,,,,,,,,,,,,,,,,,,,,5,1.265,,,,,,,,,,,,,,,,,,,,,,,,,,,,space,0.317,0,35,35,86,1,,,,,,,,,,,,,,,,,,,,,,,,,,,,,,,,,,,,,,,,,,,,,,,,,,,,,,,,,,
,,,,112377,001,2023-07-28_03h07.50.219,fluency,2022.2.4,Win32,60.0240096,,,,,,,,,,,,,,,,,,,,,,,,,,,,,,,,,,,,,,,,,,,,,,,,,,,,,,,,,,,,,,,,,,,,,,,,,,,,,,,,,,,,,,,,,,,,,,,,,,,,,,,,,"[""j""]","[""j""]",5,,,,,,0,0,0,0,1,[1.6449999999999818],[1.6449999999999818],,,,,,,,,,,,,,,,,,,,,,,,,,,,,,,,,,,,,,,,,,,,,,,,,,,,,,,,,,,,,,,,,
,,,,112377,001,2023-07-28_03h07.50.219,fluency,2022.2.4,Win32,60.0240096,,,,,,,,,,,,,,,,,,,,,,,3,3,img/B03_03.jpg,MF,Press J if the face is MALE and K if the face is FEMALE, ,JK,,,,,,,,,,,,,,,,,,,,,,,,,,,,,,,,,,,,,,,,,,,,,,,,,,,,,,,,,,,,,,6,1.517,,,,,,,,,,,,,,,,,,,,,,,,,,,,space,0.289,0,36,36,25,1,,,,,,,,,,,,,,,,,,,,,,,,,,,,,,,,,,,,,,,,,,,,,,,,,,,,,,,,,,
,,,,112377,001,2023-07-28_03h07.50.219,fluency,2022.2.4,Win32,60.0240096,,,,,,,,,,,,,,,,,,,,,,,,,,,,,,,,,,,,,,,,,,,,,,,,,,,,,,,,,,,,,,,,,,,,,,,,,,,,,,,,,,,,,,,,,,,,,,,,,,,,,,,,,"[""k""]","[""k""]",5,,,,,,0,0,0,0,1,[1.1860000000001492],[1.1860000000001492],,,,,,,,,,,,,,,,,,,,,,,,,,,,,,,,,,,,,,,,,,,,,,,,,,,,,,,,,,,,,,,,,
,,,,112377,001,2023-07-28_03h07.50.219,fluency,2022.2.4,Win32,60.0240096,,,,,,,,,,,,,,,,,,,,,,,3,10,img/B10_03.jpg,MF,Press J if the face is MALE and K if the face is FEMALE, ,JK,,,,,,,,,,,,,,,,,,,,,,,,,,,,,,,,,,,,,,,,,,,,,,,,,,,,,,,,,,,,,,6,1.405,,,,,,,,,,,,,,,,,,,,,,,,,,,,space,0.232,0,37,37,102,1,,,,,,,,,,,,,,,,,,,,,,,,,,,,,,,,,,,,,,,,,,,,,,,,,,,,,,,,,,
,,,,112377,001,2023-07-28_03h07.50.219,fluency,2022.2.4,Win32,60.0240096,,,,,,,,,,,,,,,,,,,,,,,,,,,,,,,,,,,,,,,,,,,,,,,,,,,,,,,,,,,,,,,,,,,,,,,,,,,,,,,,,,,,,,,,,,,,,,,,,,,,,,,,,"[""j""]","[""j""]",5,,,,,,0,0,0,0,1,[1.0679999999997563],[1.0679999999997563],,,,,,,,,,,,,,,,,,,,,,,,,,,,,,,,,,,,,,,,,,,,,,,,,,,,,,,,,,,,,,,,,
,,,,112377,001,2023-07-28_03h07.50.219,fluency,2022.2.4,Win32,60.0240096,,,,,,,,,,,,,,,,,,,,,,,2,4,img/B04_02.jpg,MF,Press J if the face is MALE and K if the face is FEMALE, ,JK,,,,,,,,,,,,,,,,,,,,,,,,,,,,,,,,,,,,,,,,,,,,,,,,,,,,,,,,,,,,,,6,1.784,,,,,,,,,,,,,,,,,,,,,,,,,,,,space,0.384,0,38,38,35,1,,,,,,,,,,,,,,,,,,,,,,,,,,,,,,,,,,,,,,,,,,,,,,,,,,,,,,,,,,
,,,,112377,001,2023-07-28_03h07.50.219,fluency,2022.2.4,Win32,60.0240096,,,,,,,,,,,,,,,,,,,,,,,,,,,,,,,,,,,,,,,,,,,,,,,,,,,,,,,,,,,,,,,,,,,,,,,,,,,,,,,,,,,,,,,,,,,,,,,,,,,,,,,,,"[""j"",""k""]","[""j"",""k""]",5,,,,,,0,0,0,0,1,"[1.1589999999996508,2.0399999999999636]","[1.1589999999996508,2.0399999999999636]",,,,,,,,,,,,,,,,,,,,,,,,,,,,,,,,,,,,,,,,,,,,,,,,,,,,,,,,,,,,,,,,,
,,,,112377,001,2023-07-28_03h07.50.219,fluency,2022.2.4,Win32,60.0240096,,,,,,,,,,,,,,,,,,,,,,,4,7,img/B07_04.jpg,MF,Press J if the face is MALE and K if the face is FEMALE, ,JK,,,,,,,,,,,,,,,,,,,,,,,,,,,,,,,,,,,,,,,,,,,,,,,,,,,,,,,,,,,,,,6,1.081,,,,,,,,,,,,,,,,,,,,,,,,,,,,space,0.653,0,39,39,70,1,,,,,,,,,,,,,,,,,,,,,,,,,,,,,,,,,,,,,,,,,,,,,,,,,,,,,,,,,,
,,,,112377,001,2023-07-28_03h07.50.219,fluency,2022.2.4,Win32,60.0240096,,,,,,,,,,,,,,,,,,,,,,,,,,,,,,,,,,,,,,,,,,,,,,,,,,,,,,,,,,,,,,,,,,,,,,,,,,,,,,,,,,,,,,,,,,,,,,,,,,,,,,,,,"[""k""]","[""k""]",5,,,,,,0,0,0,0,1,[1.0670000000000073],[1.0670000000000073],,,,,,,,,,,,,,,,,,,,,,,,,,,,,,,,,,,,,,,,,,,,,,,,,,,,,,,,,,,,,,,,,
,,,,112377,001,2023-07-28_03h07.50.219,fluency,2022.2.4,Win32,60.0240096,,,,,,,,,,,,,,,,,,,,,,,0,8,img/B08_00.jpg,MF,Press J if the face is MALE and K if the face is FEMALE, ,JK,,,,,,,,,,,,,,,,,,,,,,,,,,,,,,,,,,,,,,,,,,,,,,,,,,,,,,,,,,,,,,6,1.484,,,,,,,,,,,,,,,,,,,,,,,,,,,,space,0.689,0,40,40,77,1,,,,,,,,,,,,,,,,,,,,,,,,,,,,,,,,,,,,,,,,,,,,,,,,,,,,,,,,,,
,,,,112377,001,2023-07-28_03h07.50.219,fluency,2022.2.4,Win32,60.0240096,,,,,,,,,,,,,,,,,,,,,,,,,,,,,,,,,,,,,,,,,,,,,,,,,,,,,,,,,,,,,,,,,,,,,,,,,,,,,,,,,,,,,,,,,,,,,,,,,,,,,,,,,"[""k""]","[""k""]",5,,,,,,0,0,0,0,1,[1.8400000000001455],[1.8400000000001455],,,,,,,,,,,,,,,,,,,,,,,,,,,,,,,,,,,,,,,,,,,,,,,,,,,,,,,,,,,,,,,,,
,,,,112377,001,2023-07-28_03h07.50.219,fluency,2022.2.4,Win32,60.0240096,,,,,,,,,,,,,,,,,,,,,,,8,2,img/B02_08.jpg,MF,Press J if the face is MALE and K if the face is FEMALE, ,JK,,,,,,,,,,,,,,,,,,,,,,,,,,,,,,,,,,,,,,,,,,,,,,,,,,,,,,,,,,,,,,7,1.601,,,,,,,,,,,,,,,,,,,,,,,,,,,,space,0.637,0,41,41,19,1,,,,,,,,,,,,,,,,,,,,,,,,,,,,,,,,,,,,,,,,,,,,,,,,,,,,,,,,,,
,,,,112377,001,2023-07-28_03h07.50.219,fluency,2022.2.4,Win32,60.0240096,,,,,,,,,,,,,,,,,,,,,,,,,,,,,,,,,,,,,,,,,,,,,,,,,,,,,,,,,,,,,,,,,,,,,,,,,,,,,,,,,,,,,,,,,,,,,,,,,,,,,,,,,"[""k""]","[""k""]",5,,,,,,0,0,0,0,1,[0.8299999999999272],[0.8299999999999272],,,,,,,,,,,,,,,,,,,,,,,,,,,,,,,,,,,,,,,,,,,,,,,,,,,,,,,,,,,,,,,,,
,,,,112377,001,2023-07-28_03h07.50.219,fluency,2022.2.4,Win32,60.0240096,,,,,,,,,,,,,,,,,,,,,,,7,9,img/B09_07.jpg,MF,Press J if the face is MALE and K if the face is FEMALE, ,JK,,,,,,,,,,,,,,,,,,,,,,,,,,,,,,,,,,,,,,,,,,,,,,,,,,,,,,,,,,,,,,6,1.754,,,,,,,,,,,,,,,,,,,,,,,,,,,,space,0.647,0,42,42,95,1,,,,,,,,,,,,,,,,,,,,,,,,,,,,,,,,,,,,,,,,,,,,,,,,,,,,,,,,,,
,,,,112377,001,2023-07-28_03h07.50.219,fluency,2022.2.4,Win32,60.0240096,,,,,,,,,,,,,,,,,,,,,,,,,,,,,,,,,,,,,,,,,,,,,,,,,,,,,,,,,,,,,,,,,,,,,,,,,,,,,,,,,,,,,,,,,,,,,,,,,,,,,,,,,"[""j""]","[""j""]",5,,,,,,0,0,0,0,1,[1.8549999999995634],[1.8559999999997672],,,,,,,,,,,,,,,,,,,,,,,,,,,,,,,,,,,,,,,,,,,,,,,,,,,,,,,,,,,,,,,,,
,,,,112377,001,2023-07-28_03h07.50.219,fluency,2022.2.4,Win32,60.0240096,,,,,,,,,,,,,,,,,,,,,,,6,8,img/B08_06.jpg,MF,Press J if the face is MALE and K if the face is FEMALE, ,JK,,,,,,,,,,,,,,,,,,,,,,,,,,,,,,,,,,,,,,,,,,,,,,,,,,,,,,,,,,,,,,5,1.74,,,,,,,,,,,,,,,,,,,,,,,,,,,,space,0.619,0,43,43,83,1,,,,,,,,,,,,,,,,,,,,,,,,,,,,,,,,,,,,,,,,,,,,,,,,,,,,,,,,,,
,,,,112377,001,2023-07-28_03h07.50.219,fluency,2022.2.4,Win32,60.0240096,,,,,,,,,,,,,,,,,,,,,,,,,,,,,,,,,,,,,,,,,,,,,,,,,,,,,,,,,,,,,,,,,,,,,,,,,,,,,,,,,,,,,,,,,,,,,,,,,,,,,,,,,"[""k""]","[""k""]",5,,,,,,0,0,0,0,1,[1.6770000000005894],[1.6770000000005894],,,,,,,,,,,,,,,,,,,,,,,,,,,,,,,,,,,,,,,,,,,,,,,,,,,,,,,,,,,,,,,,,
,,,,112377,001,2023-07-28_03h07.50.219,fluency,2022.2.4,Win32,60.0240096,,,,,,,,,,,,,,,,,,,,,,,6,2,img/B02_06.jpg,MF,Press J if the face is MALE and K if the face is FEMALE, ,JK,,,,,,,,,,,,,,,,,,,,,,,,,,,,,,,,,,,,,,,,,,,,,,,,,,,,,,,,,,,,,,7,1.011,,,,,,,,,,,,,,,,,,,,,,,,,,,,space,1.234,0,44,44,17,1,,,,,,,,,,,,,,,,,,,,,,,,,,,,,,,,,,,,,,,,,,,,,,,,,,,,,,,,,,
,,,,112377,001,2023-07-28_03h07.50.219,fluency,2022.2.4,Win32,60.0240096,,,,,,,,,,,,,,,,,,,,,,,,,,,,,,,,,,,,,,,,,,,,,,,,,,,,,,,,,,,,,,,,,,,,,,,,,,,,,,,,,,,,,,,,,,,,,,,,,,,,,,,,,"[""j""]","[""j""]",5,,,,,,0,0,0,0,1,[1.3650000000006912],[1.3650000000006912],,,,,,,,,,,,,,,,,,,,,,,,,,,,,,,,,,,,,,,,,,,,,,,,,,,,,,,,,,,,,,,,,
,,,,112377,001,2023-07-28_03h07.50.219,fluency,2022.2.4,Win32,60.0240096,,,,,,,,,,,,,,,,,,,,,,,0,9,img/B09_00.jpg,MF,Press J if the face is MALE and K if the face is FEMALE, ,JK,,,,,,,,,,,,,,,,,,,,,,,,,,,,,,,,,,,,,,,,,,,,,,,,,,,,,,,,,,,,,,6,5.508,,,,,,,,,,,,,,,,,,,,,,,,,,,,space,0.644,0,45,45,88,1,,,,,,,,,,,,,,,,,,,,,,,,,,,,,,,,,,,,,,,,,,,,,,,,,,,,,,,,,,
,,,,112377,001,2023-07-28_03h07.50.219,fluency,2022.2.4,Win32,60.0240096,,,,,,,,,,,,,,,,,,,,,,,,,,,,,,,,,,,,,,,,,,,,,,,,,,,,,,,,,,,,,,,,,,,,,,,,,,,,,,,,,,,,,,,,,,,,,,,,,,,,,,,,,"[""k""]","[""k""]",5,,,,,,0,0,0,0,1,[0.6880000000001019],[0.6880000000001019],,,,,,,,,,,,,,,,,,,,,,,,,,,,,,,,,,,,,,,,,,,,,,,,,,,,,,,,,,,,,,,,,
,,,,112377,001,2023-07-28_03h07.50.219,fluency,2022.2.4,Win32,60.0240096,,,,,,,,,,,,,,,,,,,,,,,7,7,img/B07_07.jpg,MF,Press J if the face is MALE and K if the face is FEMALE, ,JK,,,,,,,,,,,,,,,,,,,,,,,,,,,,,,,,,,,,,,,,,,,,,,,,,,,,,,,,,,,,,,7,1.109,,,,,,,,,,,,,,,,,,,,,,,,,,,,space,0.622,0,46,46,73,1,,,,,,,,,,,,,,,,,,,,,,,,,,,,,,,,,,,,,,,,,,,,,,,,,,,,,,,,,,
,,,,112377,001,2023-07-28_03h07.50.219,fluency,2022.2.4,Win32,60.0240096,,,,,,,,,,,,,,,,,,,,,,,,,,,,,,,,,,,,,,,,,,,,,,,,,,,,,,,,,,,,,,,,,,,,,,,,,,,,,,,,,,,,,,,,,,,,,,,,,,,,,,,,,"[""k""]","[""k""]",5,,,,,,0,0,0,0,1,[1.6679999999996653],[1.6679999999996653],,,,,,,,,,,,,,,,,,,,,,,,,,,,,,,,,,,,,,,,,,,,,,,,,,,,,,,,,,,,,,,,,
,,,,112377,001,2023-07-28_03h07.50.219,fluency,2022.2.4,Win32,60.0240096,,,,,,,,,,,,,,,,,,,,,,,3,5,img/B05_03.jpg,MF,Press J if the face is MALE and K if the face is FEMALE, ,JK,,,,,,,,,,,,,,,,,,,,,,,,,,,,,,,,,,,,,,,,,,,,,,,,,,,,,,,,,,,,,,6,1.316,,,,,,,,,,,,,,,,,,,,,,,,,,,,space,0.467,0,47,47,47,1,,,,,,,,,,,,,,,,,,,,,,,,,,,,,,,,,,,,,,,,,,,,,,,,,,,,,,,,,,
,,,,112377,001,2023-07-28_03h07.50.219,fluency,2022.2.4,Win32,60.0240096,,,,,,,,,,,,,,,,,,,,,,,,,,,,,,,,,,,,,,,,,,,,,,,,,,,,,,,,,,,,,,,,,,,,,,,,,,,,,,,,,,,,,,,,,,,,,,,,,,,,,,,,,"[""j""]","[""j""]",5,,,,,,0,0,0,0,1,[0.9800000000004729],[0.9800000000004729],,,,,,,,,,,,,,,,,,,,,,,,,,,,,,,,,,,,,,,,,,,,,,,,,,,,,,,,,,,,,,,,,
,,,,112377,001,2023-07-28_03h07.50.219,fluency,2022.2.4,Win32,60.0240096,,,,,,,,,,,,,,,,,,,,,,,8,8,img/B08_08.jpg,MF,Press J if the face is MALE and K if the face is FEMALE, ,JK,,,,,,,,,,,,,,,,,,,,,,,,,,,,,,,,,,,,,,,,,,,,,,,,,,,,,,,,,,,,,,5,0.546,,,,,,,,,,,,,,,,,,,,,,,,,,,,space,0.453,0,48,48,85,1,,,,,,,,,,,,,,,,,,,,,,,,,,,,,,,,,,,,,,,,,,,,,,,,,,,,,,,,,,
,,,,112377,001,2023-07-28_03h07.50.219,fluency,2022.2.4,Win32,60.0240096,,,,,,,,,,,,,,,,,,,,,,,,,,,,,,,,,,,,,,,,,,,,,,,,,,,,,,,,,,,,,,,,,,,,,,,,,,,,,,,,,,,,,,,,,,,,,,,,,,,,,,,,,"[""j""]","[""j""]",5,,,,,,0,0,0,0,1,[1.5170000000007349],[1.5170000000007349],,,,,,,,,,,,,,,,,,,,,,,,,,,,,,,,,,,,,,,,,,,,,,,,,,,,,,,,,,,,,,,,,
,,,,112377,001,2023-07-28_03h07.50.219,fluency,2022.2.4,Win32,60.0240096,,,,,,,,,,,,,,,,,,,,,,,3,2,img/B02_03.jpg,MF,Press J if the face is MALE and K if the face is FEMALE, ,JK,,,,,,,,,,,,,,,,,,,,,,,,,,,,,,,,,,,,,,,,,,,,,,,,,,,,,,,,,,,,,,6,1.64,,,,,,,,,,,,,,,,,,,,,,,,,,,,space,0.335,0,49,49,14,1,,,,,,,,,,,,,,,,,,,,,,,,,,,,,,,,,,,,,,,,,,,,,,,,,,,,,,,,,,
,,,,112377,001,2023-07-28_03h07.50.219,fluency,2022.2.4,Win32,60.0240096,,,,,,,,,,,,,,,,,,,,,,,,,,,,,,,,,,,,,,,,,,,,,,,,,,,,,,,,,,,,,,,,,,,,,,,,,,,,,,,,,,,,,,,,,,,,,,,,,,,,,,,,,"[""k""]","[""k""]",5,,,,,,0,0,0,0,1,[0.6030000000000655],[0.6019999999998618],,,,,,,,,,,,,,,,,,,,,,,,,,,,,,,,,,,,,,,,,,,,,,,,,,,,,,,,,,,,,,,,,
,,,,112377,001,2023-07-28_03h07.50.219,fluency,2022.2.4,Win32,60.0240096,,,,,,,,,,,,,,,,,,,,,,,10,2,img/B02_10.jpg,MF,Press J if the face is MALE and K if the face is FEMALE, ,JK,,,,,,,,,,,,,,,,,,,,,,,,,,,,,,,,,,,,,,,,,,,,,,,,,,,,,,,,,,,,,,5,1.274,,,,,,,,,,,,,,,,,,,,,,,,,,,,space,0.447,0,50,50,21,1,,,,,,,,,,,,,,,,,,,,,,,,,,,,,,,,,,,,,,,,,,,,,,,,,,,,,,,,,,
,,,,112377,001,2023-07-28_03h07.50.219,fluency,2022.2.4,Win32,60.0240096,,,,,,,,,,,,,,,,,,,,,,,,,,,,,,,,,,,,,,,,,,,,,,,,,,,,,,,,,,,,,,,,,,,,,,,,,,,,,,,,,,,,,,,,,,,,,,,,,,,,,,,,,"[""j""]","[""j""]",5,,,,,,0,0,0,0,1,[1.7460000000000946],[1.7460000000000946],,,,,,,,,,,,,,,,,,,,,,,,,,,,,,,,,,,,,,,,,,,,,,,,,,,,,,,,,,,,,,,,,
,,,,112377,001,2023-07-28_03h07.50.219,fluency,2022.2.4,Win32,60.0240096,,,,,,,,,,,,,,,,,,,,,,,3,4,img/B04_03.jpg,MF,Press J if the face is MALE and K if the face is FEMALE, ,JK,,,,,,,,,,,,,,,,,,,,,,,,,,,,,,,,,,,,,,,,,,,,,,,,,,,,,,,,,,,,,,6,1.245,,,,,,,,,,,,,,,,,,,,,,,,,,,,space,2.171,0,51,51,36,1,,,,,,,,,,,,,,,,,,,,,,,,,,,,,,,,,,,,,,,,,,,,,,,,,,,,,,,,,,
,,,,112377,001,2023-07-28_03h07.50.219,fluency,2022.2.4,Win32,60.0240096,,,,,,,,,,,,,,,,,,,,,,,,,,,,,,,,,,,,,,,,,,,,,,,,,,,,,,,,,,,,,,,,,,,,,,,,,,,,,,,,,,,,,,,,,,,,,,,,,,,,,,,,,"[""k""]","[""k""]",5,,,,,,0,0,0,0,1,[1.5560000000004948],[1.5560000000004948],,,,,,,,,,,,,,,,,,,,,,,,,,,,,,,,,,,,,,,,,,,,,,,,,,,,,,,,,,,,,,,,,
,,,,112377,001,2023-07-28_03h07.50.219,fluency,2022.2.4,Win32,60.0240096,,,,,,,,,,,,,,,,,,,,,,,10,3,img/B03_10.jpg,MF,Press J if the face is MALE and K if the face is FEMALE, ,JK,,,,,,,,,,,,,,,,,,,,,,,,,,,,,,,,,,,,,,,,,,,,,,,,,,,,,,,,,,,,,,6,1.758,,,,,,,,,,,,,,,,,,,,,,,,,,,,space,0.653,0,52,52,32,1,,,,,,,,,,,,,,,,,,,,,,,,,,,,,,,,,,,,,,,,,,,,,,,,,,,,,,,,,,
,,,,112377,001,2023-07-28_03h07.50.219,fluency,2022.2.4,Win32,60.0240096,,,,,,,,,,,,,,,,,,,,,,,,,,,,,,,,,,,,,,,,,,,,,,,,,,,,,,,,,,,,,,,,,,,,,,,,,,,,,,,,,,,,,,,,,,,,,,,,,,,,,,,,,"[""k""]","[""k""]",5,,,,,,0,0,0,0,1,[0.7559999999994034],[0.7559999999994034],,,,,,,,,,,,,,,,,,,,,,,,,,,,,,,,,,,,,,,,,,,,,,,,,,,,,,,,,,,,,,,,,
,,,,112377,001,2023-07-28_03h07.50.219,fluency,2022.2.4,Win32,60.0240096,,,,,,,,,,,,,,,,,,,,,,,6,5,img/B05_06.jpg,MF,Press J if the face is MALE and K if the face is FEMALE, ,JK,,,,,,,,,,,,,,,,,,,,,,,,,,,,,,,,,,,,,,,,,,,,,,,,,,,,,,,,,,,,,,6,1.591,,,,,,,,,,,,,,,,,,,,,,,,,,,,space,0.502,0,53,53,50,1,,,,,,,,,,,,,,,,,,,,,,,,,,,,,,,,,,,,,,,,,,,,,,,,,,,,,,,,,,
,,,,112377,001,2023-07-28_03h07.50.219,fluency,2022.2.4,Win32,60.0240096,,,,,,,,,,,,,,,,,,,,,,,,,,,,,,,,,,,,,,,,,,,,,,,,,,,,,,,,,,,,,,,,,,,,,,,,,,,,,,,,,,,,,,,,,,,,,,,,,,,,,,,,,"[""k""]","[""k""]",5,,,,,,0,0,0,0,1,[0.8450000000002547],[0.8450000000002547],,,,,,,,,,,,,,,,,,,,,,,,,,,,,,,,,,,,,,,,,,,,,,,,,,,,,,,,,,,,,,,,,
,,,,112377,001,2023-07-28_03h07.50.219,fluency,2022.2.4,Win32,60.0240096,,,,,,,,,,,,,,,,,,,,,,,10,6,img/B06_10.jpg,MF,Press J if the face is MALE and K if the face is FEMALE, ,JK,,,,,,,,,,,,,,,,,,,,,,,,,,,,,,,,,,,,,,,,,,,,,,,,,,,,,,,,,,,,,,5,0.745,,,,,,,,,,,,,,,,,,,,,,,,,,,,space,0.819,0,54,54,65,1,,,,,,,,,,,,,,,,,,,,,,,,,,,,,,,,,,,,,,,,,,,,,,,,,,,,,,,,,,
,,,,112377,001,2023-07-28_03h07.50.219,fluency,2022.2.4,Win32,60.0240096,,,,,,,,,,,,,,,,,,,,,,,,,,,,,,,,,,,,,,,,,,,,,,,,,,,,,,,,,,,,,,,,,,,,,,,,,,,,,,,,,,,,,,,,,,,,,,,,,,,,,,,,,"[""j""]","[""j""]",5,,,,,,0,0,0,0,1,[1.8059999999995853],[1.806999999999789],,,,,,,,,,,,,,,,,,,,,,,,,,,,,,,,,,,,,,,,,,,,,,,,,,,,,,,,,,,,,,,,,
,,,,112377,001,2023-07-28_03h07.50.219,fluency,2022.2.4,Win32,60.0240096,,,,,,,,,,,,,,,,,,,,,,,1,2,img/B02_01.jpg,MF,Press J if the face is MALE and K if the face is FEMALE, ,JK,,,,,,,,,,,,,,,,,,,,,,,,,,,,,,,,,,,,,,,,,,,,,,,,,,,,,,,,,,,,,,5,1.744,,,,,,,,,,,,,,,,,,,,,,,,,,,,space,0.935,0,55,55,12,1,,,,,,,,,,,,,,,,,,,,,,,,,,,,,,,,,,,,,,,,,,,,,,,,,,,,,,,,,,
,,,,112377,001,2023-07-28_03h07.50.219,fluency,2022.2.4,Win32,60.0240096,,,,,,,,,,,,,,,,,,,,,,,,,,,,,,,,,,,,,,,,,,,,,,,,,,,,,,,,,,,,,,,,,,,,,,,,,,,,,,,,,,,,,,,,,,,,,,,,,,,,,,,,,"[""k""]","[""k""]",5,,,,,,0,0,0,0,1,[0.9450000000006185],[0.9450000000006185],,,,,,,,,,,,,,,,,,,,,,,,,,,,,,,,,,,,,,,,,,,,,,,,,,,,,,,,,,,,,,,,,
,,,,112377,001,2023-07-28_03h07.50.219,fluency,2022.2.4,Win32,60.0240096,,,,,,,,,,,,,,,,,,,,,,,1,8,img/B08_01.jpg,MF,Press J if the face is MALE and K if the face is FEMALE, ,JK,,,,,,,,,,,,,,,,,,,,,,,,,,,,,,,,,,,,,,,,,,,,,,,,,,,,,,,,,,,,,,6,0.565,,,,,,,,,,,,,,,,,,,,,,,,,,,,space,0.785,0,56,56,78,1,,,,,,,,,,,,,,,,,,,,,,,,,,,,,,,,,,,,,,,,,,,,,,,,,,,,,,,,,,
,,,,112377,001,2023-07-28_03h07.50.219,fluency,2022.2.4,Win32,60.0240096,,,,,,,,,,,,,,,,,,,,,,,,,,,,,,,,,,,,,,,,,,,,,,,,,,,,,,,,,,,,,,,,,,,,,,,,,,,,,,space,11.993,,,,,,,,,,,,,,,,,,,,,,,,,,,,6,0,0,0,0,1,,,,,,,,,,,,,,,,,,,,,,,,,,,,,,,,,,,,,,,,,,,,,,,,,,,,,,,,,,,,,,,,,,,,,,,,
,,,,112377,001,2023-07-28_03h07.50.219,fluency,2022.2.4,Win32,60.0240096,,,,,,,,,,,,,,,,,,,,,,,,,,,,,,,,,,,,,,,,,,,,,,,,,,,,,,,,,,,,,,,,,,,,,,,,,,,,,,,,,,,,,,,,,,,,,,,,,,,,,,,,,,,,,,,,,0,0,0,0,1,,,,,,,,,,,,,,,,,,,,,,,,,,,,,,,,,,,,,,,,,,,,,,,,,,,,,,,,,,,,,,,,,,,
,,,,112377,001,2023-07-28_03h07.50.219,fluency,2022.2.4,Win32,60.0240096,,,,,,,,,,,,,,,,,,,,,,,,,,,,,,,,,,,,,,,,,,,,,,,,,,,,,,,,,,,,,,,,,,,,,,,,,,,,,,,,,,,,,,,,,,,,,,,,,,,,,,,,,"[""j""]","[""j""]",6,,,,,,1,0,1,0,1,[0.9809999999997672],[0.9809999999997672],,,,,,,,,,,,,,,,,,,,,,,,,,,,,,,,,,,,,,,,,,,,,,,,,,,,,,,,,,,,,,,,,
,,,,112377,001,2023-07-28_03h07.50.219,fluency,2022.2.4,Win32,60.0240096,,,,,,,,,,,,,,,,,,,,,,,0,1,img/B01_00.jpg,MF,Press J if the face is MALE and K if the face is FEMALE, ,JK,,,,,,,,,,,,,,,,,,,,,,,,,,,,,,,,,,,,,,,,,,,,,,,,,,,,,,,,,,,,,,6,0.773,,,,,,,,,,,,,,,,,,,,,,,,,,,,space,3.308,0,57,57,0,1,,,,,,,,,,,,,,,,,,,,,,,,,,,,,,,,,,,,,,,,,,,,,,,,,,,,,,,,,,
,,,,112377,001,2023-07-28_03h07.50.219,fluency,2022.2.4,Win32,60.0240096,,,,,,,,,,,,,,,,,,,,,,,,,,,,,,,,,,,,,,,,,,,,,,,,,,,,,,,,,,,,,,,,,,,,,,,,,,,,,,,,,,,,,,,,,,,,,,,,,,,,,,,,,"[""k""]","[""k""]",6,,,,,,0,0,0,0,1,[0.8200000000006185],[0.8200000000006185],,,,,,,,,,,,,,,,,,,,,,,,,,,,,,,,,,,,,,,,,,,,,,,,,,,,,,,,,,,,,,,,,
,,,,112377,001,2023-07-28_03h07.50.219,fluency,2022.2.4,Win32,60.0240096,,,,,,,,,,,,,,,,,,,,,,,9,9,img/B09_09.jpg,MF,Press J if the face is MALE and K if the face is FEMALE, ,JK,,,,,,,,,,,,,,,,,,,,,,,,,,,,,,,,,,,,,,,,,,,,,,,,,,,,,,,,,,,,,,6,1.364,,,,,,,,,,,,,,,,,,,,,,,,,,,,space,1.15,0,58,58,97,1,,,,,,,,,,,,,,,,,,,,,,,,,,,,,,,,,,,,,,,,,,,,,,,,,,,,,,,,,,
,,,,112377,001,2023-07-28_03h07.50.219,fluency,2022.2.4,Win32,60.0240096,,,,,,,,,,,,,,,,,,,,,,,,,,,,,,,,,,,,,,,,,,,,,,,,,,,,,,,,,,,,,,,,,,,,,,,,,,,,,,,,,,,,,,,,,,,,,,,,,,,,,,,,,"[""j""]","[""j""]",6,,,,,,0,0,0,0,1,[1.0079999999998108],[1.0079999999998108],,,,,,,,,,,,,,,,,,,,,,,,,,,,,,,,,,,,,,,,,,,,,,,,,,,,,,,,,,,,,,,,,
,,,,112377,001,2023-07-28_03h07.50.219,fluency,2022.2.4,Win32,60.0240096,,,,,,,,,,,,,,,,,,,,,,,1,9,img/B09_01.jpg,MF,Press J if the face is MALE and K if the face is FEMALE, ,JK,,,,,,,,,,,,,,,,,,,,,,,,,,,,,,,,,,,,,,,,,,,,,,,,,,,,,,,,,,,,,,5,1.345,,,,,,,,,,,,,,,,,,,,,,,,,,,,space,0.779,0,59,59,89,1,,,,,,,,,,,,,,,,,,,,,,,,,,,,,,,,,,,,,,,,,,,,,,,,,,,,,,,,,,
,,,,112377,001,2023-07-28_03h07.50.219,fluency,2022.2.4,Win32,60.0240096,,,,,,,,,,,,,,,,,,,,,,,,,,,,,,,,,,,,,,,,,,,,,,,,,,,,,,,,,,,,,,,,,,,,,,,,,,,,,,,,,,,,,,,,,,,,,,,,,,,,,,,,,"[""j""]","[""j""]",6,,,,,,0,0,0,0,1,[1.0520000000005894],[1.0520000000005894],,,,,,,,,,,,,,,,,,,,,,,,,,,,,,,,,,,,,,,,,,,,,,,,,,,,,,,,,,,,,,,,,
,,,,112377,001,2023-07-28_03h07.50.219,fluency,2022.2.4,Win32,60.0240096,,,,,,,,,,,,,,,,,,,,,,,7,8,img/B08_07.jpg,MF,Press J if the face is MALE and K if the face is FEMALE, ,JK,,,,,,,,,,,,,,,,,,,,,,,,,,,,,,,,,,,,,,,,,,,,,,,,,,,,,,,,,,,,,,5,0.834,,,,,,,,,,,,,,,,,,,,,,,,,,,,space,1.167,0,60,60,84,1,,,,,,,,,,,,,,,,,,,,,,,,,,,,,,,,,,,,,,,,,,,,,,,,,,,,,,,,,,
,,,,112377,001,2023-07-28_03h07.50.219,fluency,2022.2.4,Win32,60.0240096,,,,,,,,,,,,,,,,,,,,,,,,,,,,,,,,,,,,,,,,,,,,,,,,,,,,,,,,,,,,,,,,,,,,,,,,,,,,,,,,,,,,,,,,,,,,,,,,,,,,,,,,,"[""j""]","[""j""]",6,,,,,,0,0,0,0,1,[0.7890000000006694],[0.7890000000006694],,,,,,,,,,,,,,,,,,,,,,,,,,,,,,,,,,,,,,,,,,,,,,,,,,,,,,,,,,,,,,,,,
,,,,112377,001,2023-07-28_03h07.50.219,fluency,2022.2.4,Win32,60.0240096,,,,,,,,,,,,,,,,,,,,,,,0,6,img/B06_00.jpg,MF,Press J if the face is MALE and K if the face is FEMALE, ,JK,,,,,,,,,,,,,,,,,,,,,,,,,,,,,,,,,,,,,,,,,,,,,,,,,,,,,,,,,,,,,,6,1.488,,,,,,,,,,,,,,,,,,,,,,,,,,,,space,0.55,0,61,61,55,1,,,,,,,,,,,,,,,,,,,,,,,,,,,,,,,,,,,,,,,,,,,,,,,,,,,,,,,,,,
,,,,112377,001,2023-07-28_03h07.50.219,fluency,2022.2.4,Win32,60.0240096,,,,,,,,,,,,,,,,,,,,,,,,,,,,,,,,,,,,,,,,,,,,,,,,,,,,,,,,,,,,,,,,,,,,,,,,,,,,,,,,,,,,,,,,,,,,,,,,,,,,,,,,,"[""k""]","[""k""]",6,,,,,,0,0,0,0,1,[1.8079999999999927],[1.8079999999999927],,,,,,,,,,,,,,,,,,,,,,,,,,,,,,,,,,,,,,,,,,,,,,,,,,,,,,,,,,,,,,,,,
,,,,112377,001,2023-07-28_03h07.50.219,fluency,2022.2.4,Win32,60.0240096,,,,,,,,,,,,,,,,,,,,,,,6,7,img/B07_06.jpg,MF,Press J if the face is MALE and K if the face is FEMALE, ,JK,,,,,,,,,,,,,,,,,,,,,,,,,,,,,,,,,,,,,,,,,,,,,,,,,,,,,,,,,,,,,,6,1.418,,,,,,,,,,,,,,,,,,,,,,,,,,,,space,0.935,0,62,62,72,1,,,,,,,,,,,,,,,,,,,,,,,,,,,,,,,,,,,,,,,,,,,,,,,,,,,,,,,,,,
,,,,112377,001,2023-07-28_03h07.50.219,fluency,2022.2.4,Win32,60.0240096,,,,,,,,,,,,,,,,,,,,,,,,,,,,,,,,,,,,,,,,,,,,,,,,,,,,,,,,,,,,,,,,,,,,,,,,,,,,,,,,,,,,,,,,,,,,,,,,,,,,,,,,,"[""k""]","[""k""]",6,,,,,,0,0,0,0,1,[0.8100000000004002],[0.8100000000004002],,,,,,,,,,,,,,,,,,,,,,,,,,,,,,,,,,,,,,,,,,,,,,,,,,,,,,,,,,,,,,,,,
,,,,112377,001,2023-07-28_03h07.50.219,fluency,2022.2.4,Win32,60.0240096,,,,,,,,,,,,,,,,,,,,,,,10,4,img/B04_10.jpg,MF,Press J if the face is MALE and K if the face is FEMALE, ,JK,,,,,,,,,,,,,,,,,,,,,,,,,,,,,,,,,,,,,,,,,,,,,,,,,,,,,,,,,,,,,,6,2.698,,,,,,,,,,,,,,,,,,,,,,,,,,,,space,0.966,0,63,63,43,1,,,,,,,,,,,,,,,,,,,,,,,,,,,,,,,,,,,,,,,,,,,,,,,,,,,,,,,,,,
,,,,112377,001,2023-07-28_03h07.50.219,fluency,2022.2.4,Win32,60.0240096,,,,,,,,,,,,,,,,,,,,,,,,,,,,,,,,,,,,,,,,,,,,,,,,,,,,,,,,,,,,,,,,,,,,,,,,,,,,,,,,,,,,,,,,,,,,,,,,,,,,,,,,,"[""k""]","[""k""]",6,,,,,,0,0,0,0,1,[1.0579999999999927],[1.0579999999999927],,,,,,,,,,,,,,,,,,,,,,,,,,,,,,,,,,,,,,,,,,,,,,,,,,,,,,,,,,,,,,,,,
,,,,112377,001,2023-07-28_03h07.50.219,fluency,2022.2.4,Win32,60.0240096,,,,,,,,,,,,,,,,,,,,,,,5,8,img/B08_05.jpg,MF,Press J if the face is MALE and K if the face is FEMALE, ,JK,,,,,,,,,,,,,,,,,,,,,,,,,,,,,,,,,,,,,,,,,,,,,,,,,,,,,,,,,,,,,,6,1.6,,,,,,,,,,,,,,,,,,,,,,,,,,,,space,4.235,0,64,64,82,1,,,,,,,,,,,,,,,,,,,,,,,,,,,,,,,,,,,,,,,,,,,,,,,,,,,,,,,,,,
,,,,112377,001,2023-07-28_03h07.50.219,fluency,2022.2.4,Win32,60.0240096,,,,,,,,,,,,,,,,,,,,,,,,,,,,,,,,,,,,,,,,,,,,,,,,,,,,,,,,,,,,,,,,,,,,,,,,,,,,,,,,,,,,,,,,,,,,,,,,,,,,,,,,,"[""k""]","[""k""]",6,,,,,,0,0,0,0,1,[0.6280000000006112],[0.6280000000006112],,,,,,,,,,,,,,,,,,,,,,,,,,,,,,,,,,,,,,,,,,,,,,,,,,,,,,,,,,,,,,,,,
,,,,112377,001,2023-07-28_03h07.50.219,fluency,2022.2.4,Win32,60.0240096,,,,,,,,,,,,,,,,,,,,,,,8,4,img/B04_08.jpg,MF,Press J if the face is MALE and K if the face is FEMALE, ,JK,,,,,,,,,,,,,,,,,,,,,,,,,,,,,,,,,,,,,,,,,,,,,,,,,,,,,,,,,,,,,,5,1.279,,,,,,,,,,,,,,,,,,,,,,,,,,,,space,2.502,0,65,65,41,1,,,,,,,,,,,,,,,,,,,,,,,,,,,,,,,,,,,,,,,,,,,,,,,,,,,,,,,,,,
,,,,112377,001,2023-07-28_03h07.50.219,fluency,2022.2.4,Win32,60.0240096,,,,,,,,,,,,,,,,,,,,,,,,,,,,,,,,,,,,,,,,,,,,,,,,,,,,,,,,,,,,,,,,,,,,,,,,,,,,,,space,2.677,,,,,,,,,,,,,,,,,,,,,,,,,,,,7,0,0,0,0,1,,,,,,,,,,,,,,,,,,,,,,,,,,,,,,,,,,,,,,,,,,,,,,,,,,,,,,,,,,,,,,,,,,,,,,,,
,,,,112377,001,2023-07-28_03h07.50.219,fluency,2022.2.4,Win32,60.0240096,,,,,,,,,,,,,,,,,,,,,,,,,,,,,,,,,,,,,,,,,,,,,,,,,,,,,,,,,,,,,,,,,,,,,,,,,,,,,,,,,,,,,,,,,,,,,,,,,,,,,,,,,,,,,,,,,0,0,0,0,1,,,,,,,,,,,,,,,,,,,,,,,,,,,,,,,,,,,,,,,,,,,,,,,,,,,,,,,,,,,,,,,,,,,
,,,,112377,001,2023-07-28_03h07.50.219,fluency,2022.2.4,Win32,60.0240096,,,,,,,,,,,,,,,,,,,,,,,,,,,,,,,,,,,,,,,,,,,,,,,,,,,,,,,,,,,,,,,,,,,,,,,,,,,,,,,,,,,,,,,,,,,,,,,,,,,,,,,,,"[""j""]","[""j""]",7,,,,,,1,0,1,0,1,[0.5860000000002401],[0.5860000000002401],,,,,,,,,,,,,,,,,,,,,,,,,,,,,,,,,,,,,,,,,,,,,,,,,,,,,,,,,,,,,,,,,
,,,,112377,001,2023-07-28_03h07.50.219,fluency,2022.2.4,Win32,60.0240096,,,,,,,,,,,,,,,,,,,,,,,4,3,img/B03_04.jpg,MF,Press J if the face is MALE and K if the face is FEMALE, ,JK,,,,,,,,,,,,,,,,,,,,,,,,,,,,,,,,,,,,,,,,,,,,,,,,,,,,,,,,,,,,,,5,0.848,,,,,,,,,,,,,,,,,,,,,,,,,,,,space,0.919,0,66,66,26,1,,,,,,,,,,,,,,,,,,,,,,,,,,,,,,,,,,,,,,,,,,,,,,,,,,,,,,,,,,
,,,,112377,001,2023-07-28_03h07.50.219,fluency,2022.2.4,Win32,60.0240096,,,,,,,,,,,,,,,,,,,,,,,,,,,,,,,,,,,,,,,,,,,,,,,,,,,,,,,,,,,,,,,,,,,,,,,,,,,,,,,,,,,,,,,,,,,,,,,,,,,,,,,,,"[""k""]","[""k""]",7,,,,,,0,0,0,0,1,[2.300000000000182],[2.300000000000182],,,,,,,,,,,,,,,,,,,,,,,,,,,,,,,,,,,,,,,,,,,,,,,,,,,,,,,,,,,,,,,,,
,,,,112377,001,2023-07-28_03h07.50.219,fluency,2022.2.4,Win32,60.0240096,,,,,,,,,,,,,,,,,,,,,,,8,9,img/B09_08.jpg,MF,Press J if the face is MALE and K if the face is FEMALE, ,JK,,,,,,,,,,,,,,,,,,,,,,,,,,,,,,,,,,,,,,,,,,,,,,,,,,,,,,,,,,,,,,6,1.463,,,,,,,,,,,,,,,,,,,,,,,,,,,,space,0.736,0,67,67,96,1,,,,,,,,,,,,,,,,,,,,,,,,,,,,,,,,,,,,,,,,,,,,,,,,,,,,,,,,,,
,,,,112377,001,2023-07-28_03h07.50.219,fluency,2022.2.4,Win32,60.0240096,,,,,,,,,,,,,,,,,,,,,,,,,,,,,,,,,,,,,,,,,,,,,,,,,,,,,,,,,,,,,,,,,,,,,,,,,,,,,,,,,,,,,,,,,,,,,,,,,,,,,,,,,"[""j""]","[""j""]",7,,,,,,0,0,0,0,1,[0.6739999999999782],[0.6739999999999782],,,,,,,,,,,,,,,,,,,,,,,,,,,,,,,,,,,,,,,,,,,,,,,,,,,,,,,,,,,,,,,,,
,,,,112377,001,2023-07-28_03h07.50.219,fluency,2022.2.4,Win32,60.0240096,,,,,,,,,,,,,,,,,,,,,,,1,10,img/B10_01.jpg,MF,Press J if the face is MALE and K if the face is FEMALE, ,JK,,,,,,,,,,,,,,,,,,,,,,,,,,,,,,,,,,,,,,,,,,,,,,,,,,,,,,,,,,,,,,5,1.262,,,,,,,,,,,,,,,,,,,,,,,,,,,,space,61.969,0,68,68,100,1,,,,,,,,,,,,,,,,,,,,,,,,,,,,,,,,,,,,,,,,,,,,,,,,,,,,,,,,,,
,,,,112377,001,2023-07-28_03h07.50.219,fluency,2022.2.4,Win32,60.0240096,,,,,,,,,,,,,,,,,,,,,,,,,,,,,,,,,,,,,,,,,,,,,,,,,,,,,,,,,,,,,,,,,,,,,,,,,,,,,,space,1.275,,,,,,,,,,,,,,,,,,,,,,,,,,,,8,0,0,0,0,1,,,,,,,,,,,,,,,,,,,,,,,,,,,,,,,,,,,,,,,,,,,,,,,,,,,,,,,,,,,,,,,,,,,,,,,,
,,,,112377,001,2023-07-28_03h07.50.219,fluency,2022.2.4,Win32,60.0240096,,,,,,,,,,,,,,,,,,,,,,,,,,,,,,,,,,,,,,,,,,,,,,,,,,,,,,,,,,,,,,,,,,,,,,,,,,,,,,,,,,,,,,,,,,,,,,,,,,,,,,,,,,,,,,,,,0,0,0,0,1,,,,,,,,,,,,,,,,,,,,,,,,,,,,,,,,,,,,,,,,,,,,,,,,,,,,,,,,,,,,,,,,,,,
,,,,112377,001,2023-07-28_03h07.50.219,fluency,2022.2.4,Win32,60.0240096,,,,,,,,,,,,,,,,,,,,,,,,,,,,,,,,,,,,,,,,,,,,,,,,,,,,,,,,,,,,,,,,,,,,,,,,,,,,,,,,,,,,,,,,,,,,,,,,,,,,,,,,,"[""j""]","[""j""]",8,,,,,,1,0,1,0,1,[0.6719999999995707],[0.6719999999995707],,,,,,,,,,,,,,,,,,,,,,,,,,,,,,,,,,,,,,,,,,,,,,,,,,,,,,,,,,,,,,,,,
,,,,112377,001,2023-07-28_03h07.50.219,fluency,2022.2.4,Win32,60.0240096,,,,,,,,,,,,,,,,,,,,,,,2,9,img/B09_02.jpg,MF,Press J if the face is MALE and K if the face is FEMALE, ,JK,,,,,,,,,,,,,,,,,,,,,,,,,,,,,,,,,,,,,,,,,,,,,,,,,,,,,,,,,,,,,,6,1.47,,,,,,,,,,,,,,,,,,,,,,,,,,,,space,0.599,0,69,69,90,1,,,,,,,,,,,,,,,,,,,,,,,,,,,,,,,,,,,,,,,,,,,,,,,,,,,,,,,,,,
,,,,112377,001,2023-07-28_03h07.50.219,fluency,2022.2.4,Win32,60.0240096,,,,,,,,,,,,,,,,,,,,,,,,,,,,,,,,,,,,,,,,,,,,,,,,,,,,,,,,,,,,,,,,,,,,,,,,,,,,,,,,,,,,,,,,,,,,,,,,,,,,,,,,,"[""k""]","[""k"",""space""]",8,,,,,,0,0,0,0,1,[0.725999999999658],"[0.725999999999658,1.3400000000001455]",,,,,,,,,,,,,,,,,,,,,,,,,,,,,,,,,,,,,,,,,,,,,,,,,,,,,,,,,,,,,,,,,
,,,,112377,001,2023-07-28_03h07.50.219,fluency,2022.2.4,Win32,60.0240096,,,,,,,,,,,,,,,,,,,,,,,10,10,img/B10_10.jpg,MF,Press J if the face is MALE and K if the face is FEMALE, ,JK,,,,,,,,,,,,,,,,,,,,,,,,,,,,,,,,,,,,,,,,,,,,,,,,,,,,,,,,,,,,,,6,1.23,,,,,,,,,,,,,,,,,,,,,,,,,,,,space,2.122,0,70,70,109,1,,,,,,,,,,,,,,,,,,,,,,,,,,,,,,,,,,,,,,,,,,,,,,,,,,,,,,,,,,
,,,,112377,001,2023-07-28_03h07.50.219,fluency,2022.2.4,Win32,60.0240096,,,,,,,,,,,,,,,,,,,,,,,,,,,,,,,,,,,,,,,,,,,,,,,,,,,,,,,,,,,,,,,,,,,,,,,,,,,,,,,,,,,,,,,,,,,,,,,,,,,,,,,,,"[""k"",""k""]","[""space"",""k"",""k""]",8,,,,,,0,0,0,0,1,"[1.9729999999999563,1.97400000000016]","[0.0020000000004074536,1.9729999999999563,1.97400000000016]",,,,,,,,,,,,,,,,,,,,,,,,,,,,,,,,,,,,,,,,,,,,,,,,,,,,,,,,,,,,,,,,,
,,,,112377,001,2023-07-28_03h07.50.219,fluency,2022.2.4,Win32,60.0240096,,,,,,,,,,,,,,,,,,,,,,,10,7,img/B07_10.jpg,MF,Press J if the face is MALE and K if the face is FEMALE, ,JK,,,,,,,,,,,,,,,,,,,,,,,,,,,,,,,,,,,,,,,,,,,,,,,,,,,,,,,,,,,,,,7,1.381,,,,,,,,,,,,,,,,,,,,,,,,,,,,space,1.21,0,71,71,76,1,,,,,,,,,,,,,,,,,,,,,,,,,,,,,,,,,,,,,,,,,,,,,,,,,,,,,,,,,,
,,,,112377,001,2023-07-28_03h07.50.219,fluency,2022.2.4,Win32,60.0240096,,,,,,,,,,,,,,,,,,,,,,,,,,,,,,,,,,,,,,,,,,,,,,,,,,,,,,,,,,,,,,,,,,,,,,,,,,,,,,space,4.117,,,,,,,,,,,,,,,,,,,,,,,,,,,,9,0,0,0,0,1,,,,,,,,,,,,,,,,,,,,,,,,,,,,,,,,,,,,,,,,,,,,,,,,,,,,,,,,,,,,,,,,,,,,,,,,
,,,,112377,001,2023-07-28_03h07.50.219,fluency,2022.2.4,Win32,60.0240096,,,,,,,,,,,,,,,,,,,,,,,,,,,,,,,,,,,,,,,,,,,,,,,,,,,,,,,,,,,,,,,,,,,,,,,,,,,,,,,,,,,,,,,,,,,,,,,,,,,,,,,,,,,,,,,,,0,0,0,0,1,,,,,,,,,,,,,,,,,,,,,,,,,,,,,,,,,,,,,,,,,,,,,,,,,,,,,,,,,,,,,,,,,,,
,,,,112377,001,2023-07-28_03h07.50.219,fluency,2022.2.4,Win32,60.0240096,,,,,,,,,,,,,,,,,,,,,,,,,,,,,,,,,,,,,,,,,,,,,,,,,,,,,,,,,,,,,,,,,,,,,,,,,,,,,,,,,,,,,,,,,,,,,,,,,,,,,,,,,"[""k""]","[""k""]",9,,,,,,1,0,1,0,1,[0.3289999999997235],[0.3289999999997235],,,,,,,,,,,,,,,,,,,,,,,,,,,,,,,,,,,,,,,,,,,,,,,,,,,,,,,,,,,,,,,,,
,,,,112377,001,2023-07-28_03h07.50.219,fluency,2022.2.4,Win32,60.0240096,,,,,,,,,,,,,,,,,,,,,,,4,2,img/B02_04.jpg,MF,Press J if the face is MALE and K if the face is FEMALE, ,JK,,,,,,,,,,,,,,,,,,,,,,,,,,,,,,,,,,,,,,,,,,,,,,,,,,,,,,,,,,,,,,5,2.359,,,,,,,,,,,,,,,,,,,,,,,,,,,,space,0.984,0,72,72,15,1,,,,,,,,,,,,,,,,,,,,,,,,,,,,,,,,,,,,,,,,,,,,,,,,,,,,,,,,,,
,,,,112377,001,2023-07-28_03h07.50.219,fluency,2022.2.4,Win32,60.0240096,,,,,,,,,,,,,,,,,,,,,,,,,,,,,,,,,,,,,,,,,,,,,,,,,,,,,,,,,,,,,,,,,,,,,,,,,,,,,,,,,,,,,,,,,,,,,,,,,,,,,,,,,"[""j"",""k""]","[""j"",""k""]",9,,,,,,0,0,0,0,1,"[0.3580000000001746,0.6289999999999054]","[0.3580000000001746,0.6289999999999054]",,,,,,,,,,,,,,,,,,,,,,,,,,,,,,,,,,,,,,,,,,,,,,,,,,,,,,,,,,,,,,,,,
,,,,112377,001,2023-07-28_03h07.50.219,fluency,2022.2.4,Win32,60.0240096,,,,,,,,,,,,,,,,,,,,,,,4,5,img/B05_04.jpg,MF,Press J if the face is MALE and K if the face is FEMALE, ,JK,,,,,,,,,,,,,,,,,,,,,,,,,,,,,,,,,,,,,,,,,,,,,,,,,,,,,,,,,,,,,,5,1.664,,,,,,,,,,,,,,,,,,,,,,,,,,,,space,0.466,0,73,73,48,1,,,,,,,,,,,,,,,,,,,,,,,,,,,,,,,,,,,,,,,,,,,,,,,,,,,,,,,,,,
,,,,112377,001,2023-07-28_03h07.50.219,fluency,2022.2.4,Win32,60.0240096,,,,,,,,,,,,,,,,,,,,,,,,,,,,,,,,,,,,,,,,,,,,,,,,,,,,,,,,,,,,,,,,,,,,,,,,,,,,,,space,15.235,,,,,,,,,,,,,,,,,,,,,,,,,,,,10,0,0,0,0,1,,,,,,,,,,,,,,,,,,,,,,,,,,,,,,,,,,,,,,,,,,,,,,,,,,,,,,,,,,,,,,,,,,,,,,,,
,,,,112377,001,2023-07-28_03h07.50.219,fluency,2022.2.4,Win32,60.0240096,,,,,,,,,,,,,,,,,,,,,,,,,,,,,,,,,,,,,,,,,,,,,,,,,,,,,,,,,,,,,,,,,,,,,,,,,,,,,,,,,,,,,,,,,,,,,,,,,,,,,,,,,,,,,,,,,0,0,0,0,1,,,,,,,,,,,,,,,,,,,,,,,,,,,,,,,,,,,,,,,,,,,,,,,,,,,,,,,,,,,,,,,,,,,
,,,,112377,001,2023-07-28_03h07.50.219,fluency,2022.2.4,Win32,60.0240096,,,,,,,,,,,,,,,,,,,,,,,,,,,,,,,,,,,,,,,,,,,,,,,,,,,,,,,,,,,,,,,,,,,,,,,,,,,,,,,,,,,,,,,,,,,,,,,,,,,,,,,,,"[""j""]","[""j""]",10,,,,,,1,0,1,0,1,[1.8999999999996362],[1.8999999999996362],,,,,,,,,,,,,,,,,,,,,,,,,,,,,,,,,,,,,,,,,,,,,,,,,,,,,,,,,,,,,,,,,
,,,,112377,001,2023-07-28_03h07.50.219,fluency,2022.2.4,Win32,60.0240096,,,,,,,,,,,,,,,,,,,,,,,3,6,img/B06_03.jpg,MF,Press J if the face is MALE and K if the face is FEMALE, ,JK,,,,,,,,,,,,,,,,,,,,,,,,,,,,,,,,,,,,,,,,,,,,,,,,,,,,,,,,,,,,,,6,1.765,,,,,,,,,,,,,,,,,,,,,,,,,,,,space,0.883,0,74,74,58,1,,,,,,,,,,,,,,,,,,,,,,,,,,,,,,,,,,,,,,,,,,,,,,,,,,,,,,,,,,
,,,,112377,001,2023-07-28_03h07.50.219,fluency,2022.2.4,Win32,60.0240096,,,,,,,,,,,,,,,,,,,,,,,,,,,,,,,,,,,,,,,,,,,,,,,,,,,,,,,,,,,,,,,,,,,,,,,,,,,,,,space,2.535,,,,,,,,,,,,,,,,,,,,,,,,,,,,11,0,0,0,0,1,,,,,,,,,,,,,,,,,,,,,,,,,,,,,,,,,,,,,,,,,,,,,,,,,,,,,,,,,,,,,,,,,,,,,,,,
,,,,112377,001,2023-07-28_03h07.50.219,fluency,2022.2.4,Win32,60.0240096,,,,,,,,,,,,,,,,,,,,,,,,,,,,,,,,,,,,,,,,,,,,,,,,,,,,,,,,,,,,,,,,,,,,,,,,,,,,,,,,,,,,,,,,,,,,,,,,,,,,,,,,,,,,,,,,,0,0,0,0,1,,,,,,,,,,,,,,,,,,,,,,,,,,,,,,,,,,,,,,,,,,,,,,,,,,,,,,,,,,,,,,,,,,,
,,,,112377,001,2023-07-28_03h07.50.219,fluency,2022.2.4,Win32,60.0240096,,,,,,,,,,,,,,,,,,,,,,,,,,,,,,,,,,,,,,,,,,,,,,,,,,,,,,,,,,,,,,,,,,,,,,,,,,,,,,,,,,,,,,,,,,,,,,,,,,,,,,,,,"[""k""]","[""k"",""space""]",11,,,,,,1,0,1,0,1,[0.5739999999996144],"[0.5739999999996144,1.1400000000003274]",,,,,,,,,,,,,,,,,,,,,,,,,,,,,,,,,,,,,,,,,,,,,,,,,,,,,,,,,,,,,,,,,
,,,,112377,001,2023-07-28_03h07.50.219,fluency,2022.2.4,Win32,60.0240096,,,,,,,,,,,,,,,,,,,,,,,5,10,img/B10_05.jpg,MF,Press J if the face is MALE and K if the face is FEMALE, ,JK,,,,,,,,,,,,,,,,,,,,,,,,,,,,,,,,,,,,,,,,,,,,,,,,,,,,,,,,,,,,,,6,1.38,,,,,,,,,,,,,,,,,,,,,,,,,,,,space,4.085,0,75,75,104,1,,,,,,,,,,,,,,,,,,,,,,,,,,,,,,,,,,,,,,,,,,,,,,,,,,,,,,,,,,
,,,,112377,001,2023-07-28_03h07.50.219,fluency,2022.2.4,Win32,60.0240096,,,,,,,,,,,,,,,,,,,,,,,,,,,,,,,,,,,,,,,,,,,,,,,,,,,,,,,,,,,,,,,,,,,,,,,,,,,,,,,,,,,,,,,,,,,,,,,,,,,,,,,,,"[""j""]","[""j""]",11,,,,,,0,0,0,0,1,[0.6220000000002983],[0.6220000000002983],,,,,,,,,,,,,,,,,,,,,,,,,,,,,,,,,,,,,,,,,,,,,,,,,,,,,,,,,,,,,,,,,
,,,,112377,001,2023-07-28_03h07.50.219,fluency,2022.2.4,Win32,60.0240096,,,,,,,,,,,,,,,,,,,,,,,1,7,img/B07_01.jpg,MF,Press J if the face is MALE and K if the face is FEMALE, ,JK,,,,,,,,,,,,,,,,,,,,,,,,,,,,,,,,,,,,,,,,,,,,,,,,,,,,,,,,,,,,,,4,1.383,,,,,,,,,,,,,,,,,,,,,,,,,,,,space,0.751,0,76,76,67,1,,,,,,,,,,,,,,,,,,,,,,,,,,,,,,,,,,,,,,,,,,,,,,,,,,,,,,,,,,
,,,,112377,001,2023-07-28_03h07.50.219,fluency,2022.2.4,Win32,60.0240096,,,,,,,,,,,,,,,,,,,,,,,,,,,,,,,,,,,,,,,,,,,,,,,,,,,,,,,,,,,,,,,,,,,,,,,,,,,,,,,,,,,,,,,,,,,,,,,,,,,,,,,,,"[""k""]","[""k""]",11,,,,,,0,0,0,0,1,[0.63799999999992],[0.63799999999992],,,,,,,,,,,,,,,,,,,,,,,,,,,,,,,,,,,,,,,,,,,,,,,,,,,,,,,,,,,,,,,,,
,,,,112377,001,2023-07-28_03h07.50.219,fluency,2022.2.4,Win32,60.0240096,,,,,,,,,,,,,,,,,,,,,,,9,2,img/B02_09.jpg,MF,Press J if the face is MALE and K if the face is FEMALE, ,JK,,,,,,,,,,,,,,,,,,,,,,,,,,,,,,,,,,,,,,,,,,,,,,,,,,,,,,,,,,,,,,6,0.346,,,,,,,,,,,,,,,,,,,,,,,,,,,,space,0.584,0,77,77,20,1,,,,,,,,,,,,,,,,,,,,,,,,,,,,,,,,,,,,,,,,,,,,,,,,,,,,,,,,,,
,,,,112377,001,2023-07-28_03h07.50.219,fluency,2022.2.4,Win32,60.0240096,,,,,,,,,,,,,,,,,,,,,,,,,,,,,,,,,,,,,,,,,,,,,,,,,,,,,,,,,,,,,,,,,,,,,,,,,,,,,,,,,,,,,,,,,,,,,,,,,,,,,,,,,"[""k""]","[""k""]",11,,,,,,0,0,0,0,1,[0.6150000000006912],[0.6150000000006912],,,,,,,,,,,,,,,,,,,,,,,,,,,,,,,,,,,,,,,,,,,,,,,,,,,,,,,,,,,,,,,,,
,,,,112377,001,2023-07-28_03h07.50.219,fluency,2022.2.4,Win32,60.0240096,,,,,,,,,,,,,,,,,,,,,,,7,1,img/B01_07.jpg,MF,Press J if the face is MALE and K if the face is FEMALE, ,JK,,,,,,,,,,,,,,,,,,,,,,,,,,,,,,,,,,,,,,,,,,,,,,,,,,,,,,,,,,,,,,6,1.209,,,,,,,,,,,,,,,,,,,,,,,,,,,,space,0.335,0,78,78,7,1,,,,,,,,,,,,,,,,,,,,,,,,,,,,,,,,,,,,,,,,,,,,,,,,,,,,,,,,,,
,,,,112377,001,2023-07-28_03h07.50.219,fluency,2022.2.4,Win32,60.0240096,,,,,,,,,,,,,,,,,,,,,,,,,,,,,,,,,,,,,,,,,,,,,,,,,,,,,,,,,,,,,,,,,,,,,,,,,,,,,,,,,,,,,,,,,,,,,,,,,,,,,,,,,"[""j""]","[""j""]",11,,,,,,0,0,0,0,1,[0.6430000000000291],[0.6430000000000291],,,,,,,,,,,,,,,,,,,,,,,,,,,,,,,,,,,,,,,,,,,,,,,,,,,,,,,,,,,,,,,,,
,,,,112377,001,2023-07-28_03h07.50.219,fluency,2022.2.4,Win32,60.0240096,,,,,,,,,,,,,,,,,,,,,,,2,7,img/B07_02.jpg,MF,Press J if the face is MALE and K if the face is FEMALE, ,JK,,,,,,,,,,,,,,,,,,,,,,,,,,,,,,,,,,,,,,,,,,,,,,,,,,,,,,,,,,,,,,4,0.766,,,,,,,,,,,,,,,,,,,,,,,,,,,,space,0.306,0,79,79,68,1,,,,,,,,,,,,,,,,,,,,,,,,,,,,,,,,,,,,,,,,,,,,,,,,,,,,,,,,,,
,,,,112377,001,2023-07-28_03h07.50.219,fluency,2022.2.4,Win32,60.0240096,,,,,,,,,,,,,,,,,,,,,,,,,,,,,,,,,,,,,,,,,,,,,,,,,,,,,,,,,,,,,,,,,,,,,,,,,,,,,,,,,,,,,,,,,,,,,,,,,,,,,,,,,"[""j""]","[""j""]",11,,,,,,0,0,0,0,1,[0.5979999999999563],[0.5979999999999563],,,,,,,,,,,,,,,,,,,,,,,,,,,,,,,,,,,,,,,,,,,,,,,,,,,,,,,,,,,,,,,,,
,,,,112377,001,2023-07-28_03h07.50.219,fluency,2022.2.4,Win32,60.0240096,,,,,,,,,,,,,,,,,,,,,,,0,7,img/B07_00.jpg,MF,Press J if the face is MALE and K if the face is FEMALE, ,JK,,,,,,,,,,,,,,,,,,,,,,,,,,,,,,,,,,,,,,,,,,,,,,,,,,,,,,,,,,,,,,4,0.83,,,,,,,,,,,,,,,,,,,,,,,,,,,,space,5.101,0,80,80,66,1,,,,,,,,,,,,,,,,,,,,,,,,,,,,,,,,,,,,,,,,,,,,,,,,,,,,,,,,,,
,,,,112377,001,2023-07-28_03h07.50.219,fluency,2022.2.4,Win32,60.0240096,,,,,,,,,,,,,,,,,,,,,,,,,,,,,,,,,,,,,,,,,,,,,,,,,,,,,,,,,,,,,,,,,,,,,,,,,,,,,,,,,,,,,,,,,,,,,,,,,,,,,,,,,"[""k""]","[""k""]",11,,,,,,0,0,0,0,1,[0.6779999999998836],[0.6769999999996799],,,,,,,,,,,,,,,,,,,,,,,,,,,,,,,,,,,,,,,,,,,,,,,,,,,,,,,,,,,,,,,,,
,,,,112377,001,2023-07-28_03h07.50.219,fluency,2022.2.4,Win32,60.0240096,,,,,,,,,,,,,,,,,,,,,,,5,7,img/B07_05.jpg,MF,Press J if the face is MALE and K if the face is FEMALE, ,JK,,,,,,,,,,,,,,,,,,,,,,,,,,,,,,,,,,,,,,,,,,,,,,,,,,,,,,,,,,,,,,6,1.768,,,,,,,,,,,,,,,,,,,,,,,,,,,,space,0.316,0,81,81,71,1,,,,,,,,,,,,,,,,,,,,,,,,,,,,,,,,,,,,,,,,,,,,,,,,,,,,,,,,,,
,,,,112377,001,2023-07-28_03h07.50.219,fluency,2022.2.4,Win32,60.0240096,,,,,,,,,,,,,,,,,,,,,,,,,,,,,,,,,,,,,,,,,,,,,,,,,,,,,,,,,,,,,,,,,,,,,,,,,,,,,,,,,,,,,,,,,,,,,,,,,,,,,,,,,"[""k""]","[""k""]",11,,,,,,0,0,0,0,1,[0.7789999999995416],[0.7789999999995416],,,,,,,,,,,,,,,,,,,,,,,,,,,,,,,,,,,,,,,,,,,,,,,,,,,,,,,,,,,,,,,,,
,,,,112377,001,2023-07-28_03h07.50.219,fluency,2022.2.4,Win32,60.0240096,,,,,,,,,,,,,,,,,,,,,,,7,4,img/B04_07.jpg,MF,Press J if the face is MALE and K if the face is FEMALE, ,JK,,,,,,,,,,,,,,,,,,,,,,,,,,,,,,,,,,,,,,,,,,,,,,,,,,,,,,,,,,,,,,6,0.596,,,,,,,,,,,,,,,,,,,,,,,,,,,,space,0.622,0,82,82,40,1,,,,,,,,,,,,,,,,,,,,,,,,,,,,,,,,,,,,,,,,,,,,,,,,,,,,,,,,,,
,,,,112377,001,2023-07-28_03h07.50.219,fluency,2022.2.4,Win32,60.0240096,,,,,,,,,,,,,,,,,,,,,,,,,,,,,,,,,,,,,,,,,,,,,,,,,,,,,,,,,,,,,,,,,,,,,,,,,,,,,,,,,,,,,,,,,,,,,,,,,,,,,,,,,"[""j""]","[""j""]",11,,,,,,0,0,0,0,1,[0.6409999999996217],[0.6409999999996217],,,,,,,,,,,,,,,,,,,,,,,,,,,,,,,,,,,,,,,,,,,,,,,,,,,,,,,,,,,,,,,,,
,,,,112377,001,2023-07-28_03h07.50.219,fluency,2022.2.4,Win32,60.0240096,,,,,,,,,,,,,,,,,,,,,,,1,6,img/B06_01.jpg,MF,Press J if the face is MALE and K if the face is FEMALE, ,JK,,,,,,,,,,,,,,,,,,,,,,,,,,,,,,,,,,,,,,,,,,,,,,,,,,,,,,,,,,,,,,6,0.786,,,,,,,,,,,,,,,,,,,,,,,,,,,,space,0.585,0,83,83,56,1,,,,,,,,,,,,,,,,,,,,,,,,,,,,,,,,,,,,,,,,,,,,,,,,,,,,,,,,,,
,,,,112377,001,2023-07-28_03h07.50.219,fluency,2022.2.4,Win32,60.0240096,,,,,,,,,,,,,,,,,,,,,,,,,,,,,,,,,,,,,,,,,,,,,,,,,,,,,,,,,,,,,,,,,,,,,,,,,,,,,,,,,,,,,,,,,,,,,,,,,,,,,,,,,"[""k""]","[""k""]",11,,,,,,0,0,0,0,1,[0.6860000000006039],[0.6860000000006039],,,,,,,,,,,,,,,,,,,,,,,,,,,,,,,,,,,,,,,,,,,,,,,,,,,,,,,,,,,,,,,,,
,,,,112377,001,2023-07-28_03h07.50.219,fluency,2022.2.4,Win32,60.0240096,,,,,,,,,,,,,,,,,,,,,,,1,4,img/B04_01.jpg,MF,Press J if the face is MALE and K if the face is FEMALE, ,JK,,,,,,,,,,,,,,,,,,,,,,,,,,,,,,,,,,,,,,,,,,,,,,,,,,,,,,,,,,,,,,5,1.331,,,,,,,,,,,,,,,,,,,,,,,,,,,,space,0.648,0,84,84,34,1,,,,,,,,,,,,,,,,,,,,,,,,,,,,,,,,,,,,,,,,,,,,,,,,,,,,,,,,,,
,,,,112377,001,2023-07-28_03h07.50.219,fluency,2022.2.4,Win32,60.0240096,,,,,,,,,,,,,,,,,,,,,,,,,,,,,,,,,,,,,,,,,,,,,,,,,,,,,,,,,,,,,,,,,,,,,,,,,,,,,,,,,,,,,,,,,,,,,,,,,,,,,,,,,"[""k"",""j""]","[""k"",""j""]",11,,,,,,0,0,0,0,1,"[1.0050000000001091,1.9030000000002474]","[1.0050000000001091,1.9030000000002474]",,,,,,,,,,,,,,,,,,,,,,,,,,,,,,,,,,,,,,,,,,,,,,,,,,,,,,,,,,,,,,,,,
,,,,112377,001,2023-07-28_03h07.50.219,fluency,2022.2.4,Win32,60.0240096,,,,,,,,,,,,,,,,,,,,,,,0,5,img/B05_00.jpg,MF,Press J if the face is MALE and K if the face is FEMALE, ,JK,,,,,,,,,,,,,,,,,,,,,,,,,,,,,,,,,,,,,,,,,,,,,,,,,,,,,,,,,,,,,,6,1.577,,,,,,,,,,,,,,,,,,,,,,,,,,,,space,2.704,0,85,85,44,1,,,,,,,,,,,,,,,,,,,,,,,,,,,,,,,,,,,,,,,,,,,,,,,,,,,,,,,,,,
,,,,112377,001,2023-07-28_03h07.50.219,fluency,2022.2.4,Win32,60.0240096,,,,,,,,,,,,,,,,,,,,,,,,,,,,,,,,,,,,,,,,,,,,,,,,,,,,,,,,,,,,,,,,,,,,,,,,,,,,,,,,,,,,,,,,,,,,,,,,,,,,,,,,,"[""j""]","[""j""]",11,,,,,,0,0,0,0,1,[2.4260000000003856],[2.4260000000003856],,,,,,,,,,,,,,,,,,,,,,,,,,,,,,,,,,,,,,,,,,,,,,,,,,,,,,,,,,,,,,,,,
,,,,112377,001,2023-07-28_03h07.50.219,fluency,2022.2.4,Win32,60.0240096,,,,,,,,,,,,,,,,,,,,,,,0,2,img/B02_00.jpg,MF,Press J if the face is MALE and K if the face is FEMALE, ,JK,,,,,,,,,,,,,,,,,,,,,,,,,,,,,,,,,,,,,,,,,,,,,,,,,,,,,,,,,,,,,,5,2.025,,,,,,,,,,,,,,,,,,,,,,,,,,,,space,0.597,0,86,86,11,1,,,,,,,,,,,,,,,,,,,,,,,,,,,,,,,,,,,,,,,,,,,,,,,,,,,,,,,,,,
,,,,112377,001,2023-07-28_03h07.50.219,fluency,2022.2.4,Win32,60.0240096,,,,,,,,,,,,,,,,,,,,,,,,,,,,,,,,,,,,,,,,,,,,,,,,,,,,,,,,,,,,,,,,,,,,,,,,,,,,,,,,,,,,,,,,,,,,,,,,,,,,,,,,,"[""k""]","[""k""]",11,,,,,,0,0,0,0,1,[0.6239999999997963],[0.6229999999995925],,,,,,,,,,,,,,,,,,,,,,,,,,,,,,,,,,,,,,,,,,,,,,,,,,,,,,,,,,,,,,,,,
,,,,112377,001,2023-07-28_03h07.50.219,fluency,2022.2.4,Win32,60.0240096,,,,,,,,,,,,,,,,,,,,,,,3,8,img/B08_03.jpg,MF,Press J if the face is MALE and K if the face is FEMALE, ,JK,,,,,,,,,,,,,,,,,,,,,,,,,,,,,,,,,,,,,,,,,,,,,,,,,,,,,,,,,,,,,,5,0.801,,,,,,,,,,,,,,,,,,,,,,,,,,,,space,0.55,0,87,87,80,1,,,,,,,,,,,,,,,,,,,,,,,,,,,,,,,,,,,,,,,,,,,,,,,,,,,,,,,,,,
,,,,112377,001,2023-07-28_03h07.50.219,fluency,2022.2.4,Win32,60.0240096,,,,,,,,,,,,,,,,,,,,,,,,,,,,,,,,,,,,,,,,,,,,,,,,,,,,,,,,,,,,,,,,,,,,,,,,,,,,,,,,,,,,,,,,,,,,,,,,,,,,,,,,,"[""k""]","[""k""]",11,,,,,,0,0,0,0,1,[0.5990000000001601],[0.5990000000001601],,,,,,,,,,,,,,,,,,,,,,,,,,,,,,,,,,,,,,,,,,,,,,,,,,,,,,,,,,,,,,,,,
,,,,112377,001,2023-07-28_03h07.50.219,fluency,2022.2.4,Win32,60.0240096,,,,,,,,,,,,,,,,,,,,,,,7,5,img/B05_07.jpg,MF,Press J if the face is MALE and K if the face is FEMALE, ,JK,,,,,,,,,,,,,,,,,,,,,,,,,,,,,,,,,,,,,,,,,,,,,,,,,,,,,,,,,,,,,,5,2.351,,,,,,,,,,,,,,,,,,,,,,,,,,,,space,0.72,0,88,88,51,1,,,,,,,,,,,,,,,,,,,,,,,,,,,,,,,,,,,,,,,,,,,,,,,,,,,,,,,,,,
,,,,112377,001,2023-07-28_03h07.50.219,fluency,2022.2.4,Win32,60.0240096,,,,,,,,,,,,,,,,,,,,,,,,,,,,,,,,,,,,,,,,,,,,,,,,,,,,,,,,,,,,,,,,,,,,,,,,,,,,,,,,,,,,,,,,,,,,,,,,,,,,,,,,,"[""j""]","[""j""]",11,,,,,,0,0,0,0,1,[0.7380000000002838],[0.7380000000002838],,,,,,,,,,,,,,,,,,,,,,,,,,,,,,,,,,,,,,,,,,,,,,,,,,,,,,,,,,,,,,,,,
,,,,112377,001,2023-07-28_03h07.50.219,fluency,2022.2.4,Win32,60.0240096,,,,,,,,,,,,,,,,,,,,,,,1,1,img/B01_01.jpg,MF,Press J if the face is MALE and K if the face is FEMALE, ,JK,,,,,,,,,,,,,,,,,,,,,,,,,,,,,,,,,,,,,,,,,,,,,,,,,,,,,,,,,,,,,,5,1.015,,,,,,,,,,,,,,,,,,,,,,,,,,,,space,1.103,0,89,89,1,1,,,,,,,,,,,,,,,,,,,,,,,,,,,,,,,,,,,,,,,,,,,,,,,,,,,,,,,,,,
,,,,112377,001,2023-07-28_03h07.50.219,fluency,2022.2.4,Win32,60.0240096,,,,,,,,,,,,,,,,,,,,,,,,,,,,,,,,,,,,,,,,,,,,,,,,,,,,,,,,,,,,,,,,,,,,,,,,,,,,,,,,,,,,,,,,,,,,,,,,,,,,,,,,,"[""j""]","[""j""]",11,,,,,,0,0,0,0,1,[1.4949999999998909],[1.4960000000000946],,,,,,,,,,,,,,,,,,,,,,,,,,,,,,,,,,,,,,,,,,,,,,,,,,,,,,,,,,,,,,,,,
,,,,112377,001,2023-07-28_03h07.50.219,fluency,2022.2.4,Win32,60.0240096,,,,,,,,,,,,,,,,,,,,,,,3,9,img/B09_03.jpg,MF,Press J if the face is MALE and K if the face is FEMALE, ,JK,,,,,,,,,,,,,,,,,,,,,,,,,,,,,,,,,,,,,,,,,,,,,,,,,,,,,,,,,,,,,,5,1.551,,,,,,,,,,,,,,,,,,,,,,,,,,,,space,0.618,0,90,90,91,1,,,,,,,,,,,,,,,,,,,,,,,,,,,,,,,,,,,,,,,,,,,,,,,,,,,,,,,,,,
,,,,112377,001,2023-07-28_03h07.50.219,fluency,2022.2.4,Win32,60.0240096,,,,,,,,,,,,,,,,,,,,,,,,,,,,,,,,,,,,,,,,,,,,,,,,,,,,,,,,,,,,,,,,,,,,,,,,,,,,,,,,,,,,,,,,,,,,,,,,,,,,,,,,,"[""k""]","[""k""]",11,,,,,,0,0,0,0,1,[0.7179999999998472],[0.7179999999998472],,,,,,,,,,,,,,,,,,,,,,,,,,,,,,,,,,,,,,,,,,,,,,,,,,,,,,,,,,,,,,,,,
,,,,112377,001,2023-07-28_03h07.50.219,fluency,2022.2.4,Win32,60.0240096,,,,,,,,,,,,,,,,,,,,,,,7,6,img/B06_07.jpg,MF,Press J if the face is MALE and K if the face is FEMALE, ,JK,,,,,,,,,,,,,,,,,,,,,,,,,,,,,,,,,,,,,,,,,,,,,,,,,,,,,,,,,,,,,,5,0.699,,,,,,,,,,,,,,,,,,,,,,,,,,,,space,0.48,0,91,91,62,1,,,,,,,,,,,,,,,,,,,,,,,,,,,,,,,,,,,,,,,,,,,,,,,,,,,,,,,,,,
,,,,112377,001,2023-07-28_03h07.50.219,fluency,2022.2.4,Win32,60.0240096,,,,,,,,,,,,,,,,,,,,,,,,,,,,,,,,,,,,,,,,,,,,,,,,,,,,,,,,,,,,,,,,,,,,,,,,,,,,,,,,,,,,,,,,,,,,,,,,,,,,,,,,,"[""k""]","[""k""]",11,,,,,,0,0,0,0,1,[0.8959999999997308],[0.8959999999997308],,,,,,,,,,,,,,,,,,,,,,,,,,,,,,,,,,,,,,,,,,,,,,,,,,,,,,,,,,,,,,,,,
,,,,112377,001,2023-07-28_03h07.50.219,fluency,2022.2.4,Win32,60.0240096,,,,,,,,,,,,,,,,,,,,,,,8,3,img/B03_08.jpg,MF,Press J if the face is MALE and K if the face is FEMALE, ,JK,,,,,,,,,,,,,,,,,,,,,,,,,,,,,,,,,,,,,,,,,,,,,,,,,,,,,,,,,,,,,,6,1.886,,,,,,,,,,,,,,,,,,,,,,,,,,,,space,0.652,0,92,92,30,1,,,,,,,,,,,,,,,,,,,,,,,,,,,,,,,,,,,,,,,,,,,,,,,,,,,,,,,,,,
,,,,112377,001,2023-07-28_03h07.50.219,fluency,2022.2.4,Win32,60.0240096,,,,,,,,,,,,,,,,,,,,,,,,,,,,,,,,,,,,,,,,,,,,,,,,,,,,,,,,,,,,,,,,,,,,,,,,,,,,,,,,,,,,,,,,,,,,,,,,,,,,,,,,,"[""j""]","[""j""]",11,,,,,,0,0,0,0,1,[0.717000000000553],[0.717000000000553],,,,,,,,,,,,,,,,,,,,,,,,,,,,,,,,,,,,,,,,,,,,,,,,,,,,,,,,,,,,,,,,,
,,,,112377,001,2023-07-28_03h07.50.219,fluency,2022.2.4,Win32,60.0240096,,,,,,,,,,,,,,,,,,,,,,,3,7,img/B07_03.jpg,MF,Press J if the face is MALE and K if the face is FEMALE, ,JK,,,,,,,,,,,,,,,,,,,,,,,,,,,,,,,,,,,,,,,,,,,,,,,,,,,,,,,,,,,,,,4,1.492,,,,,,,,,,,,,,,,,,,,,,,,,,,,space,3.838,0,93,93,69,1,,,,,,,,,,,,,,,,,,,,,,,,,,,,,,,,,,,,,,,,,,,,,,,,,,,,,,,,,,
,,,,112377,001,2023-07-28_03h07.50.219,fluency,2022.2.4,Win32,60.0240096,,,,,,,,,,,,,,,,,,,,,,,,,,,,,,,,,,,,,,,,,,,,,,,,,,,,,,,,,,,,,,,,,,,,,,,,,,,,,,,,,,,,,,,,,,,,,,,,,,,,,,,,,"[""j""]","[""j""]",11,,,,,,0,0,0,0,1,[1.2419999999992797],[1.2419999999992797],,,,,,,,,,,,,,,,,,,,,,,,,,,,,,,,,,,,,,,,,,,,,,,,,,,,,,,,,,,,,,,,,
,,,,112377,001,2023-07-28_03h07.50.219,fluency,2022.2.4,Win32,60.0240096,,,,,,,,,,,,,,,,,,,,,,,0,3,img/B03_00.jpg,MF,Press J if the face is MALE and K if the face is FEMALE, ,JK,,,,,,,,,,,,,,,,,,,,,,,,,,,,,,,,,,,,,,,,,,,,,,,,,,,,,,,,,,,,,,7,1.679,,,,,,,,,,,,,,,,,,,,,,,,,,,,space,0.322,0,94,94,22,1,,,,,,,,,,,,,,,,,,,,,,,,,,,,,,,,,,,,,,,,,,,,,,,,,,,,,,,,,,
,,,,112377,001,2023-07-28_03h07.50.219,fluency,2022.2.4,Win32,60.0240096,,,,,,,,,,,,,,,,,,,,,,,,,,,,,,,,,,,,,,,,,,,,,,,,,,,,,,,,,,,,,,,,,,,,,,,,,,,,,,,,,,,,,,,,,,,,,,,,,,,,,,,,,"[""k""]","[""k""]",11,,,,,,0,0,0,0,1,[0.6190000000005966],[0.6180000000003929],,,,,,,,,,,,,,,,,,,,,,,,,,,,,,,,,,,,,,,,,,,,,,,,,,,,,,,,,,,,,,,,,
,,,,112377,001,2023-07-28_03h07.50.219,fluency,2022.2.4,Win32,60.0240096,,,,,,,,,,,,,,,,,,,,,,,9,4,img/B04_09.jpg,MF,Press J if the face is MALE and K if the face is FEMALE, ,JK,,,,,,,,,,,,,,,,,,,,,,,,,,,,,,,,,,,,,,,,,,,,,,,,,,,,,,,,,,,,,,7,1.831,,,,,,,,,,,,,,,,,,,,,,,,,,,,space,0.537,0,95,95,42,1,,,,,,,,,,,,,,,,,,,,,,,,,,,,,,,,,,,,,,,,,,,,,,,,,,,,,,,,,,
,,,,112377,001,2023-07-28_03h07.50.219,fluency,2022.2.4,Win32,60.0240096,,,,,,,,,,,,,,,,,,,,,,,,,,,,,,,,,,,,,,,,,,,,,,,,,,,,,,,,,,,,,,,,,,,,,,,,,,,,,,,,,,,,,,,,,,,,,,,,,,,,,,,,,"[""k""]","[""k""]",11,,,,,,0,0,0,0,1,[1.2969999999995707],[1.2969999999995707],,,,,,,,,,,,,,,,,,,,,,,,,,,,,,,,,,,,,,,,,,,,,,,,,,,,,,,,,,,,,,,,,
,,,,112377,001,2023-07-28_03h07.50.219,fluency,2022.2.4,Win32,60.0240096,,,,,,,,,,,,,,,,,,,,,,,5,3,img/B03_05.jpg,MF,Press J if the face is MALE and K if the face is FEMALE, ,JK,,,,,,,,,,,,,,,,,,,,,,,,,,,,,,,,,,,,,,,,,,,,,,,,,,,,,,,,,,,,,,6,1.33,,,,,,,,,,,,,,,,,,,,,,,,,,,,space,0.786,0,96,96,27,1,,,,,,,,,,,,,,,,,,,,,,,,,,,,,,,,,,,,,,,,,,,,,,,,,,,,,,,,,,
,,,,112377,001,2023-07-28_03h07.50.219,fluency,2022.2.4,Win32,60.0240096,,,,,,,,,,,,,,,,,,,,,,,,,,,,,,,,,,,,,,,,,,,,,,,,,,,,,,,,,,,,,,,,,,,,,,,,,,,,,,,,,,,,,,,,,,,,,,,,,,,,,,,,,"[""j""]","[""j""]",11,,,,,,0,0,0,0,1,[0.6619999999993524],[0.6619999999993524],,,,,,,,,,,,,,,,,,,,,,,,,,,,,,,,,,,,,,,,,,,,,,,,,,,,,,,,,,,,,,,,,
,,,,112377,001,2023-07-28_03h07.50.219,fluency,2022.2.4,Win32,60.0240096,,,,,,,,,,,,,,,,,,,,,,,0,10,img/B10_00.jpg,MF,Press J if the face is MALE and K if the face is FEMALE, ,JK,,,,,,,,,,,,,,,,,,,,,,,,,,,,,,,,,,,,,,,,,,,,,,,,,,,,,,,,,,,,,,7,1.181,,,,,,,,,,,,,,,,,,,,,,,,,,,,space,0.326,0,97,97,99,1,,,,,,,,,,,,,,,,,,,,,,,,,,,,,,,,,,,,,,,,,,,,,,,,,,,,,,,,,,
,,,,112377,001,2023-07-28_03h07.50.219,fluency,2022.2.4,Win32,60.0240096,,,,,,,,,,,,,,,,,,,,,,,,,,,,,,,,,,,,,,,,,,,,,,,,,,,,,,,,,,,,,,,,,,,,,,,,,,,,,,,,,,,,,,,,,,,,,,,,,,,,,,,,,"[""k""]","[""k""]",11,,,,,,0,0,0,0,1,[0.6530000000002474],[0.6530000000002474],,,,,,,,,,,,,,,,,,,,,,,,,,,,,,,,,,,,,,,,,,,,,,,,,,,,,,,,,,,,,,,,,
,,,,112377,001,2023-07-28_03h07.50.219,fluency,2022.2.4,Win32,60.0240096,,,,,,,,,,,,,,,,,,,,,,,5,2,img/B02_05.jpg,MF,Press J if the face is MALE and K if the face is FEMALE, ,JK,,,,,,,,,,,,,,,,,,,,,,,,,,,,,,,,,,,,,,,,,,,,,,,,,,,,,,,,,,,,,,7,1.416,,,,,,,,,,,,,,,,,,,,,,,,,,,,space,1.27,0,98,98,16,1,,,,,,,,,,,,,,,,,,,,,,,,,,,,,,,,,,,,,,,,,,,,,,,,,,,,,,,,,,
,,,,112377,001,2023-07-28_03h07.50.219,fluency,2022.2.4,Win32,60.0240096,,,,,,,,,,,,,,,,,,,,,,,,,,,,,,,,,,,,,,,,,,,,,,,,,,,,,,,,,,,,,,,,,,,,,,,,,,,,,,,,,,,,,,,,,,,,,,,,,,,,,,,,,"[""k""]","[""k""]",11,,,,,,0,0,0,0,1,[0.7250000000003638],[0.7250000000003638],,,,,,,,,,,,,,,,,,,,,,,,,,,,,,,,,,,,,,,,,,,,,,,,,,,,,,,,,,,,,,,,,
,,,,112377,001,2023-07-28_03h07.50.219,fluency,2022.2.4,Win32,60.0240096,,,,,,,,,,,,,,,,,,,,,,,8,6,img/B06_08.jpg,MF,Press J if the face is MALE and K if the face is FEMALE, ,JK,,,,,,,,,,,,,,,,,,,,,,,,,,,,,,,,,,,,,,,,,,,,,,,,,,,,,,,,,,,,,,7,0.664,,,,,,,,,,,,,,,,,,,,,,,,,,,,space,1.416,0,99,99,63,1,,,,,,,,,,,,,,,,,,,,,,,,,,,,,,,,,,,,,,,,,,,,,,,,,,,,,,,,,,
,,,,112377,001,2023-07-28_03h07.50.219,fluency,2022.2.4,Win32,60.0240096,,,,,,,,,,,,,,,,,,,,,,,,,,,,,,,,,,,,,,,,,,,,,,,,,,,,,,,,,,,,,,,,,,,,,,,,,,,,,,space,7.575,,,,,,,,,,,,,,,,,,,,,,,,,,,,12,0,0,0,0,1,,,,,,,,,,,,,,,,,,,,,,,,,,,,,,,,,,,,,,,,,,,,,,,,,,,,,,,,,,,,,,,,,,,,,,,,
,,,,112377,001,2023-07-28_03h07.50.219,fluency,2022.2.4,Win32,60.0240096,,,,,,,,,,,,,,,,,,,,,,,,,,,,,,,,,,,,,,,,,,,,,,,,,,,,,,,,,,,,,,,,,,,,,,,,,,,,,,,,,,,,,,,,,,,,,,,,,,,,,,,,,,,,,,,,,0,0,0,0,1,,,,,,,,,,,,,,,,,,,,,,,,,,,,,,,,,,,,,,,,,,,,,,,,,,,,,,,,,,,,,,,,,,,
,,,,112377,001,2023-07-28_03h07.50.219,fluency,2022.2.4,Win32,60.0240096,,,,,,,,,,,,,,,,,,,,,,,,,,,,,,,,,,,,,,,,,,,,,,,,,,,,,,,,,,,,,,,,,,,,,,,,,,,,,,,,,,,,,,,,,,,,,,,,,,,,,,,,,"[""k""]","[""k""]",12,,,,,,1,0,1,0,1,[1.0529999999998836],[1.0529999999998836],,,,,,,,,,,,,,,,,,,,,,,,,,,,,,,,,,,,,,,,,,,,,,,,,,,,,,,,,,,,,,,,,
,,,,112377,001,2023-07-28_03h07.50.219,fluency,2022.2.4,Win32,60.0240096,,,,,,,,,,,,,,,,,,,,,,,6,1,img/B01_06.jpg,MF,Press J if the face is MALE and K if the face is FEMALE, ,JK,,,,,,,,,,,,,,,,,,,,,,,,,,,,,,,,,,,,,,,,,,,,,,,,,,,,,,,,,,,,,,6,1.395,,,,,,,,,,,,,,,,,,,,,,,,,,,,space,4.535,0,100,100,6,1,,,,,,,,,,,,,,,,,,,,,,,,,,,,,,,,,,,,,,,,,,,,,,,,,,,,,,,,,,
,,,,112377,001,2023-07-28_03h07.50.219,fluency,2022.2.4,Win32,60.0240096,,,,,,,,,,,,,,,,,,,,,,,,,,,,,,,,,,,,,,,,,,,,,,,,,,,,,,,,,,,,,,,,,,,,,,,,,,,,,,,,,,,,,,,,,,,,,,,,,,,,,,,,,"[""k""]","[""k""]",12,,,,,,0,0,0,0,1,[0.5399999999999636],[0.5399999999999636],,,,,,,,,,,,,,,,,,,,,,,,,,,,,,,,,,,,,,,,,,,,,,,,,,,,,,,,,,,,,,,,,
,,,,112377,001,2023-07-28_03h07.50.219,fluency,2022.2.4,Win32,60.0240096,,,,,,,,,,,,,,,,,,,,,,,6,6,img/B06_06.jpg,MF,Press J if the face is MALE and K if the face is FEMALE, ,JK,,,,,,,,,,,,,,,,,,,,,,,,,,,,,,,,,,,,,,,,,,,,,,,,,,,,,,,,,,,,,,6,1.971,,,,,,,,,,,,,,,,,,,,,,,,,,,,space,0.736,0,101,101,61,1,,,,,,,,,,,,,,,,,,,,,,,,,,,,,,,,,,,,,,,,,,,,,,,,,,,,,,,,,,
,,,,112377,001,2023-07-28_03h07.50.219,fluency,2022.2.4,Win32,60.0240096,,,,,,,,,,,,,,,,,,,,,,,,,,,,,,,,,,,,,,,,,,,,,,,,,,,,,,,,,,,,,,,,,,,,,,,,,,,,,,,,,,,,,,,,,,,,,,,,,,,,,,,,,"[""k""]","[""k""]",12,,,,,,0,0,0,0,1,[2.178999999999178],[2.178999999999178],,,,,,,,,,,,,,,,,,,,,,,,,,,,,,,,,,,,,,,,,,,,,,,,,,,,,,,,,,,,,,,,,
,,,,112377,001,2023-07-28_03h07.50.219,fluency,2022.2.4,Win32,60.0240096,,,,,,,,,,,,,,,,,,,,,,,9,6,img/B06_09.jpg,MF,Press J if the face is MALE and K if the face is FEMALE, ,JK,,,,,,,,,,,,,,,,,,,,,,,,,,,,,,,,,,,,,,,,,,,,,,,,,,,,,,,,,,,,,,7,1.216,,,,,,,,,,,,,,,,,,,,,,,,,,,,space,0.618,0,102,102,64,1,,,,,,,,,,,,,,,,,,,,,,,,,,,,,,,,,,,,,,,,,,,,,,,,,,,,,,,,,,
,,,,112377,001,2023-07-28_03h07.50.219,fluency,2022.2.4,Win32,60.0240096,,,,,,,,,,,,,,,,,,,,,,,,,,,,,,,,,,,,,,,,,,,,,,,,,,,,,,,,,,,,,,,,,,,,,,,,,,,,,,,,,,,,,,,,,,,,,,,,,,,,,,,,,"[""k""]","[""k""]",12,,,,,,0,0,0,0,1,[0.6869999999998981],[0.6869999999998981],,,,,,,,,,,,,,,,,,,,,,,,,,,,,,,,,,,,,,,,,,,,,,,,,,,,,,,,,,,,,,,,,
,,,,112377,001,2023-07-28_03h07.50.219,fluency,2022.2.4,Win32,60.0240096,,,,,,,,,,,,,,,,,,,,,,,2,8,img/B08_02.jpg,MF,Press J if the face is MALE and K if the face is FEMALE, ,JK,,,,,,,,,,,,,,,,,,,,,,,,,,,,,,,,,,,,,,,,,,,,,,,,,,,,,,,,,,,,,,7,1.311,,,,,,,,,,,,,,,,,,,,,,,,,,,,space,0.853,0,103,103,79,1,,,,,,,,,,,,,,,,,,,,,,,,,,,,,,,,,,,,,,,,,,,,,,,,,,,,,,,,,,
,,,,112377,001,2023-07-28_03h07.50.219,fluency,2022.2.4,Win32,60.0240096,,,,,,,,,,,,,,,,,,,,,,,,,,,,,,,,,,,,,,,,,,,,,,,,,,,,,,,,,,,,,,,,,,,,,,,,,,,,,,,,,,,,,,,,,,,,,,,,,,,,,,,,,"[""j""]","[""j""]",12,,,,,,0,0,0,0,1,[0.714999999999236],[0.714999999999236],,,,,,,,,,,,,,,,,,,,,,,,,,,,,,,,,,,,,,,,,,,,,,,,,,,,,,,,,,,,,,,,,
,,,,112377,001,2023-07-28_03h07.50.219,fluency,2022.2.4,Win32,60.0240096,,,,,,,,,,,,,,,,,,,,,,,4,6,img/B06_04.jpg,MF,Press J if the face is MALE and K if the face is FEMALE, ,JK,,,,,,,,,,,,,,,,,,,,,,,,,,,,,,,,,,,,,,,,,,,,,,,,,,,,,,,,,,,,,,6,1.433,,,,,,,,,,,,,,,,,,,,,,,,,,,,space,1.252,0,104,104,59,1,,,,,,,,,,,,,,,,,,,,,,,,,,,,,,,,,,,,,,,,,,,,,,,,,,,,,,,,,,
,,,,112377,001,2023-07-28_03h07.50.219,fluency,2022.2.4,Win32,60.0240096,,,,,,,,,,,,,,,,,,,,,,,,,,,,,,,,,,,,,,,,,,,,,,,,,,,,,,,,,,,,,,,,,,,,,,,,,,,,,,,,,,,,,,,,,,,,,,,,,,,,,,,,,"[""k""]","[""k""]",12,,,,,,0,0,0,0,1,[0.7650000000003274],[0.7650000000003274],,,,,,,,,,,,,,,,,,,,,,,,,,,,,,,,,,,,,,,,,,,,,,,,,,,,,,,,,,,,,,,,,
,,,,112377,001,2023-07-28_03h07.50.219,fluency,2022.2.4,Win32,60.0240096,,,,,,,,,,,,,,,,,,,,,,,8,5,img/B05_08.jpg,MF,Press J if the face is MALE and K if the face is FEMALE, ,JK,,,,,,,,,,,,,,,,,,,,,,,,,,,,,,,,,,,,,,,,,,,,,,,,,,,,,,,,,,,,,,7,1.019,,,,,,,,,,,,,,,,,,,,,,,,,,,,space,0.525,0,105,105,52,1,,,,,,,,,,,,,,,,,,,,,,,,,,,,,,,,,,,,,,,,,,,,,,,,,,,,,,,,,,
,,,,112377,001,2023-07-28_03h07.50.219,fluency,2022.2.4,Win32,60.0240096,,,,,,,,,,,,,,,,,,,,,,,,,,,,,,,,,,,,,,,,,,,,,,,,,,,,,,,,,,,,,,,,,,,,,,,,,,,,,,,,,,,,,,,,,,,,,,,,,,,,,,,,,"[""j""]","[""j""]",12,,,,,,0,0,0,0,1,[0.6880000000001019],[0.6880000000001019],,,,,,,,,,,,,,,,,,,,,,,,,,,,,,,,,,,,,,,,,,,,,,,,,,,,,,,,,,,,,,,,,
,,,,112377,001,2023-07-28_03h07.50.219,fluency,2022.2.4,Win32,60.0240096,,,,,,,,,,,,,,,,,,,,,,,2,10,img/B10_02.jpg,MF,Press J if the face is MALE and K if the face is FEMALE, ,JK,,,,,,,,,,,,,,,,,,,,,,,,,,,,,,,,,,,,,,,,,,,,,,,,,,,,,,,,,,,,,,6,1.433,,,,,,,,,,,,,,,,,,,,,,,,,,,,space,2.253,0,106,106,101,1,,,,,,,,,,,,,,,,,,,,,,,,,,,,,,,,,,,,,,,,,,,,,,,,,,,,,,,,,,
,,,,112377,001,2023-07-28_03h07.50.219,fluency,2022.2.4,Win32,60.0240096,,,,,,,,,,,,,,,,,,,,,,,,,,,,,,,,,,,,,,,,,,,,,,,,,,,,,,,,,,,,,,,,,,,,,,,,,,,,,,,,,,,,,,,,,,,,,,,,,,,,,,,,,"[""j""]","[""j""]",12,,,,,,0,0,0,0,1,[1.606999999999971],[1.606999999999971],,,,,,,,,,,,,,,,,,,,,,,,,,,,,,,,,,,,,,,,,,,,,,,,,,,,,,,,,,,,,,,,,
,,,,112377,001,2023-07-28_03h07.50.219,fluency,2022.2.4,Win32,60.0240096,,,,,,,,,,,,,,,,,,,,,,,9,1,img/B01_09.jpg,MF,Press J if the face is MALE and K if the face is FEMALE, ,JK,,,,,,,,,,,,,,,,,,,,,,,,,,,,,,,,,,,,,,,,,,,,,,,,,,,,,,,,,,,,,,7,1.203,,,,,,,,,,,,,,,,,,,,,,,,,,,,space,0.388,0,107,107,9,1,,,,,,,,,,,,,,,,,,,,,,,,,,,,,,,,,,,,,,,,,,,,,,,,,,,,,,,,,,
,,,,112377,001,2023-07-28_03h07.50.219,fluency,2022.2.4,Win32,60.0240096,,,,,,,,,,,,,,,,,,,,,,,,,,,,,,,,,,,,,,,,,,,,,,,,,,,,,,,,,,,,,,,,,,,,,,,,,,,,,,,,,,,,,,,,,,,,,,,,,,,,,,,,,"[""j""]","[""j""]",12,,,,,,0,0,0,0,1,[0.5640000000003056],[0.5640000000003056],,,,,,,,,,,,,,,,,,,,,,,,,,,,,,,,,,,,,,,,,,,,,,,,,,,,,,,,,,,,,,,,,
,,,,112377,001,2023-07-28_03h07.50.219,fluency,2022.2.4,Win32,60.0240096,,,,,,,,,,,,,,,,,,,,,,,0,4,img/B04_00.jpg,MF,Press J if the face is MALE and K if the face is FEMALE, ,JK,,,,,,,,,,,,,,,,,,,,,,,,,,,,,,,,,,,,,,,,,,,,,,,,,,,,,,,,,,,,,,7,3.144,,,,,,,,,,,,,,,,,,,,,,,,,,,,space,0.469,0,108,108,33,1,,,,,,,,,,,,,,,,,,,,,,,,,,,,,,,,,,,,,,,,,,,,,,,,,,,,,,,,,,
,,,,112377,001,2023-07-28_03h07.50.219,fluency,2022.2.4,Win32,60.0240096,,,,,,,,,,,,,,,,,,,,,,,,,,,,,,,,,,,,,,,,,,,,,,,,,,,,,,,,,,,,,,,,,,,,,,,,,,,,,,,,,,,,,,,,,,,,,,,,,,,,,,,,,"[""k""]","[""k""]",12,,,,,,0,0,0,0,1,[0.61200000000008],[0.61200000000008],,,,,,,,,,,,,,,,,,,,,,,,,,,,,,,,,,,,,,,,,,,,,,,,,,,,,,,,,,,,,,,,,
,,,,112377,001,2023-07-28_03h07.50.219,fluency,2022.2.4,Win32,60.0240096,,,,,,,,,,,,,,,,,,,,,,,5,4,img/B04_05.jpg,MF,Press J if the face is MALE and K if the face is FEMALE, ,JK,,,,,,,,,,,,,,,,,,,,,,,,,,,,,,,,,,,,,,,,,,,,,,,,,,,,,,,,,,,,,,6,0.996,,,,,,,,,,,,,,,,,,,,,,,,,,,,space,0.4,0,109,109,38,1,,,,,,,,,,,,,,,,,,,,,,,,,,,,,,,,,,,,,,,,,,,,,,,,,,,,,,,,,,
,,,,112377,001,2023-07-28_03h07.50.219,fluency,2022.2.4,Win32,60.0240096,,,,,,,,,,,,,,,,,,,,,,,,,,,,,,,,,,,,,,,,,,,,,,,,,,,,,,,,,,,,,,,,,,,,,,,,,,,,,,,,,,,,,,,,,,,,,,,,,,,,,,,,,,,,,,,,,,,,,,,,,,,,,,,space,9.055,,,,,,,,,,,,,,,,,,,,,,,,,,,,,,,,,,,,,,,,,,,,,,,,,,,,,,,,
,,,,112377,001,2023-07-28_03h07.50.219,fluency,2022.2.4,Win32,60.0240096,,,,,,,,,,,,,,,,,,,,,,,,,,,,,,,,,,,,,,,,,,,,,,,,,,,,,,,,,,,,,,,,,,,,,,,,,,,,,,,,,,,,,,,,,,,,,,,,,,,,,,,,,,,,,,,,,,,,,,,,,,,,,,,,,4,27.272,5,36.491,3,48.699,6,54.877,1,[3.217999999999847],[3.217999999999847],,,,,,,,,,,,,,,,,,,,,,,,,,,,,,,,,,,,,,,,,,,,,
,,,,112377,001,2023-07-28_03h07.50.219,fluency,2022.2.4,Win32,60.0240096,,,,,,,,,,,,,,,,,,,,,,,,,,,,,,,,,,,,,,,,,,,,,,,,,,,,,,,,,,,,,,,,,,,,,,,,,,,,,,,,,,,,,,,,,,,,,,,,,,,,,,,,,,,,,,,,,,,,,,,,,,,,,,,,,,,,,,,,,,,,4,9.908,5,17.946,3,24.423,5,29.857,1,[2.6340000000000146],[2.6340000000000146],,,,,,,,,,,,,,,,,,,,,,,,,,,,,,,,,,
,,,,112377,001,2023-07-28_03h07.50.219,fluency,2022.2.4,Win32,60.0240096,,,,,,,,,,,,,,,,,,,,,,,,,,,,,,,,,,,,,,,,,,,,,,,,,,,,,,,,,,,,,,,,,,,,,,,,,,,,,,,,,,,,,,,,,,,,,,,,,,,,,,,,,,,,,,,,,,,,,,,,,,,,,,,,,,,,,,,,,,,,,,,,,,,,,,,5,11.735,5,19.894,3,27.221,4,30.953,1,[0.9380000000001019],[0.9390000000003056],,,,,,,,,,,,,,,,,,,,,,,
,,,,112377,001,2023-07-28_03h07.50.219,fluency,2022.2.4,Win32,60.0240096,,,,,,,,,,,,,,,,,,,,,,,,,,,,,,,,,,,,,,,,,,,,,,,,,,,,,,,,,,,,,,,,,,,,,,,,,,,,,,,,,,,,,,,,,,,,,,,,,,,,,,,,,,,,,,,,,,,,,,,,,,,,,,,,,,,,,,,,,,,,,,,,,,,,,,,,,,,,,,,,,,5,8.122,3,13.403,3,91.901,1,[8.483000000000175],[8.484000000000378],,,,,,,,,,,,,,
,,,,112377,001,2023-07-28_03h07.50.219,fluency,2022.2.4,Win32,60.0240096,,,,,,,,,,,,,,,,,,,,,,,,,,,,,,,,,,,,,,,,,,,,,,,,,,,,,,,,,,,,,,,,,,,,,,,,,,,,,,,,,,,,,,,,,,,,,,,,,,,,,,,,,,,,,,,,,,,,,,,,,,,,,,,,,,,,,,,,,,,,,,,,,,,,,,,,,,,,,,,,,,,,,,,,,,,4,100.078,5,102.513,,1,[1.282999999999447],[1.2839999999996508],,,,,,
,,,,112377,001,2023-07-28_03h07.50.219,fluency,2022.2.4,Win32,60.0240096,,,,,,,,,,,,,,,,,,,,,,,,,,,,,,,,,,,,,,,,,,,,,,,,,,,,,,,,,,,,,,,,,,,,,,,,,,,,,,,,,,,,,,,,,,,,,,,,,,,,,,,,,,,,,,,,,,,,,,,,,,,,,,,,,,,,,,,,,,,,,,,,,,,,,,,,,,,,,,,,,,,,,,,,,,,,,,,,,,,I sometimes looked to the throath and hair. also face lines were noticed,1,[71.21500000000015],[71.21600000000035],,
,,,,112377,001,2023-07-28_03h07.50.219,fluency,2022.2.4,Win32,60.0240096,,,,,,,,,,,,,,,,,,,,,,,,,,,,,,,,,,,,,,,,,,,,,,,,,,,,,,,,,,,,,,,,,,,,,,,,,,,,,,,,,,,,,,,,,,,,,,,,,,,,,,,,,,,,,,,,,,,,,,,,,,,,,,,,,,,,,,,,,,,,,,,,,,,,,,,,,,,,,,,,,,,,,,,,,,,,,,,,,,,,,,,space,27.198
