idTextbox.text,welcomeDone.numClicks,welcomeDone.timesOn,welcomeDone.timesOff,participant,session,date,expName,psychopyVersion,OS,frameRate,consent_advance.keys,consent_advance.rt,consent_advance_2.keys,consent_advance_2.rt,consentClick.x,consentClick.y,consentClick.leftButton,consentClick.midButton,consentClick.rightButton,consentClick.time,consentClick.clicked_name,instr_advance_3.keys,instr_advance_3.rt,spec_instr_adv.keys,spec_instr_adv.rt,spec_instr_adv2.keys,spec_instr_adv2.rt,instrLoop.thisRepN,instrLoop.thisTrialN,instrLoop.thisN,instrLoop.thisIndex,instrLoop.ran,steps,fams,face_file,cond,instr,term,key_map,attnKeyResp1.keys,attnKeyResp1.rt,q1.thisRepN,q1.thisTrialN,q1.thisN,q1.thisIndex,q1.ran,attnKeyResp2.keys,attnKeyResp2.rt,q2.thisRepN,q2.thisTrialN,q2.thisN,q2.thisIndex,q2.ran,attnKeyResp3.keys,attnKeyResp3.rt,q3.thisRepN,q3.thisTrialN,q3.thisN,q3.thisIndex,q3.ran,practiceStart.keys,practiceStart.rt,practiceResp.keys,practiceResp.rt,timesRedone,practiceRepeat.thisRepN,practiceRepeat.thisTrialN,practiceRepeat.thisN,practiceRepeat.thisIndex,practiceRepeat.ran,attrRating.keys,attrRating.rt,practiceTrial.thisRepN,practiceTrial.thisTrialN,practiceTrial.thisN,practiceTrial.thisIndex,practiceTrial.ran,key_resp_3.keys,key_resp_3.rt,attnChecker.thisRepN,attnChecker.thisTrialN,attnChecker.thisN,attnChecker.thisIndex,attnChecker.ran,catResp.keys,catResp.rt,catRespPress,repeat_loop.thisRepN,repeat_loop.thisTrialN,repeat_loop.thisN,repeat_loop.thisIndex,repeat_loop.ran,contResp.keys,contResp.rt,trials.thisRepN,trials.thisTrialN,trials.thisN,trials.thisIndex,trials.ran,contResp_2.keys,contResp_2.rt,respQ1.response,respQ1.rt,respQ2.response,respQ2.rt,respQ3.response,respQ3.rt,respQ4.response,respQ4.rt,surveyContinue1.numClicks,surveyContinue1.timesOn,surveyContinue1.timesOff,respQ5.response,respQ5.rt,respQ6.response,respQ6.rt,respQ7.response,respQ7.rt,respQ8.response,respQ8.rt,surveyContinue2.numClicks,surveyContinue2.timesOn,surveyContinue2.timesOff,respQ9.response,respQ9.rt,respQ10.response,respQ10.rt,respQ11.response,respQ11.rt,respQ12.response,respQ12.rt,surveyContinue3.numClicks,surveyContinue3.timesOn,surveyContinue3.timesOff,respQ13.response,respQ13.rt,respQ14.response,respQ14.rt,respQ15.response,respQ15.rt,surveyContinue4.numClicks,surveyContinue4.timesOn,surveyContinue4.timesOff,respAge.response,respAge.rt,genderResp1.response,genderResp1.rt,genderResp2.text,demogexitClick.numClicks,demogexitClick.timesOn,demogexitClick.timesOff,textbox.text,openAnswerClick.numClicks,openAnswerClick.timesOn,openAnswerClick.timesOff,debriefEnd.keys,debriefEnd.rt
617305abc8cde4cf0e08255b,1,[20.75029999995232],[20.750400000095368],135992,001,2023-05-03_20h49.18.471,fluency,2022.2.5,Win32,144.5922499,,,,,,,,,,,,,,,,,,,,,,,,,,,,,,,,,,,,,,,,,,,,,,,,,,,,,,,,,,,,,,,,,,,,,,,,,,,,,,,,,,,,,,,,,,,,,,,,,,,,,,,,,,,,,,,,,,,,,,,,,,,,,,,,,,,,,,,,,,,,,,,,,,,
,,,,135992,001,2023-05-03_20h49.18.471,fluency,2022.2.5,Win32,144.5922499,space,5.1251,,,,,,,,,,,,,,,,,,,,,,,,,,,,,,,,,,,,,,,,,,,,,,,,,,,,,,,,,,,,,,,,,,,,,,,,,,,,,,,,,,,,,,,,,,,,,,,,,,,,,,,,,,,,,,,,,,,,,,,,,,,,,,,,,,,,,,,,,,,,,,,,,
,,,,135992,001,2023-05-03_20h49.18.471,fluency,2022.2.5,Win32,144.5922499,,,space,8.3418,,,,,,,,,,,,,,,,,,,,,,,,,,,,,,,,,,,,,,,,,,,,,,,,,,,,,,,,,,,,,,,,,,,,,,,,,,,,,,,,,,,,,,,,,,,,,,,,,,,,,,,,,,,,,,,,,,,,,,,,,,,,,,,,,,,,,,,,,,,,,,,
,,,,135992,001,2023-05-03_20h49.18.471,fluency,2022.2.5,Win32,144.5922499,,,,,0.272477155,-0.324745068,1,0,0,1.8328,iAgree,,,,,,,,,,,,,,,,,,,,,,,,,,,,,,,,,,,,,,,,,,,,,,,,,,,,,,,,,,,,,,,,,,,,,,,,,,,,,,,,,,,,,,,,,,,,,,,,,,,,,,,,,,,,,,,,,,,,,,,,,,,,,,,,,,,,,,,,
,,,,135992,001,2023-05-03_20h49.18.471,fluency,2022.2.5,Win32,144.5922499,,,,,,,,,,,,space,2.8729,,,,,,,,,,,,,,,,,,,,,,,,,,,,,,,,,,,,,,,,,,,,,,,,,,,,,,,,,,,,,,,,,,,,,,,,,,,,,,,,,,,,,,,,,,,,,,,,,,,,,,,,,,,,,,,,,,,,,,,,,,,,,,,,,,,,,,
,,,,135992,001,2023-05-03_20h49.18.471,fluency,2022.2.5,Win32,144.5922499,,,,,,,,,,,,,,space,16.1087,space,5.3844,0,0,0,58,1,3,6,img/B06_03.jpg,CONTROL,Press J as soon as you see a face, ,JK,,,,,,,,,,,,,,,,,,,,,,,,,,,,,,,,,,,,,,,,,,,,,,,,,,,,,,,,,,,,,,,,,,,,,,,,,,,,,,,,,,,,,,,,,,,,,,,,,,,,,,,,,,,,,,,,,,,,,,
,,,,135992,001,2023-05-03_20h49.18.471,fluency,2022.2.5,Win32,144.5922499,,,,,,,,,,,,,,,,,,,,,,,,,,,,,,c,8.7198,0,0,0,0,1,,,,,,,,,,,,,,,,,,,,,,,,,,,,,,,,,,,,,,,,,,,,,,,,,,,,,,,,,,,,,,,,,,,,,,,,,,,,,,,,,,,,,,,,,,,,,,,,,,,,,,,,,,,,,,,
,,,,135992,001,2023-05-03_20h49.18.471,fluency,2022.2.5,Win32,144.5922499,,,,,,,,,,,,,,,,,,,,,,,,,,,,,,,,,,,,,a,8.2751,0,0,0,0,1,,,,,,,,,,,,,,,,,,,,,,,,,,,,,,,,,,,,,,,,,,,,,,,,,,,,,,,,,,,,,,,,,,,,,,,,,,,,,,,,,,,,,,,,,,,,,,,,,,,,,,,,
,,,,135992,001,2023-05-03_20h49.18.471,fluency,2022.2.5,Win32,144.5922499,,,,,,,,,,,,,,,,,,,,,,,,,,,,,,,,,,,,,,,,,,,,c,10.2865,0,0,0,0,1,,,,,,,,,,,,,,,,,,,,,,,,,,,,,,,,,,,,,,,,,,,,,,,,,,,,,,,,,,,,,,,,,,,,,,,,,,,,,,,,,,,,,,,,,,,,,,,,,
,,,,135992,001,2023-05-03_20h49.18.471,fluency,2022.2.5,Win32,144.5922499,,,,,,,,,,,,,,,,,,,,,,,,,,,,,,,,,,,,,,,,,,,,,,,,,,,space,12.0516,j,0.3838,0,0,0,0,0,1,,,,,,,,,,,,,,,,,,,,,,,,,,,,,,,,,,,,,,,,,,,,,,,,,,,,,,,,,,,,,,,,,,,,,,,,,,,,,,,,,,,,,,,
,,,,135992,001,2023-05-03_20h49.18.471,fluency,2022.2.5,Win32,144.5922499,,,,,,,,,,,,,,,,,,,,,,,,,,,,,,,,,,,,,,,,,,,,,,,,,,,,,,,,,,,,,7,78.3522,0,0,0,0,1,,,,,,,,,,,,,,,,,,,,,,,,,,,,,,,,,,,,,,,,,,,,,,,,,,,,,,,,,,,,,,,,,,,,,,,,,,,,,,,,
,,,,135992,001,2023-05-03_20h49.18.471,fluency,2022.2.5,Win32,144.5922499,,,,,,,,,,,,,,,,,,,,,,,,,,,,,,,,,,,,,,,,,,,,,,,,,,,,,,,,,,,,,,,,,,,,space,6.5425,0,0,0,0,1,,,,,,,,,,,,,,,,,,,,,,,,,,,,,,,,,,,,,,,,,,,,,,,,,,,,,,,,,,,,,,,,,,,,,,,,,
,,,,135992,001,2023-05-03_20h49.18.471,fluency,2022.2.5,Win32,144.5922499,,,,,,,,,,,,,,,,,,,,,,,,,,,,,,,,,,,,,,,,,,,,,,,,,,,,,,,0,,,,,,,,,,,,,,,,,,,,j,0.3344,"[""space"",""j"",""space"",""return"",""j"",""space"",""space"",""j"",""j"",""j"",""return"",""space"",""7"",""space"",""j""]",0,0,0,0,1,,,,,,,,,,,,,,,,,,,,,,,,,,,,,,,,,,,,,,,,,,,,,,,,,,,,,,,,,,,,,,,,,
,,,,135992,001,2023-05-03_20h49.18.471,fluency,2022.2.5,Win32,144.5922499,,,,,,,,,,,,,,,,,,,,,,,0,3,img/B03_00.jpg,CONTROL,Press J as soon as you see a face, ,JK,,,,,,,,,,,,,,,,,,,,,,,,,,,,,,,,7,1.9264,,,,,,,,,,,,,,,,,,,,,space,4.6718,0,0,0,22,1,,,,,,,,,,,,,,,,,,,,,,,,,,,,,,,,,,,,,,,,,,,,,,,,,,,,,,,,,,
,,,,135992,001,2023-05-03_20h49.18.471,fluency,2022.2.5,Win32,144.5922499,,,,,,,,,,,,,,,,,,,,,,,,,,,,,,,,,,,,,,,,,,,,,,,,,,,,,,,0,,,,,,,,,,,,,,,,,,,,j,0.2757,"[""7"",""space"",""j""]",0,0,0,0,1,,,,,,,,,,,,,,,,,,,,,,,,,,,,,,,,,,,,,,,,,,,,,,,,,,,,,,,,,,,,,,,,,
,,,,135992,001,2023-05-03_20h49.18.471,fluency,2022.2.5,Win32,144.5922499,,,,,,,,,,,,,,,,,,,,,,,10,4,img/B04_10.jpg,CONTROL,Press J as soon as you see a face, ,JK,,,,,,,,,,,,,,,,,,,,,,,,,,,,,,,,4,1.5125,,,,,,,,,,,,,,,,,,,,,space,1.5409,0,1,1,43,1,,,,,,,,,,,,,,,,,,,,,,,,,,,,,,,,,,,,,,,,,,,,,,,,,,,,,,,,,,
,,,,135992,001,2023-05-03_20h49.18.471,fluency,2022.2.5,Win32,144.5922499,,,,,,,,,,,,,,,,,,,,,,,,,,,,,,,,,,,,,,,,,,,,,,,,,,,,,,,0,,,,,,,,,,,,,,,,,,,,j,0.3513,"[""4"",""space"",""j""]",0,0,0,0,1,,,,,,,,,,,,,,,,,,,,,,,,,,,,,,,,,,,,,,,,,,,,,,,,,,,,,,,,,,,,,,,,,
,,,,135992,001,2023-05-03_20h49.18.471,fluency,2022.2.5,Win32,144.5922499,,,,,,,,,,,,,,,,,,,,,,,4,3,img/B03_04.jpg,CONTROL,Press J as soon as you see a face, ,JK,,,,,,,,,,,,,,,,,,,,,,,,,,,,,,,,6,2.0728,,,,,,,,,,,,,,,,,,,,,space,1.2606,0,2,2,26,1,,,,,,,,,,,,,,,,,,,,,,,,,,,,,,,,,,,,,,,,,,,,,,,,,,,,,,,,,,
,,,,135992,001,2023-05-03_20h49.18.471,fluency,2022.2.5,Win32,144.5922499,,,,,,,,,,,,,,,,,,,,,,,,,,,,,,,,,,,,,,,,,,,,,,,,,,,,,,,0,,,,,,,,,,,,,,,,,,,,j,0.2331,"[""6"",""space"",""j""]",0,0,0,0,1,,,,,,,,,,,,,,,,,,,,,,,,,,,,,,,,,,,,,,,,,,,,,,,,,,,,,,,,,,,,,,,,,
,,,,135992,001,2023-05-03_20h49.18.471,fluency,2022.2.5,Win32,144.5922499,,,,,,,,,,,,,,,,,,,,,,,0,8,img/B08_00.jpg,CONTROL,Press J as soon as you see a face, ,JK,,,,,,,,,,,,,,,,,,,,,,,,,,,,,,,,7,1.0881,,,,,,,,,,,,,,,,,,,,,space,0.3102,0,3,3,77,1,,,,,,,,,,,,,,,,,,,,,,,,,,,,,,,,,,,,,,,,,,,,,,,,,,,,,,,,,,
,,,,135992,001,2023-05-03_20h49.18.471,fluency,2022.2.5,Win32,144.5922499,,,,,,,,,,,,,,,,,,,,,,,,,,,,,,,,,,,,,,,,,,,,,,,,,,,,,,,0,,,,,,,,,,,,,,,,,,,,j,0.2999,"[""7"",""space"",""j""]",0,0,0,0,1,,,,,,,,,,,,,,,,,,,,,,,,,,,,,,,,,,,,,,,,,,,,,,,,,,,,,,,,,,,,,,,,,
,,,,135992,001,2023-05-03_20h49.18.471,fluency,2022.2.5,Win32,144.5922499,,,,,,,,,,,,,,,,,,,,,,,4,6,img/B06_04.jpg,CONTROL,Press J as soon as you see a face, ,JK,,,,,,,,,,,,,,,,,,,,,,,,,,,,,,,,7,1.5129,,,,,,,,,,,,,,,,,,,,,space,0.6757,0,4,4,59,1,,,,,,,,,,,,,,,,,,,,,,,,,,,,,,,,,,,,,,,,,,,,,,,,,,,,,,,,,,
,,,,135992,001,2023-05-03_20h49.18.471,fluency,2022.2.5,Win32,144.5922499,,,,,,,,,,,,,,,,,,,,,,,,,,,,,,,,,,,,,,,,,,,,,,,,,,,,,,,0,,,,,,,,,,,,,,,,,,,,j,0.2238,"[""7"",""space"",""j""]",0,0,0,0,1,,,,,,,,,,,,,,,,,,,,,,,,,,,,,,,,,,,,,,,,,,,,,,,,,,,,,,,,,,,,,,,,,
,,,,135992,001,2023-05-03_20h49.18.471,fluency,2022.2.5,Win32,144.5922499,,,,,,,,,,,,,,,,,,,,,,,7,5,img/B05_07.jpg,CONTROL,Press J as soon as you see a face, ,JK,,,,,,,,,,,,,,,,,,,,,,,,,,,,,,,,7,1.2932,,,,,,,,,,,,,,,,,,,,,space,0.6934,0,5,5,51,1,,,,,,,,,,,,,,,,,,,,,,,,,,,,,,,,,,,,,,,,,,,,,,,,,,,,,,,,,,
,,,,135992,001,2023-05-03_20h49.18.471,fluency,2022.2.5,Win32,144.5922499,,,,,,,,,,,,,,,,,,,,,,,,,,,,,,,,,,,,,,,,,,,,,,,,,,,,,,,0,,,,,,,,,,,,,,,,,,,,j,0.2878,"[""7"",""space"",""j"",""j""]",0,0,0,0,1,,,,,,,,,,,,,,,,,,,,,,,,,,,,,,,,,,,,,,,,,,,,,,,,,,,,,,,,,,,,,,,,,
,,,,135992,001,2023-05-03_20h49.18.471,fluency,2022.2.5,Win32,144.5922499,,,,,,,,,,,,,,,,,,,,,,,7,8,img/B08_07.jpg,CONTROL,Press J as soon as you see a face, ,JK,,,,,,,,,,,,,,,,,,,,,,,,,,,,,,,,5,0.7828,,,,,,,,,,,,,,,,,,,,,space,1.0065,0,6,6,84,1,,,,,,,,,,,,,,,,,,,,,,,,,,,,,,,,,,,,,,,,,,,,,,,,,,,,,,,,,,
,,,,135992,001,2023-05-03_20h49.18.471,fluency,2022.2.5,Win32,144.5922499,,,,,,,,,,,,,,,,,,,,,,,,,,,,,,,,,,,,,,,,,,,,,,,,,,,,,,,0,,,,,,,,,,,,,,,,,,,,j,0.2326,"[""5"",""space"",""j""]",0,0,0,0,1,,,,,,,,,,,,,,,,,,,,,,,,,,,,,,,,,,,,,,,,,,,,,,,,,,,,,,,,,,,,,,,,,
,,,,135992,001,2023-05-03_20h49.18.471,fluency,2022.2.5,Win32,144.5922499,,,,,,,,,,,,,,,,,,,,,,,2,5,img/B05_02.jpg,CONTROL,Press J as soon as you see a face, ,JK,,,,,,,,,,,,,,,,,,,,,,,,,,,,,,,,5,1.2103,,,,,,,,,,,,,,,,,,,,,space,0.3748,0,7,7,46,1,,,,,,,,,,,,,,,,,,,,,,,,,,,,,,,,,,,,,,,,,,,,,,,,,,,,,,,,,,
,,,,135992,001,2023-05-03_20h49.18.471,fluency,2022.2.5,Win32,144.5922499,,,,,,,,,,,,,,,,,,,,,,,,,,,,,,,,,,,,,,,,,,,,,,,,,,,,,,,0,,,,,,,,,,,,,,,,,,,,j,0.3383,"[""5"",""space"",""j""]",0,0,0,0,1,,,,,,,,,,,,,,,,,,,,,,,,,,,,,,,,,,,,,,,,,,,,,,,,,,,,,,,,,,,,,,,,,
,,,,135992,001,2023-05-03_20h49.18.471,fluency,2022.2.5,Win32,144.5922499,,,,,,,,,,,,,,,,,,,,,,,0,9,img/B09_00.jpg,CONTROL,Press J as soon as you see a face, ,JK,,,,,,,,,,,,,,,,,,,,,,,,,,,,,,,,5,1.55,,,,,,,,,,,,,,,,,,,,,space,0.4583,0,8,8,88,1,,,,,,,,,,,,,,,,,,,,,,,,,,,,,,,,,,,,,,,,,,,,,,,,,,,,,,,,,,
,,,,135992,001,2023-05-03_20h49.18.471,fluency,2022.2.5,Win32,144.5922499,,,,,,,,,,,,,,,,,,,,,,,,,,,,,,,,,,,,,,,,,,,,,,,,,,,,,,,0,,,,,,,,,,,,,,,,,,,,j,0.4615,"[""5"",""space"",""j""]",0,0,0,0,1,,,,,,,,,,,,,,,,,,,,,,,,,,,,,,,,,,,,,,,,,,,,,,,,,,,,,,,,,,,,,,,,,
,,,,135992,001,2023-05-03_20h49.18.471,fluency,2022.2.5,Win32,144.5922499,,,,,,,,,,,,,,,,,,,,,,,4,4,img/B04_04.jpg,CONTROL,Press J as soon as you see a face, ,JK,,,,,,,,,,,,,,,,,,,,,,,,,,,,,,,,6,1.5746,,,,,,,,,,,,,,,,,,,,,space,0.9301,0,9,9,37,1,,,,,,,,,,,,,,,,,,,,,,,,,,,,,,,,,,,,,,,,,,,,,,,,,,,,,,,,,,
,,,,135992,001,2023-05-03_20h49.18.471,fluency,2022.2.5,Win32,144.5922499,,,,,,,,,,,,,,,,,,,,,,,,,,,,,,,,,,,,,,,,,,,,,,,,,,,,,,,0,,,,,,,,,,,,,,,,,,,,j,0.2466,"[""6"",""space"",""j""]",0,0,0,0,1,,,,,,,,,,,,,,,,,,,,,,,,,,,,,,,,,,,,,,,,,,,,,,,,,,,,,,,,,,,,,,,,,
,,,,135992,001,2023-05-03_20h49.18.471,fluency,2022.2.5,Win32,144.5922499,,,,,,,,,,,,,,,,,,,,,,,0,2,img/B02_00.jpg,CONTROL,Press J as soon as you see a face, ,JK,,,,,,,,,,,,,,,,,,,,,,,,,,,,,,,,3,1.6193,,,,,,,,,,,,,,,,,,,,,space,0.4031,0,10,10,11,1,,,,,,,,,,,,,,,,,,,,,,,,,,,,,,,,,,,,,,,,,,,,,,,,,,,,,,,,,,
,,,,135992,001,2023-05-03_20h49.18.471,fluency,2022.2.5,Win32,144.5922499,,,,,,,,,,,,,,,,,,,,,,,,,,,,,,,,,,,,,,,,,,,,,,,,,,,,,,,0,,,,,,,,,,,,,,,,,,,,j,0.2241,"[""3"",""space"",""j""]",0,0,0,0,1,,,,,,,,,,,,,,,,,,,,,,,,,,,,,,,,,,,,,,,,,,,,,,,,,,,,,,,,,,,,,,,,,
,,,,135992,001,2023-05-03_20h49.18.471,fluency,2022.2.5,Win32,144.5922499,,,,,,,,,,,,,,,,,,,,,,,0,6,img/B06_00.jpg,CONTROL,Press J as soon as you see a face, ,JK,,,,,,,,,,,,,,,,,,,,,,,,,,,,,,,,4,0.9534,,,,,,,,,,,,,,,,,,,,,space,0.3366,0,11,11,55,1,,,,,,,,,,,,,,,,,,,,,,,,,,,,,,,,,,,,,,,,,,,,,,,,,,,,,,,,,,
,,,,135992,001,2023-05-03_20h49.18.471,fluency,2022.2.5,Win32,144.5922499,,,,,,,,,,,,,,,,,,,,,,,,,,,,,,,,,,,,,,,,,,,,,,,,,,,,,,,0,,,,,,,,,,,,,,,,,,,,j,0.2318,"[""4"",""space"",""j""]",0,0,0,0,1,,,,,,,,,,,,,,,,,,,,,,,,,,,,,,,,,,,,,,,,,,,,,,,,,,,,,,,,,,,,,,,,,
,,,,135992,001,2023-05-03_20h49.18.471,fluency,2022.2.5,Win32,144.5922499,,,,,,,,,,,,,,,,,,,,,,,8,8,img/B08_08.jpg,CONTROL,Press J as soon as you see a face, ,JK,,,,,,,,,,,,,,,,,,,,,,,,,,,,,,,,4,1.0547,,,,,,,,,,,,,,,,,,,,,space,0.4577,0,12,12,85,1,,,,,,,,,,,,,,,,,,,,,,,,,,,,,,,,,,,,,,,,,,,,,,,,,,,,,,,,,,
,,,,135992,001,2023-05-03_20h49.18.471,fluency,2022.2.5,Win32,144.5922499,,,,,,,,,,,,,,,,,,,,,,,,,,,,,,,,,,,,,,,,,,,,,,,,,,,,,,,0,,,,,,,,,,,,,,,,,,,,j,0.2565,"[""4"",""space"",""j"",""j""]",0,0,0,0,1,,,,,,,,,,,,,,,,,,,,,,,,,,,,,,,,,,,,,,,,,,,,,,,,,,,,,,,,,,,,,,,,,
,,,,135992,001,2023-05-03_20h49.18.471,fluency,2022.2.5,Win32,144.5922499,,,,,,,,,,,,,,,,,,,,,,,1,2,img/B02_01.jpg,CONTROL,Press J as soon as you see a face, ,JK,,,,,,,,,,,,,,,,,,,,,,,,,,,,,,,,4,2.6399,,,,,,,,,,,,,,,,,,,,,space,1.319,0,13,13,12,1,,,,,,,,,,,,,,,,,,,,,,,,,,,,,,,,,,,,,,,,,,,,,,,,,,,,,,,,,,
,,,,135992,001,2023-05-03_20h49.18.471,fluency,2022.2.5,Win32,144.5922499,,,,,,,,,,,,,,,,,,,,,,,,,,,,,,,,,,,,,,,,,,,,,,,,,,,,,,,0,,,,,,,,,,,,,,,,,,,,j,0.4136,"[""4"",""space"",""j""]",0,0,0,0,1,,,,,,,,,,,,,,,,,,,,,,,,,,,,,,,,,,,,,,,,,,,,,,,,,,,,,,,,,,,,,,,,,
,,,,135992,001,2023-05-03_20h49.18.471,fluency,2022.2.5,Win32,144.5922499,,,,,,,,,,,,,,,,,,,,,,,0,4,img/B04_00.jpg,CONTROL,Press J as soon as you see a face, ,JK,,,,,,,,,,,,,,,,,,,,,,,,,,,,,,,,3,1.0649,,,,,,,,,,,,,,,,,,,,,space,0.6805,0,14,14,33,1,,,,,,,,,,,,,,,,,,,,,,,,,,,,,,,,,,,,,,,,,,,,,,,,,,,,,,,,,,
,,,,135992,001,2023-05-03_20h49.18.471,fluency,2022.2.5,Win32,144.5922499,,,,,,,,,,,,,,,,,,,,,,,,,,,,,,,,,,,,,,,,,,,,,,,,,,,,,,,0,,,,,,,,,,,,,,,,,,,,j,0.2824,"[""3"",""space"",""j""]",0,0,0,0,1,,,,,,,,,,,,,,,,,,,,,,,,,,,,,,,,,,,,,,,,,,,,,,,,,,,,,,,,,,,,,,,,,
,,,,135992,001,2023-05-03_20h49.18.471,fluency,2022.2.5,Win32,144.5922499,,,,,,,,,,,,,,,,,,,,,,,3,4,img/B04_03.jpg,CONTROL,Press J as soon as you see a face, ,JK,,,,,,,,,,,,,,,,,,,,,,,,,,,,,,,,5,3.4966,,,,,,,,,,,,,,,,,,,,,space,0.8204,0,15,15,36,1,,,,,,,,,,,,,,,,,,,,,,,,,,,,,,,,,,,,,,,,,,,,,,,,,,,,,,,,,,
,,,,135992,001,2023-05-03_20h49.18.471,fluency,2022.2.5,Win32,144.5922499,,,,,,,,,,,,,,,,,,,,,,,,,,,,,,,,,,,,,,,,,,,,,,,,,,,,,,,0,,,,,,,,,,,,,,,,,,,,j,0.2339,"[""5"",""space"",""j""]",0,0,0,0,1,,,,,,,,,,,,,,,,,,,,,,,,,,,,,,,,,,,,,,,,,,,,,,,,,,,,,,,,,,,,,,,,,
,,,,135992,001,2023-05-03_20h49.18.471,fluency,2022.2.5,Win32,144.5922499,,,,,,,,,,,,,,,,,,,,,,,6,8,img/B08_06.jpg,CONTROL,Press J as soon as you see a face, ,JK,,,,,,,,,,,,,,,,,,,,,,,,,,,,,,,,5,1.2403,,,,,,,,,,,,,,,,,,,,,space,0.7527,0,16,16,83,1,,,,,,,,,,,,,,,,,,,,,,,,,,,,,,,,,,,,,,,,,,,,,,,,,,,,,,,,,,
,,,,135992,001,2023-05-03_20h49.18.471,fluency,2022.2.5,Win32,144.5922499,,,,,,,,,,,,,,,,,,,,,,,,,,,,,,,,,,,,,,,,,,,,,,,,,,,,,,,0,,,,,,,,,,,,,,,,,,,,j,0.2393,"[""5"",""space"",""j""]",0,0,0,0,1,,,,,,,,,,,,,,,,,,,,,,,,,,,,,,,,,,,,,,,,,,,,,,,,,,,,,,,,,,,,,,,,,
,,,,135992,001,2023-05-03_20h49.18.471,fluency,2022.2.5,Win32,144.5922499,,,,,,,,,,,,,,,,,,,,,,,9,10,img/B10_09.jpg,CONTROL,Press J as soon as you see a face, ,JK,,,,,,,,,,,,,,,,,,,,,,,,,,,,,,,,5,1.2995,,,,,,,,,,,,,,,,,,,,,space,0.7627,0,17,17,108,1,,,,,,,,,,,,,,,,,,,,,,,,,,,,,,,,,,,,,,,,,,,,,,,,,,,,,,,,,,
,,,,135992,001,2023-05-03_20h49.18.471,fluency,2022.2.5,Win32,144.5922499,,,,,,,,,,,,,,,,,,,,,,,,,,,,,,,,,,,,,,,,,,,,,,,,,,,,,,,0,,,,,,,,,,,,,,,,,,,,j,0.2198,"[""5"",""space"",""j""]",0,0,0,0,1,,,,,,,,,,,,,,,,,,,,,,,,,,,,,,,,,,,,,,,,,,,,,,,,,,,,,,,,,,,,,,,,,
,,,,135992,001,2023-05-03_20h49.18.471,fluency,2022.2.5,Win32,144.5922499,,,,,,,,,,,,,,,,,,,,,,,6,7,img/B07_06.jpg,CONTROL,Press J as soon as you see a face, ,JK,,,,,,,,,,,,,,,,,,,,,,,,,,,,,,,,6,0.822,,,,,,,,,,,,,,,,,,,,,space,0.729,0,18,18,72,1,,,,,,,,,,,,,,,,,,,,,,,,,,,,,,,,,,,,,,,,,,,,,,,,,,,,,,,,,,
,,,,135992,001,2023-05-03_20h49.18.471,fluency,2022.2.5,Win32,144.5922499,,,,,,,,,,,,,,,,,,,,,,,,,,,,,,,,,,,,,,,,,,,,,,,,,,,,,,,0,,,,,,,,,,,,,,,,,,,,j,0.3656,"[""6"",""space"",""j""]",0,0,0,0,1,,,,,,,,,,,,,,,,,,,,,,,,,,,,,,,,,,,,,,,,,,,,,,,,,,,,,,,,,,,,,,,,,
,,,,135992,001,2023-05-03_20h49.18.471,fluency,2022.2.5,Win32,144.5922499,,,,,,,,,,,,,,,,,,,,,,,4,2,img/B02_04.jpg,CONTROL,Press J as soon as you see a face, ,JK,,,,,,,,,,,,,,,,,,,,,,,,,,,,,,,,6,1.0076,,,,,,,,,,,,,,,,,,,,,space,0.439,0,19,19,15,1,,,,,,,,,,,,,,,,,,,,,,,,,,,,,,,,,,,,,,,,,,,,,,,,,,,,,,,,,,
,,,,135992,001,2023-05-03_20h49.18.471,fluency,2022.2.5,Win32,144.5922499,,,,,,,,,,,,,,,,,,,,,,,,,,,,,,,,,,,,,,,,,,,,,,,,,,,,,,,0,,,,,,,,,,,,,,,,,,,,j,0.2958,"[""6"",""space"",""j""]",0,0,0,0,1,,,,,,,,,,,,,,,,,,,,,,,,,,,,,,,,,,,,,,,,,,,,,,,,,,,,,,,,,,,,,,,,,
,,,,135992,001,2023-05-03_20h49.18.471,fluency,2022.2.5,Win32,144.5922499,,,,,,,,,,,,,,,,,,,,,,,5,7,img/B07_05.jpg,CONTROL,Press J as soon as you see a face, ,JK,,,,,,,,,,,,,,,,,,,,,,,,,,,,,,,,6,1.0759,,,,,,,,,,,,,,,,,,,,,space,0.3489,0,20,20,71,1,,,,,,,,,,,,,,,,,,,,,,,,,,,,,,,,,,,,,,,,,,,,,,,,,,,,,,,,,,
,,,,135992,001,2023-05-03_20h49.18.471,fluency,2022.2.5,Win32,144.5922499,,,,,,,,,,,,,,,,,,,,,,,,,,,,,,,,,,,,,,,,,,,,,,,,,,,,,,,0,,,,,,,,,,,,,,,,,,,,j,0.3092,"[""6"",""space"",""j""]",0,0,0,0,1,,,,,,,,,,,,,,,,,,,,,,,,,,,,,,,,,,,,,,,,,,,,,,,,,,,,,,,,,,,,,,,,,
,,,,135992,001,2023-05-03_20h49.18.471,fluency,2022.2.5,Win32,144.5922499,,,,,,,,,,,,,,,,,,,,,,,6,2,img/B02_06.jpg,CONTROL,Press J as soon as you see a face, ,JK,,,,,,,,,,,,,,,,,,,,,,,,,,,,,,,,7,0.5995,,,,,,,,,,,,,,,,,,,,,space,0.4672,0,21,21,17,1,,,,,,,,,,,,,,,,,,,,,,,,,,,,,,,,,,,,,,,,,,,,,,,,,,,,,,,,,,
,,,,135992,001,2023-05-03_20h49.18.471,fluency,2022.2.5,Win32,144.5922499,,,,,,,,,,,,,,,,,,,,,,,,,,,,,,,,,,,,,,,,,,,,,,,,,,,,,,,0,,,,,,,,,,,,,,,,,,,,j,0.2582,"[""7"",""space"",""j""]",0,0,0,0,1,,,,,,,,,,,,,,,,,,,,,,,,,,,,,,,,,,,,,,,,,,,,,,,,,,,,,,,,,,,,,,,,,
,,,,135992,001,2023-05-03_20h49.18.471,fluency,2022.2.5,Win32,144.5922499,,,,,,,,,,,,,,,,,,,,,,,2,6,img/B06_02.jpg,CONTROL,Press J as soon as you see a face, ,JK,,,,,,,,,,,,,,,,,,,,,,,,,,,,,,,,6,1.0718,,,,,,,,,,,,,,,,,,,,,space,0.454,0,22,22,57,1,,,,,,,,,,,,,,,,,,,,,,,,,,,,,,,,,,,,,,,,,,,,,,,,,,,,,,,,,,
,,,,135992,001,2023-05-03_20h49.18.471,fluency,2022.2.5,Win32,144.5922499,,,,,,,,,,,,,,,,,,,,,,,,,,,,,,,,,,,,,,,,,,,,,,,,,,,,,,,0,,,,,,,,,,,,,,,,,,,,j,0.247,"[""6"",""space"",""j""]",0,0,0,0,1,,,,,,,,,,,,,,,,,,,,,,,,,,,,,,,,,,,,,,,,,,,,,,,,,,,,,,,,,,,,,,,,,
,,,,135992,001,2023-05-03_20h49.18.471,fluency,2022.2.5,Win32,144.5922499,,,,,,,,,,,,,,,,,,,,,,,1,1,img/B01_01.jpg,CONTROL,Press J as soon as you see a face, ,JK,,,,,,,,,,,,,,,,,,,,,,,,,,,,,,,,5,0.9262,,,,,,,,,,,,,,,,,,,,,space,0.446,0,23,23,1,1,,,,,,,,,,,,,,,,,,,,,,,,,,,,,,,,,,,,,,,,,,,,,,,,,,,,,,,,,,
,,,,135992,001,2023-05-03_20h49.18.471,fluency,2022.2.5,Win32,144.5922499,,,,,,,,,,,,,,,,,,,,,,,,,,,,,,,,,,,,,,,,,,,,,,,,,,,,,,,0,,,,,,,,,,,,,,,,,,,,j,0.2392,"[""5"",""space"",""j""]",0,0,0,0,1,,,,,,,,,,,,,,,,,,,,,,,,,,,,,,,,,,,,,,,,,,,,,,,,,,,,,,,,,,,,,,,,,
,,,,135992,001,2023-05-03_20h49.18.471,fluency,2022.2.5,Win32,144.5922499,,,,,,,,,,,,,,,,,,,,,,,9,6,img/B06_09.jpg,CONTROL,Press J as soon as you see a face, ,JK,,,,,,,,,,,,,,,,,,,,,,,,,,,,,,,,8,1.7378,,,,,,,,,,,,,,,,,,,,,space,1.1703,0,24,24,64,1,,,,,,,,,,,,,,,,,,,,,,,,,,,,,,,,,,,,,,,,,,,,,,,,,,,,,,,,,,
,,,,135992,001,2023-05-03_20h49.18.471,fluency,2022.2.5,Win32,144.5922499,,,,,,,,,,,,,,,,,,,,,,,,,,,,,,,,,,,,,,,,,,,,,,,,,,,,,,,0,,,,,,,,,,,,,,,,,,,,j,0.3088,"[""8"",""space"",""j""]",0,0,0,0,1,,,,,,,,,,,,,,,,,,,,,,,,,,,,,,,,,,,,,,,,,,,,,,,,,,,,,,,,,,,,,,,,,
,,,,135992,001,2023-05-03_20h49.18.471,fluency,2022.2.5,Win32,144.5922499,,,,,,,,,,,,,,,,,,,,,,,3,5,img/B05_03.jpg,CONTROL,Press J as soon as you see a face, ,JK,,,,,,,,,,,,,,,,,,,,,,,,,,,,,,,,4,0.4454,,,,,,,,,,,,,,,,,,,,,space,0.412,0,25,25,47,1,,,,,,,,,,,,,,,,,,,,,,,,,,,,,,,,,,,,,,,,,,,,,,,,,,,,,,,,,,
,,,,135992,001,2023-05-03_20h49.18.471,fluency,2022.2.5,Win32,144.5922499,,,,,,,,,,,,,,,,,,,,,,,,,,,,,,,,,,,,,,,,,,,,,,,,,,,,,,,0,,,,,,,,,,,,,,,,,,,,j,0.2088,"[""4"",""space"",""j""]",0,0,0,0,1,,,,,,,,,,,,,,,,,,,,,,,,,,,,,,,,,,,,,,,,,,,,,,,,,,,,,,,,,,,,,,,,,
,,,,135992,001,2023-05-03_20h49.18.471,fluency,2022.2.5,Win32,144.5922499,,,,,,,,,,,,,,,,,,,,,,,6,3,img/B03_06.jpg,CONTROL,Press J as soon as you see a face, ,JK,,,,,,,,,,,,,,,,,,,,,,,,,,,,,,,,5,1.505,,,,,,,,,,,,,,,,,,,,,space,0.4443,0,26,26,28,1,,,,,,,,,,,,,,,,,,,,,,,,,,,,,,,,,,,,,,,,,,,,,,,,,,,,,,,,,,
,,,,135992,001,2023-05-03_20h49.18.471,fluency,2022.2.5,Win32,144.5922499,,,,,,,,,,,,,,,,,,,,,,,,,,,,,,,,,,,,,,,,,,,,,,,,,,,,,,,0,,,,,,,,,,,,,,,,,,,,j,0.359,"[""5"",""space"",""j""]",0,0,0,0,1,,,,,,,,,,,,,,,,,,,,,,,,,,,,,,,,,,,,,,,,,,,,,,,,,,,,,,,,,,,,,,,,,
,,,,135992,001,2023-05-03_20h49.18.471,fluency,2022.2.5,Win32,144.5922499,,,,,,,,,,,,,,,,,,,,,,,7,6,img/B06_07.jpg,CONTROL,Press J as soon as you see a face, ,JK,,,,,,,,,,,,,,,,,,,,,,,,,,,,,,,,8,1.0128,,,,,,,,,,,,,,,,,,,,,space,1.2245,0,27,27,62,1,,,,,,,,,,,,,,,,,,,,,,,,,,,,,,,,,,,,,,,,,,,,,,,,,,,,,,,,,,
,,,,135992,001,2023-05-03_20h49.18.471,fluency,2022.2.5,Win32,144.5922499,,,,,,,,,,,,,,,,,,,,,,,,,,,,,,,,,,,,,,,,,,,,,,,,,,,,,,,0,,,,,,,,,,,,,,,,,,,,j,0.3386,"[""8"",""space"",""j""]",0,0,0,0,1,,,,,,,,,,,,,,,,,,,,,,,,,,,,,,,,,,,,,,,,,,,,,,,,,,,,,,,,,,,,,,,,,
,,,,135992,001,2023-05-03_20h49.18.471,fluency,2022.2.5,Win32,144.5922499,,,,,,,,,,,,,,,,,,,,,,,9,3,img/B03_09.jpg,CONTROL,Press J as soon as you see a face, ,JK,,,,,,,,,,,,,,,,,,,,,,,,,,,,,,,,7,0.9725,,,,,,,,,,,,,,,,,,,,,space,0.6593,0,28,28,31,1,,,,,,,,,,,,,,,,,,,,,,,,,,,,,,,,,,,,,,,,,,,,,,,,,,,,,,,,,,
,,,,135992,001,2023-05-03_20h49.18.471,fluency,2022.2.5,Win32,144.5922499,,,,,,,,,,,,,,,,,,,,,,,,,,,,,,,,,,,,,,,,,,,,,,,,,,,,,,,0,,,,,,,,,,,,,,,,,,,,j,0.2397,"[""7"",""space"",""j""]",0,0,0,0,1,,,,,,,,,,,,,,,,,,,,,,,,,,,,,,,,,,,,,,,,,,,,,,,,,,,,,,,,,,,,,,,,,
,,,,135992,001,2023-05-03_20h49.18.471,fluency,2022.2.5,Win32,144.5922499,,,,,,,,,,,,,,,,,,,,,,,10,1,img/B01_10.jpg,CONTROL,Press J as soon as you see a face, ,JK,,,,,,,,,,,,,,,,,,,,,,,,,,,,,,,,4,1.5303,,,,,,,,,,,,,,,,,,,,,space,0.4927,0,29,29,10,1,,,,,,,,,,,,,,,,,,,,,,,,,,,,,,,,,,,,,,,,,,,,,,,,,,,,,,,,,,
,,,,135992,001,2023-05-03_20h49.18.471,fluency,2022.2.5,Win32,144.5922499,,,,,,,,,,,,,,,,,,,,,,,,,,,,,,,,,,,,,,,,,,,,,,,,,,,,,,,0,,,,,,,,,,,,,,,,,,,,j,0.3093,"[""4"",""space"",""j""]",0,0,0,0,1,,,,,,,,,,,,,,,,,,,,,,,,,,,,,,,,,,,,,,,,,,,,,,,,,,,,,,,,,,,,,,,,,
,,,,135992,001,2023-05-03_20h49.18.471,fluency,2022.2.5,Win32,144.5922499,,,,,,,,,,,,,,,,,,,,,,,4,7,img/B07_04.jpg,CONTROL,Press J as soon as you see a face, ,JK,,,,,,,,,,,,,,,,,,,,,,,,,,,,,,,,5,1.5024,,,,,,,,,,,,,,,,,,,,,space,0.3637,0,30,30,70,1,,,,,,,,,,,,,,,,,,,,,,,,,,,,,,,,,,,,,,,,,,,,,,,,,,,,,,,,,,
,,,,135992,001,2023-05-03_20h49.18.471,fluency,2022.2.5,Win32,144.5922499,,,,,,,,,,,,,,,,,,,,,,,,,,,,,,,,,,,,,,,,,,,,,,,,,,,,,,,0,,,,,,,,,,,,,,,,,,,,j,0.4916,"[""5"",""space"",""j""]",0,0,0,0,1,,,,,,,,,,,,,,,,,,,,,,,,,,,,,,,,,,,,,,,,,,,,,,,,,,,,,,,,,,,,,,,,,
,,,,135992,001,2023-05-03_20h49.18.471,fluency,2022.2.5,Win32,144.5922499,,,,,,,,,,,,,,,,,,,,,,,8,7,img/B07_08.jpg,CONTROL,Press J as soon as you see a face, ,JK,,,,,,,,,,,,,,,,,,,,,,,,,,,,,,,,7,1.1833,,,,,,,,,,,,,,,,,,,,,space,0.5072,0,31,31,74,1,,,,,,,,,,,,,,,,,,,,,,,,,,,,,,,,,,,,,,,,,,,,,,,,,,,,,,,,,,
,,,,135992,001,2023-05-03_20h49.18.471,fluency,2022.2.5,Win32,144.5922499,,,,,,,,,,,,,,,,,,,,,,,,,,,,,,,,,,,,,,,,,,,,,,,,,,,,,,,0,,,,,,,,,,,,,,,,,,,,j,0.2748,"[""7"",""space"",""j""]",0,0,0,0,1,,,,,,,,,,,,,,,,,,,,,,,,,,,,,,,,,,,,,,,,,,,,,,,,,,,,,,,,,,,,,,,,,
,,,,135992,001,2023-05-03_20h49.18.471,fluency,2022.2.5,Win32,144.5922499,,,,,,,,,,,,,,,,,,,,,,,9,2,img/B02_09.jpg,CONTROL,Press J as soon as you see a face, ,JK,,,,,,,,,,,,,,,,,,,,,,,,,,,,,,,,6,1.1721,,,,,,,,,,,,,,,,,,,,,space,0.3682,0,32,32,20,1,,,,,,,,,,,,,,,,,,,,,,,,,,,,,,,,,,,,,,,,,,,,,,,,,,,,,,,,,,
,,,,135992,001,2023-05-03_20h49.18.471,fluency,2022.2.5,Win32,144.5922499,,,,,,,,,,,,,,,,,,,,,,,,,,,,,,,,,,,,,,,,,,,,,,,,,,,,,,,0,,,,,,,,,,,,,,,,,,,,j,0.2175,"[""6"",""space"",""j""]",0,0,0,0,1,,,,,,,,,,,,,,,,,,,,,,,,,,,,,,,,,,,,,,,,,,,,,,,,,,,,,,,,,,,,,,,,,
,,,,135992,001,2023-05-03_20h49.18.471,fluency,2022.2.5,Win32,144.5922499,,,,,,,,,,,,,,,,,,,,,,,6,6,img/B06_06.jpg,CONTROL,Press J as soon as you see a face, ,JK,,,,,,,,,,,,,,,,,,,,,,,,,,,,,,,,7,2.2682,,,,,,,,,,,,,,,,,,,,,space,0.4517,0,33,33,61,1,,,,,,,,,,,,,,,,,,,,,,,,,,,,,,,,,,,,,,,,,,,,,,,,,,,,,,,,,,
,,,,135992,001,2023-05-03_20h49.18.471,fluency,2022.2.5,Win32,144.5922499,,,,,,,,,,,,,,,,,,,,,,,,,,,,,,,,,,,,,,,,,,,,,,,,,,,,,,,0,,,,,,,,,,,,,,,,,,,,j,0.7739,"[""7"",""space"",""j""]",0,0,0,0,1,,,,,,,,,,,,,,,,,,,,,,,,,,,,,,,,,,,,,,,,,,,,,,,,,,,,,,,,,,,,,,,,,
,,,,135992,001,2023-05-03_20h49.18.471,fluency,2022.2.5,Win32,144.5922499,,,,,,,,,,,,,,,,,,,,,,,9,8,img/B08_09.jpg,CONTROL,Press J as soon as you see a face, ,JK,,,,,,,,,,,,,,,,,,,,,,,,,,,,,,,,5,2.1094,,,,,,,,,,,,,,,,,,,,,space,0.2741,0,34,34,86,1,,,,,,,,,,,,,,,,,,,,,,,,,,,,,,,,,,,,,,,,,,,,,,,,,,,,,,,,,,
,,,,135992,001,2023-05-03_20h49.18.471,fluency,2022.2.5,Win32,144.5922499,,,,,,,,,,,,,,,,,,,,,,,,,,,,,,,,,,,,,,,,,,,,,,,,,,,,,,,0,,,,,,,,,,,,,,,,,,,,j,0.3737,"[""5"",""space"",""j""]",0,0,0,0,1,,,,,,,,,,,,,,,,,,,,,,,,,,,,,,,,,,,,,,,,,,,,,,,,,,,,,,,,,,,,,,,,,
,,,,135992,001,2023-05-03_20h49.18.471,fluency,2022.2.5,Win32,144.5922499,,,,,,,,,,,,,,,,,,,,,,,4,9,img/B09_04.jpg,CONTROL,Press J as soon as you see a face, ,JK,,,,,,,,,,,,,,,,,,,,,,,,,,,,,,,,6,0.9929,,,,,,,,,,,,,,,,,,,,,space,0.3961,0,35,35,92,1,,,,,,,,,,,,,,,,,,,,,,,,,,,,,,,,,,,,,,,,,,,,,,,,,,,,,,,,,,
,,,,135992,001,2023-05-03_20h49.18.471,fluency,2022.2.5,Win32,144.5922499,,,,,,,,,,,,,,,,,,,,,,,,,,,,,,,,,,,,,,,,,,,,,,,,,,,,,,,0,,,,,,,,,,,,,,,,,,,,j,0.2765,"[""6"",""space"",""j""]",0,0,0,0,1,,,,,,,,,,,,,,,,,,,,,,,,,,,,,,,,,,,,,,,,,,,,,,,,,,,,,,,,,,,,,,,,,
,,,,135992,001,2023-05-03_20h49.18.471,fluency,2022.2.5,Win32,144.5922499,,,,,,,,,,,,,,,,,,,,,,,8,6,img/B06_08.jpg,CONTROL,Press J as soon as you see a face, ,JK,,,,,,,,,,,,,,,,,,,,,,,,,,,,,,,,7,2.894,,,,,,,,,,,,,,,,,,,,,space,0.4958,0,36,36,63,1,,,,,,,,,,,,,,,,,,,,,,,,,,,,,,,,,,,,,,,,,,,,,,,,,,,,,,,,,,
,,,,135992,001,2023-05-03_20h49.18.471,fluency,2022.2.5,Win32,144.5922499,,,,,,,,,,,,,,,,,,,,,,,,,,,,,,,,,,,,,,,,,,,,,,,,,,,,,,,0,,,,,,,,,,,,,,,,,,,,j,0.2291,"[""7"",""space"",""j""]",0,0,0,0,1,,,,,,,,,,,,,,,,,,,,,,,,,,,,,,,,,,,,,,,,,,,,,,,,,,,,,,,,,,,,,,,,,
,,,,135992,001,2023-05-03_20h49.18.471,fluency,2022.2.5,Win32,144.5922499,,,,,,,,,,,,,,,,,,,,,,,1,3,img/B03_01.jpg,CONTROL,Press J as soon as you see a face, ,JK,,,,,,,,,,,,,,,,,,,,,,,,,,,,,,,,5,0.4743,,,,,,,,,,,,,,,,,,,,,space,0.2779,0,37,37,23,1,,,,,,,,,,,,,,,,,,,,,,,,,,,,,,,,,,,,,,,,,,,,,,,,,,,,,,,,,,
,,,,135992,001,2023-05-03_20h49.18.471,fluency,2022.2.5,Win32,144.5922499,,,,,,,,,,,,,,,,,,,,,,,,,,,,,,,,,,,,,,,,,,,,,,,,,,,,,,,0,,,,,,,,,,,,,,,,,,,,j,0.5789,"[""5"",""space"",""j""]",0,0,0,0,1,,,,,,,,,,,,,,,,,,,,,,,,,,,,,,,,,,,,,,,,,,,,,,,,,,,,,,,,,,,,,,,,,
,,,,135992,001,2023-05-03_20h49.18.471,fluency,2022.2.5,Win32,144.5922499,,,,,,,,,,,,,,,,,,,,,,,4,8,img/B08_04.jpg,CONTROL,Press J as soon as you see a face, ,JK,,,,,,,,,,,,,,,,,,,,,,,,,,,,,,,,4,0.739,,,,,,,,,,,,,,,,,,,,,space,0.5038,0,38,38,81,1,,,,,,,,,,,,,,,,,,,,,,,,,,,,,,,,,,,,,,,,,,,,,,,,,,,,,,,,,,
,,,,135992,001,2023-05-03_20h49.18.471,fluency,2022.2.5,Win32,144.5922499,,,,,,,,,,,,,,,,,,,,,,,,,,,,,,,,,,,,,,,,,,,,,,,,,,,,,,,0,,,,,,,,,,,,,,,,,,,,j,0.2473,"[""4"",""space"",""j""]",0,0,0,0,1,,,,,,,,,,,,,,,,,,,,,,,,,,,,,,,,,,,,,,,,,,,,,,,,,,,,,,,,,,,,,,,,,
,,,,135992,001,2023-05-03_20h49.18.471,fluency,2022.2.5,Win32,144.5922499,,,,,,,,,,,,,,,,,,,,,,,8,4,img/B04_08.jpg,CONTROL,Press J as soon as you see a face, ,JK,,,,,,,,,,,,,,,,,,,,,,,,,,,,,,,,3,0.3861,,,,,,,,,,,,,,,,,,,,,space,0.3016,0,39,39,41,1,,,,,,,,,,,,,,,,,,,,,,,,,,,,,,,,,,,,,,,,,,,,,,,,,,,,,,,,,,
,,,,135992,001,2023-05-03_20h49.18.471,fluency,2022.2.5,Win32,144.5922499,,,,,,,,,,,,,,,,,,,,,,,,,,,,,,,,,,,,,,,,,,,,,,,,,,,,,,,0,,,,,,,,,,,,,,,,,,,,j,0.2458,"[""3"",""space"",""j""]",0,0,0,0,1,,,,,,,,,,,,,,,,,,,,,,,,,,,,,,,,,,,,,,,,,,,,,,,,,,,,,,,,,,,,,,,,,
,,,,135992,001,2023-05-03_20h49.18.471,fluency,2022.2.5,Win32,144.5922499,,,,,,,,,,,,,,,,,,,,,,,8,3,img/B03_08.jpg,CONTROL,Press J as soon as you see a face, ,JK,,,,,,,,,,,,,,,,,,,,,,,,,,,,,,,,6,0.5233,,,,,,,,,,,,,,,,,,,,,space,0.4043,0,40,40,30,1,,,,,,,,,,,,,,,,,,,,,,,,,,,,,,,,,,,,,,,,,,,,,,,,,,,,,,,,,,
,,,,135992,001,2023-05-03_20h49.18.471,fluency,2022.2.5,Win32,144.5922499,,,,,,,,,,,,,,,,,,,,,,,,,,,,,,,,,,,,,,,,,,,,,,,,,,,,,,,0,,,,,,,,,,,,,,,,,,,,j,0.2538,"[""6"",""space"",""j""]",0,0,0,0,1,,,,,,,,,,,,,,,,,,,,,,,,,,,,,,,,,,,,,,,,,,,,,,,,,,,,,,,,,,,,,,,,,
,,,,135992,001,2023-05-03_20h49.18.471,fluency,2022.2.5,Win32,144.5922499,,,,,,,,,,,,,,,,,,,,,,,3,10,img/B10_03.jpg,CONTROL,Press J as soon as you see a face, ,JK,,,,,,,,,,,,,,,,,,,,,,,,,,,,,,,,4,0.373,,,,,,,,,,,,,,,,,,,,,space,0.6068,0,41,41,102,1,,,,,,,,,,,,,,,,,,,,,,,,,,,,,,,,,,,,,,,,,,,,,,,,,,,,,,,,,,
,,,,135992,001,2023-05-03_20h49.18.471,fluency,2022.2.5,Win32,144.5922499,,,,,,,,,,,,,,,,,,,,,,,,,,,,,,,,,,,,,,,,,,,,,,,,,,,,,,,0,,,,,,,,,,,,,,,,,,,,j,0.2555,"[""4"",""space"",""j""]",0,0,0,0,1,,,,,,,,,,,,,,,,,,,,,,,,,,,,,,,,,,,,,,,,,,,,,,,,,,,,,,,,,,,,,,,,,
,,,,135992,001,2023-05-03_20h49.18.471,fluency,2022.2.5,Win32,144.5922499,,,,,,,,,,,,,,,,,,,,,,,5,6,img/B06_05.jpg,CONTROL,Press J as soon as you see a face, ,JK,,,,,,,,,,,,,,,,,,,,,,,,,,,,,,,,6,2.0064,,,,,,,,,,,,,,,,,,,,,space,0.2318,0,42,42,60,1,,,,,,,,,,,,,,,,,,,,,,,,,,,,,,,,,,,,,,,,,,,,,,,,,,,,,,,,,,
,,,,135992,001,2023-05-03_20h49.18.471,fluency,2022.2.5,Win32,144.5922499,,,,,,,,,,,,,,,,,,,,,,,,,,,,,,,,,,,,,,,,,,,,,,,,,,,,,,,0,,,,,,,,,,,,,,,,,,,,j,0.2273,"[""6"",""space"",""j""]",0,0,0,0,1,,,,,,,,,,,,,,,,,,,,,,,,,,,,,,,,,,,,,,,,,,,,,,,,,,,,,,,,,,,,,,,,,
,,,,135992,001,2023-05-03_20h49.18.471,fluency,2022.2.5,Win32,144.5922499,,,,,,,,,,,,,,,,,,,,,,,1,5,img/B05_01.jpg,CONTROL,Press J as soon as you see a face, ,JK,,,,,,,,,,,,,,,,,,,,,,,,,,,,,,,,5,0.5018,,,,,,,,,,,,,,,,,,,,,space,0.2711,0,43,43,45,1,,,,,,,,,,,,,,,,,,,,,,,,,,,,,,,,,,,,,,,,,,,,,,,,,,,,,,,,,,
,,,,135992,001,2023-05-03_20h49.18.471,fluency,2022.2.5,Win32,144.5922499,,,,,,,,,,,,,,,,,,,,,,,,,,,,,,,,,,,,,,,,,,,,,,,,,,,,,,,0,,,,,,,,,,,,,,,,,,,,j,0.2221,"[""5"",""space"",""j""]",0,0,0,0,1,,,,,,,,,,,,,,,,,,,,,,,,,,,,,,,,,,,,,,,,,,,,,,,,,,,,,,,,,,,,,,,,,
,,,,135992,001,2023-05-03_20h49.18.471,fluency,2022.2.5,Win32,144.5922499,,,,,,,,,,,,,,,,,,,,,,,5,2,img/B02_05.jpg,CONTROL,Press J as soon as you see a face, ,JK,,,,,,,,,,,,,,,,,,,,,,,,,,,,,,,,5,0.6764,,,,,,,,,,,,,,,,,,,,,space,0.2541,0,44,44,16,1,,,,,,,,,,,,,,,,,,,,,,,,,,,,,,,,,,,,,,,,,,,,,,,,,,,,,,,,,,
,,,,135992,001,2023-05-03_20h49.18.471,fluency,2022.2.5,Win32,144.5922499,,,,,,,,,,,,,,,,,,,,,,,,,,,,,,,,,,,,,,,,,,,,,,,,,,,,,,,0,,,,,,,,,,,,,,,,,,,,j,0.2417,"[""5"",""space"",""j""]",0,0,0,0,1,,,,,,,,,,,,,,,,,,,,,,,,,,,,,,,,,,,,,,,,,,,,,,,,,,,,,,,,,,,,,,,,,
,,,,135992,001,2023-05-03_20h49.18.471,fluency,2022.2.5,Win32,144.5922499,,,,,,,,,,,,,,,,,,,,,,,10,3,img/B03_10.jpg,CONTROL,Press J as soon as you see a face, ,JK,,,,,,,,,,,,,,,,,,,,,,,,,,,,,,,,6,1.2633,,,,,,,,,,,,,,,,,,,,,space,0.4641,0,45,45,32,1,,,,,,,,,,,,,,,,,,,,,,,,,,,,,,,,,,,,,,,,,,,,,,,,,,,,,,,,,,
,,,,135992,001,2023-05-03_20h49.18.471,fluency,2022.2.5,Win32,144.5922499,,,,,,,,,,,,,,,,,,,,,,,,,,,,,,,,,,,,,,,,,,,,,,,,,,,,,,,0,,,,,,,,,,,,,,,,,,,,j,0.2941,"[""6"",""space"",""j""]",0,0,0,0,1,,,,,,,,,,,,,,,,,,,,,,,,,,,,,,,,,,,,,,,,,,,,,,,,,,,,,,,,,,,,,,,,,
,,,,135992,001,2023-05-03_20h49.18.471,fluency,2022.2.5,Win32,144.5922499,,,,,,,,,,,,,,,,,,,,,,,10,9,img/B09_10.jpg,CONTROL,Press J as soon as you see a face, ,JK,,,,,,,,,,,,,,,,,,,,,,,,,,,,,,,,7,2.2619,,,,,,,,,,,,,,,,,,,,,space,0.3612,0,46,46,98,1,,,,,,,,,,,,,,,,,,,,,,,,,,,,,,,,,,,,,,,,,,,,,,,,,,,,,,,,,,
,,,,135992,001,2023-05-03_20h49.18.471,fluency,2022.2.5,Win32,144.5922499,,,,,,,,,,,,,,,,,,,,,,,,,,,,,,,,,,,,,,,,,,,,,,,,,,,,,,,0,,,,,,,,,,,,,,,,,,,,j,0.2464,"[""7"",""space"",""j""]",0,0,0,0,1,,,,,,,,,,,,,,,,,,,,,,,,,,,,,,,,,,,,,,,,,,,,,,,,,,,,,,,,,,,,,,,,,
,,,,135992,001,2023-05-03_20h49.18.471,fluency,2022.2.5,Win32,144.5922499,,,,,,,,,,,,,,,,,,,,,,,3,7,img/B07_03.jpg,CONTROL,Press J as soon as you see a face, ,JK,,,,,,,,,,,,,,,,,,,,,,,,,,,,,,,,5,1.0313,,,,,,,,,,,,,,,,,,,,,space,0.1769,0,47,47,69,1,,,,,,,,,,,,,,,,,,,,,,,,,,,,,,,,,,,,,,,,,,,,,,,,,,,,,,,,,,
,,,,135992,001,2023-05-03_20h49.18.471,fluency,2022.2.5,Win32,144.5922499,,,,,,,,,,,,,,,,,,,,,,,,,,,,,,,,,,,,,,,,,,,,,,,,,,,,,,,0,,,,,,,,,,,,,,,,,,,,j,0.268,"[""5"",""space"",""j""]",0,0,0,0,1,,,,,,,,,,,,,,,,,,,,,,,,,,,,,,,,,,,,,,,,,,,,,,,,,,,,,,,,,,,,,,,,,
,,,,135992,001,2023-05-03_20h49.18.471,fluency,2022.2.5,Win32,144.5922499,,,,,,,,,,,,,,,,,,,,,,,0,10,img/B10_00.jpg,CONTROL,Press J as soon as you see a face, ,JK,,,,,,,,,,,,,,,,,,,,,,,,,,,,,,,,4,0.4165,,,,,,,,,,,,,,,,,,,,,space,0.3977,0,48,48,99,1,,,,,,,,,,,,,,,,,,,,,,,,,,,,,,,,,,,,,,,,,,,,,,,,,,,,,,,,,,
,,,,135992,001,2023-05-03_20h49.18.471,fluency,2022.2.5,Win32,144.5922499,,,,,,,,,,,,,,,,,,,,,,,,,,,,,,,,,,,,,,,,,,,,,,,,,,,,,,,0,,,,,,,,,,,,,,,,,,,,j,0.2123,"[""4"",""space"",""j""]",0,0,0,0,1,,,,,,,,,,,,,,,,,,,,,,,,,,,,,,,,,,,,,,,,,,,,,,,,,,,,,,,,,,,,,,,,,
,,,,135992,001,2023-05-03_20h49.18.471,fluency,2022.2.5,Win32,144.5922499,,,,,,,,,,,,,,,,,,,,,,,3,6,img/B06_03.jpg,CONTROL,Press J as soon as you see a face, ,JK,,,,,,,,,,,,,,,,,,,,,,,,,,,,,,,,6,0.3025,,,,,,,,,,,,,,,,,,,,,space,0.2438,0,49,49,58,1,,,,,,,,,,,,,,,,,,,,,,,,,,,,,,,,,,,,,,,,,,,,,,,,,,,,,,,,,,
,,,,135992,001,2023-05-03_20h49.18.471,fluency,2022.2.5,Win32,144.5922499,,,,,,,,,,,,,,,,,,,,,,,,,,,,,,,,,,,,,,,,,,,,,,,,,,,,,,,0,,,,,,,,,,,,,,,,,,,,j,0.6359,"[""6"",""space"",""j""]",0,0,0,0,1,,,,,,,,,,,,,,,,,,,,,,,,,,,,,,,,,,,,,,,,,,,,,,,,,,,,,,,,,,,,,,,,,
,,,,135992,001,2023-05-03_20h49.18.471,fluency,2022.2.5,Win32,144.5922499,,,,,,,,,,,,,,,,,,,,,,,7,7,img/B07_07.jpg,CONTROL,Press J as soon as you see a face, ,JK,,,,,,,,,,,,,,,,,,,,,,,,,,,,,,,,6,1.0886,,,,,,,,,,,,,,,,,,,,,space,0.1758,0,50,50,73,1,,,,,,,,,,,,,,,,,,,,,,,,,,,,,,,,,,,,,,,,,,,,,,,,,,,,,,,,,,
,,,,135992,001,2023-05-03_20h49.18.471,fluency,2022.2.5,Win32,144.5922499,,,,,,,,,,,,,,,,,,,,,,,,,,,,,,,,,,,,,,,,,,,,,,,,,,,,,,,0,,,,,,,,,,,,,,,,,,,,j,0.3714,"[""6"",""space"",""j""]",0,0,0,0,1,,,,,,,,,,,,,,,,,,,,,,,,,,,,,,,,,,,,,,,,,,,,,,,,,,,,,,,,,,,,,,,,,
,,,,135992,001,2023-05-03_20h49.18.471,fluency,2022.2.5,Win32,144.5922499,,,,,,,,,,,,,,,,,,,,,,,1,6,img/B06_01.jpg,CONTROL,Press J as soon as you see a face, ,JK,,,,,,,,,,,,,,,,,,,,,,,,,,,,,,,,6,0.2614,,,,,,,,,,,,,,,,,,,,,space,0.1603,0,51,51,56,1,,,,,,,,,,,,,,,,,,,,,,,,,,,,,,,,,,,,,,,,,,,,,,,,,,,,,,,,,,
,,,,135992,001,2023-05-03_20h49.18.471,fluency,2022.2.5,Win32,144.5922499,,,,,,,,,,,,,,,,,,,,,,,,,,,,,,,,,,,,,,,,,,,,,,,,,,,,,,,0,,,,,,,,,,,,,,,,,,,,j,0.1906,"[""6"",""space"",""j""]",0,0,0,0,1,,,,,,,,,,,,,,,,,,,,,,,,,,,,,,,,,,,,,,,,,,,,,,,,,,,,,,,,,,,,,,,,,
,,,,135992,001,2023-05-03_20h49.18.471,fluency,2022.2.5,Win32,144.5922499,,,,,,,,,,,,,,,,,,,,,,,10,2,img/B02_10.jpg,CONTROL,Press J as soon as you see a face, ,JK,,,,,,,,,,,,,,,,,,,,,,,,,,,,,,,,6,0.4827,,,,,,,,,,,,,,,,,,,,,space,0.1532,0,52,52,21,1,,,,,,,,,,,,,,,,,,,,,,,,,,,,,,,,,,,,,,,,,,,,,,,,,,,,,,,,,,
,,,,135992,001,2023-05-03_20h49.18.471,fluency,2022.2.5,Win32,144.5922499,,,,,,,,,,,,,,,,,,,,,,,,,,,,,,,,,,,,,,,,,,,,,,,,,,,,,,,0,,,,,,,,,,,,,,,,,,,,j,0.2254,"[""6"",""space"",""j""]",0,0,0,0,1,,,,,,,,,,,,,,,,,,,,,,,,,,,,,,,,,,,,,,,,,,,,,,,,,,,,,,,,,,,,,,,,,
,,,,135992,001,2023-05-03_20h49.18.471,fluency,2022.2.5,Win32,144.5922499,,,,,,,,,,,,,,,,,,,,,,,9,1,img/B01_09.jpg,CONTROL,Press J as soon as you see a face, ,JK,,,,,,,,,,,,,,,,,,,,,,,,,,,,,,,,4,0.2434,,,,,,,,,,,,,,,,,,,,,space,0.1476,0,53,53,9,1,,,,,,,,,,,,,,,,,,,,,,,,,,,,,,,,,,,,,,,,,,,,,,,,,,,,,,,,,,
,,,,135992,001,2023-05-03_20h49.18.471,fluency,2022.2.5,Win32,144.5922499,,,,,,,,,,,,,,,,,,,,,,,,,,,,,,,,,,,,,,,,,,,,,,,,,,,,,,,0,,,,,,,,,,,,,,,,,,,,j,0.2388,"[""4"",""space"",""j""]",0,0,0,0,1,,,,,,,,,,,,,,,,,,,,,,,,,,,,,,,,,,,,,,,,,,,,,,,,,,,,,,,,,,,,,,,,,
,,,,135992,001,2023-05-03_20h49.18.471,fluency,2022.2.5,Win32,144.5922499,,,,,,,,,,,,,,,,,,,,,,,6,1,img/B01_06.jpg,CONTROL,Press J as soon as you see a face, ,JK,,,,,,,,,,,,,,,,,,,,,,,,,,,,,,,,4,0.6172,,,,,,,,,,,,,,,,,,,,,space,0.188,0,54,54,6,1,,,,,,,,,,,,,,,,,,,,,,,,,,,,,,,,,,,,,,,,,,,,,,,,,,,,,,,,,,
,,,,135992,001,2023-05-03_20h49.18.471,fluency,2022.2.5,Win32,144.5922499,,,,,,,,,,,,,,,,,,,,,,,,,,,,,,,,,,,,,,,,,,,,,,,,,,,,,,,0,,,,,,,,,,,,,,,,,,,,j,0.6175,"[""4"",""space"",""j""]",0,0,0,0,1,,,,,,,,,,,,,,,,,,,,,,,,,,,,,,,,,,,,,,,,,,,,,,,,,,,,,,,,,,,,,,,,,
,,,,135992,001,2023-05-03_20h49.18.471,fluency,2022.2.5,Win32,144.5922499,,,,,,,,,,,,,,,,,,,,,,,3,1,img/B01_03.jpg,CONTROL,Press J as soon as you see a face, ,JK,,,,,,,,,,,,,,,,,,,,,,,,,,,,,,,,6,0.745,,,,,,,,,,,,,,,,,,,,,space,0.1201,0,55,55,3,1,,,,,,,,,,,,,,,,,,,,,,,,,,,,,,,,,,,,,,,,,,,,,,,,,,,,,,,,,,
,,,,135992,001,2023-05-03_20h49.18.471,fluency,2022.2.5,Win32,144.5922499,,,,,,,,,,,,,,,,,,,,,,,,,,,,,,,,,,,,,,,,,,,,,,,,,,,,,,,0,,,,,,,,,,,,,,,,,,,,j,0.5213,"[""6"",""space"",""j""]",0,0,0,0,1,,,,,,,,,,,,,,,,,,,,,,,,,,,,,,,,,,,,,,,,,,,,,,,,,,,,,,,,,,,,,,,,,
,,,,135992,001,2023-05-03_20h49.18.471,fluency,2022.2.5,Win32,144.5922499,,,,,,,,,,,,,,,,,,,,,,,4,5,img/B05_04.jpg,CONTROL,Press J as soon as you see a face, ,JK,,,,,,,,,,,,,,,,,,,,,,,,,,,,,,,,3,0.2847,,,,,,,,,,,,,,,,,,,,,space,0.1624,0,56,56,48,1,,,,,,,,,,,,,,,,,,,,,,,,,,,,,,,,,,,,,,,,,,,,,,,,,,,,,,,,,,
,,,,135992,001,2023-05-03_20h49.18.471,fluency,2022.2.5,Win32,144.5922499,,,,,,,,,,,,,,,,,,,,,,,,,,,,,,,,,,,,,,,,,,,,,,,,,,,,,,,0,,,,,,,,,,,,,,,,,,,,j,0.4088,"[""3"",""space"",""j""]",0,0,0,0,1,,,,,,,,,,,,,,,,,,,,,,,,,,,,,,,,,,,,,,,,,,,,,,,,,,,,,,,,,,,,,,,,,
,,,,135992,001,2023-05-03_20h49.18.471,fluency,2022.2.5,Win32,144.5922499,,,,,,,,,,,,,,,,,,,,,,,3,3,img/B03_03.jpg,CONTROL,Press J as soon as you see a face, ,JK,,,,,,,,,,,,,,,,,,,,,,,,,,,,,,,,5,0.3943,,,,,,,,,,,,,,,,,,,,,space,0.0728,0,57,57,25,1,,,,,,,,,,,,,,,,,,,,,,,,,,,,,,,,,,,,,,,,,,,,,,,,,,,,,,,,,,
,,,,135992,001,2023-05-03_20h49.18.471,fluency,2022.2.5,Win32,144.5922499,,,,,,,,,,,,,,,,,,,,,,,,,,,,,,,,,,,,,,,,,,,,,,,,,,,,,,,0,,,,,,,,,,,,,,,,,,,,j,0.3438,"[""5"",""space"",""j""]",0,0,0,0,1,,,,,,,,,,,,,,,,,,,,,,,,,,,,,,,,,,,,,,,,,,,,,,,,,,,,,,,,,,,,,,,,,
,,,,135992,001,2023-05-03_20h49.18.471,fluency,2022.2.5,Win32,144.5922499,,,,,,,,,,,,,,,,,,,,,,,5,9,img/B09_05.jpg,CONTROL,Press J as soon as you see a face, ,JK,,,,,,,,,,,,,,,,,,,,,,,,,,,,,,,,6,0.8917,,,,,,,,,,,,,,,,,,,,,space,0.133,0,58,58,93,1,,,,,,,,,,,,,,,,,,,,,,,,,,,,,,,,,,,,,,,,,,,,,,,,,,,,,,,,,,
,,,,135992,001,2023-05-03_20h49.18.471,fluency,2022.2.5,Win32,144.5922499,,,,,,,,,,,,,,,,,,,,,,,,,,,,,,,,,,,,,,,,,,,,,,,,,,,,,,,0,,,,,,,,,,,,,,,,,,,,j,0.3031,"[""6"",""space"",""j""]",0,0,0,0,1,,,,,,,,,,,,,,,,,,,,,,,,,,,,,,,,,,,,,,,,,,,,,,,,,,,,,,,,,,,,,,,,,
,,,,135992,001,2023-05-03_20h49.18.471,fluency,2022.2.5,Win32,144.5922499,,,,,,,,,,,,,,,,,,,,,,,8,9,img/B09_08.jpg,CONTROL,Press J as soon as you see a face, ,JK,,,,,,,,,,,,,,,,,,,,,,,,,,,,,,,,7,0.3914,,,,,,,,,,,,,,,,,,,,,space,0.069,0,59,59,96,1,,,,,,,,,,,,,,,,,,,,,,,,,,,,,,,,,,,,,,,,,,,,,,,,,,,,,,,,,,
,,,,135992,001,2023-05-03_20h49.18.471,fluency,2022.2.5,Win32,144.5922499,,,,,,,,,,,,,,,,,,,,,,,,,,,,,,,,,,,,,,,,,,,,,,,,,,,,,,,0,,,,,,,,,,,,,,,,,,,,j,0.3044,"[""7"",""space"",""j""]",0,0,0,0,1,,,,,,,,,,,,,,,,,,,,,,,,,,,,,,,,,,,,,,,,,,,,,,,,,,,,,,,,,,,,,,,,,
,,,,135992,001,2023-05-03_20h49.18.471,fluency,2022.2.5,Win32,144.5922499,,,,,,,,,,,,,,,,,,,,,,,0,7,img/B07_00.jpg,CONTROL,Press J as soon as you see a face, ,JK,,,,,,,,,,,,,,,,,,,,,,,,,,,,,,,,5,0.2766,,,,,,,,,,,,,,,,,,,,,space,0.12,0,60,60,66,1,,,,,,,,,,,,,,,,,,,,,,,,,,,,,,,,,,,,,,,,,,,,,,,,,,,,,,,,,,
,,,,135992,001,2023-05-03_20h49.18.471,fluency,2022.2.5,Win32,144.5922499,,,,,,,,,,,,,,,,,,,,,,,,,,,,,,,,,,,,,,,,,,,,,,,,,,,,,,,0,,,,,,,,,,,,,,,,,,,,j,0.2516,"[""5"",""space"",""j""]",0,0,0,0,1,,,,,,,,,,,,,,,,,,,,,,,,,,,,,,,,,,,,,,,,,,,,,,,,,,,,,,,,,,,,,,,,,
,,,,135992,001,2023-05-03_20h49.18.471,fluency,2022.2.5,Win32,144.5922499,,,,,,,,,,,,,,,,,,,,,,,7,3,img/B03_07.jpg,CONTROL,Press J as soon as you see a face, ,JK,,,,,,,,,,,,,,,,,,,,,,,,,,,,,,,,7,1.7278,,,,,,,,,,,,,,,,,,,,,space,0.098,0,61,61,29,1,,,,,,,,,,,,,,,,,,,,,,,,,,,,,,,,,,,,,,,,,,,,,,,,,,,,,,,,,,
,,,,135992,001,2023-05-03_20h49.18.471,fluency,2022.2.5,Win32,144.5922499,,,,,,,,,,,,,,,,,,,,,,,,,,,,,,,,,,,,,,,,,,,,,,,,,,,,,,,0,,,,,,,,,,,,,,,,,,,,j,0.4413,"[""7"",""space"",""j""]",0,0,0,0,1,,,,,,,,,,,,,,,,,,,,,,,,,,,,,,,,,,,,,,,,,,,,,,,,,,,,,,,,,,,,,,,,,
,,,,135992,001,2023-05-03_20h49.18.471,fluency,2022.2.5,Win32,144.5922499,,,,,,,,,,,,,,,,,,,,,,,2,1,img/B01_02.jpg,CONTROL,Press J as soon as you see a face, ,JK,,,,,,,,,,,,,,,,,,,,,,,,,,,,,,,,6,0.8235,,,,,,,,,,,,,,,,,,,,,space,0.0717,0,62,62,2,1,,,,,,,,,,,,,,,,,,,,,,,,,,,,,,,,,,,,,,,,,,,,,,,,,,,,,,,,,,
,,,,135992,001,2023-05-03_20h49.18.471,fluency,2022.2.5,Win32,144.5922499,,,,,,,,,,,,,,,,,,,,,,,,,,,,,,,,,,,,,,,,,,,,,,,,,,,,,,,0,,,,,,,,,,,,,,,,,,,,j,0.9401,"[""6"",""space"",""j""]",0,0,0,0,1,,,,,,,,,,,,,,,,,,,,,,,,,,,,,,,,,,,,,,,,,,,,,,,,,,,,,,,,,,,,,,,,,
,,,,135992,001,2023-05-03_20h49.18.471,fluency,2022.2.5,Win32,144.5922499,,,,,,,,,,,,,,,,,,,,,,,6,4,img/B04_06.jpg,CONTROL,Press J as soon as you see a face, ,JK,,,,,,,,,,,,,,,,,,,,,,,,,,,,,,,,5,1.0922,,,,,,,,,,,,,,,,,,,,,space,0.3969,0,63,63,39,1,,,,,,,,,,,,,,,,,,,,,,,,,,,,,,,,,,,,,,,,,,,,,,,,,,,,,,,,,,
,,,,135992,001,2023-05-03_20h49.18.471,fluency,2022.2.5,Win32,144.5922499,,,,,,,,,,,,,,,,,,,,,,,,,,,,,,,,,,,,,,,,,,,,,,,,,,,,,,,0,,,,,,,,,,,,,,,,,,,,j,0.2395,"[""5"",""space"",""j""]",0,0,0,0,1,,,,,,,,,,,,,,,,,,,,,,,,,,,,,,,,,,,,,,,,,,,,,,,,,,,,,,,,,,,,,,,,,
,,,,135992,001,2023-05-03_20h49.18.471,fluency,2022.2.5,Win32,144.5922499,,,,,,,,,,,,,,,,,,,,,,,2,10,img/B10_02.jpg,CONTROL,Press J as soon as you see a face, ,JK,,,,,,,,,,,,,,,,,,,,,,,,,,,,,,,,4,0.2675,,,,,,,,,,,,,,,,,,,,,space,0.1135,0,64,64,101,1,,,,,,,,,,,,,,,,,,,,,,,,,,,,,,,,,,,,,,,,,,,,,,,,,,,,,,,,,,
,,,,135992,001,2023-05-03_20h49.18.471,fluency,2022.2.5,Win32,144.5922499,,,,,,,,,,,,,,,,,,,,,,,,,,,,,,,,,,,,,,,,,,,,,,,,,,,,,,,0,,,,,,,,,,,,,,,,,,,,j,0.2398,"[""4"",""space"",""j""]",0,0,0,0,1,,,,,,,,,,,,,,,,,,,,,,,,,,,,,,,,,,,,,,,,,,,,,,,,,,,,,,,,,,,,,,,,,
,,,,135992,001,2023-05-03_20h49.18.471,fluency,2022.2.5,Win32,144.5922499,,,,,,,,,,,,,,,,,,,,,,,7,1,img/B01_07.jpg,CONTROL,Press J as soon as you see a face, ,JK,,,,,,,,,,,,,,,,,,,,,,,,,,,,,,,,4,0.3526,,,,,,,,,,,,,,,,,,,,,space,0.0926,0,65,65,7,1,,,,,,,,,,,,,,,,,,,,,,,,,,,,,,,,,,,,,,,,,,,,,,,,,,,,,,,,,,
,,,,135992,001,2023-05-03_20h49.18.471,fluency,2022.2.5,Win32,144.5922499,,,,,,,,,,,,,,,,,,,,,,,,,,,,,,,,,,,,,,,,,,,,,,,,,,,,,,,0,,,,,,,,,,,,,,,,,,,,j,0.2255,"[""4"",""space"",""j""]",0,0,0,0,1,,,,,,,,,,,,,,,,,,,,,,,,,,,,,,,,,,,,,,,,,,,,,,,,,,,,,,,,,,,,,,,,,
,,,,135992,001,2023-05-03_20h49.18.471,fluency,2022.2.5,Win32,144.5922499,,,,,,,,,,,,,,,,,,,,,,,5,10,img/B10_05.jpg,CONTROL,Press J as soon as you see a face, ,JK,,,,,,,,,,,,,,,,,,,,,,,,,,,,,,,,4,0.266,,,,,,,,,,,,,,,,,,,,,space,0.1117,0,66,66,104,1,,,,,,,,,,,,,,,,,,,,,,,,,,,,,,,,,,,,,,,,,,,,,,,,,,,,,,,,,,
,,,,135992,001,2023-05-03_20h49.18.471,fluency,2022.2.5,Win32,144.5922499,,,,,,,,,,,,,,,,,,,,,,,,,,,,,,,,,,,,,,,,,,,,,,,,,,,,,,,0,,,,,,,,,,,,,,,,,,,,j,0.4227,"[""4"",""space"",""j""]",0,0,0,0,1,,,,,,,,,,,,,,,,,,,,,,,,,,,,,,,,,,,,,,,,,,,,,,,,,,,,,,,,,,,,,,,,,
,,,,135992,001,2023-05-03_20h49.18.471,fluency,2022.2.5,Win32,144.5922499,,,,,,,,,,,,,,,,,,,,,,,5,1,img/B01_05.jpg,CONTROL,Press J as soon as you see a face, ,JK,,,,,,,,,,,,,,,,,,,,,,,,,,,,,,,,5,0.3268,,,,,,,,,,,,,,,,,,,,,space,0.1186,0,67,67,5,1,,,,,,,,,,,,,,,,,,,,,,,,,,,,,,,,,,,,,,,,,,,,,,,,,,,,,,,,,,
,,,,135992,001,2023-05-03_20h49.18.471,fluency,2022.2.5,Win32,144.5922499,,,,,,,,,,,,,,,,,,,,,,,,,,,,,,,,,,,,,,,,,,,,,,,,,,,,,,,0,,,,,,,,,,,,,,,,,,,,j,0.4968,"[""5"",""space"",""j""]",0,0,0,0,1,,,,,,,,,,,,,,,,,,,,,,,,,,,,,,,,,,,,,,,,,,,,,,,,,,,,,,,,,,,,,,,,,
,,,,135992,001,2023-05-03_20h49.18.471,fluency,2022.2.5,Win32,144.5922499,,,,,,,,,,,,,,,,,,,,,,,0,1,img/B01_00.jpg,CONTROL,Press J as soon as you see a face, ,JK,,,,,,,,,,,,,,,,,,,,,,,,,,,,,,,,5,0.2919,,,,,,,,,,,,,,,,,,,,,space,0.257,0,68,68,0,1,,,,,,,,,,,,,,,,,,,,,,,,,,,,,,,,,,,,,,,,,,,,,,,,,,,,,,,,,,
,,,,135992,001,2023-05-03_20h49.18.471,fluency,2022.2.5,Win32,144.5922499,,,,,,,,,,,,,,,,,,,,,,,,,,,,,,,,,,,,,,,,,,,,,,,,,,,,,,,0,,,,,,,,,,,,,,,,,,,,j,0.1848,"[""5"",""space"",""j""]",0,0,0,0,1,,,,,,,,,,,,,,,,,,,,,,,,,,,,,,,,,,,,,,,,,,,,,,,,,,,,,,,,,,,,,,,,,
,,,,135992,001,2023-05-03_20h49.18.471,fluency,2022.2.5,Win32,144.5922499,,,,,,,,,,,,,,,,,,,,,,,10,10,img/B10_10.jpg,CONTROL,Press J as soon as you see a face, ,JK,,,,,,,,,,,,,,,,,,,,,,,,,,,,,,,,4,0.3781,,,,,,,,,,,,,,,,,,,,,space,0.1781,0,69,69,109,1,,,,,,,,,,,,,,,,,,,,,,,,,,,,,,,,,,,,,,,,,,,,,,,,,,,,,,,,,,
,,,,135992,001,2023-05-03_20h49.18.471,fluency,2022.2.5,Win32,144.5922499,,,,,,,,,,,,,,,,,,,,,,,,,,,,,,,,,,,,,,,,,,,,,,,,,,,,,,,0,,,,,,,,,,,,,,,,,,,,j,0.2606,"[""4"",""space"",""j""]",0,0,0,0,1,,,,,,,,,,,,,,,,,,,,,,,,,,,,,,,,,,,,,,,,,,,,,,,,,,,,,,,,,,,,,,,,,
,,,,135992,001,2023-05-03_20h49.18.471,fluency,2022.2.5,Win32,144.5922499,,,,,,,,,,,,,,,,,,,,,,,9,9,img/B09_09.jpg,CONTROL,Press J as soon as you see a face, ,JK,,,,,,,,,,,,,,,,,,,,,,,,,,,,,,,,7,0.4271,,,,,,,,,,,,,,,,,,,,,space,0.3334,0,70,70,97,1,,,,,,,,,,,,,,,,,,,,,,,,,,,,,,,,,,,,,,,,,,,,,,,,,,,,,,,,,,
,,,,135992,001,2023-05-03_20h49.18.471,fluency,2022.2.5,Win32,144.5922499,,,,,,,,,,,,,,,,,,,,,,,,,,,,,,,,,,,,,,,,,,,,,,,,,,,,,,,0,,,,,,,,,,,,,,,,,,,,j,0.4915,"[""7"",""space"",""j""]",0,0,0,0,1,,,,,,,,,,,,,,,,,,,,,,,,,,,,,,,,,,,,,,,,,,,,,,,,,,,,,,,,,,,,,,,,,
,,,,135992,001,2023-05-03_20h49.18.471,fluency,2022.2.5,Win32,144.5922499,,,,,,,,,,,,,,,,,,,,,,,1,8,img/B08_01.jpg,CONTROL,Press J as soon as you see a face, ,JK,,,,,,,,,,,,,,,,,,,,,,,,,,,,,,,,5,0.4337,,,,,,,,,,,,,,,,,,,,,space,0.2367,0,71,71,78,1,,,,,,,,,,,,,,,,,,,,,,,,,,,,,,,,,,,,,,,,,,,,,,,,,,,,,,,,,,
,,,,135992,001,2023-05-03_20h49.18.471,fluency,2022.2.5,Win32,144.5922499,,,,,,,,,,,,,,,,,,,,,,,,,,,,,,,,,,,,,,,,,,,,,,,,,,,,,,,0,,,,,,,,,,,,,,,,,,,,j,0.2821,"[""5"",""space"",""j""]",0,0,0,0,1,,,,,,,,,,,,,,,,,,,,,,,,,,,,,,,,,,,,,,,,,,,,,,,,,,,,,,,,,,,,,,,,,
,,,,135992,001,2023-05-03_20h49.18.471,fluency,2022.2.5,Win32,144.5922499,,,,,,,,,,,,,,,,,,,,,,,3,2,img/B02_03.jpg,CONTROL,Press J as soon as you see a face, ,JK,,,,,,,,,,,,,,,,,,,,,,,,,,,,,,,,6,0.3807,,,,,,,,,,,,,,,,,,,,,space,0.223,0,72,72,14,1,,,,,,,,,,,,,,,,,,,,,,,,,,,,,,,,,,,,,,,,,,,,,,,,,,,,,,,,,,
,,,,135992,001,2023-05-03_20h49.18.471,fluency,2022.2.5,Win32,144.5922499,,,,,,,,,,,,,,,,,,,,,,,,,,,,,,,,,,,,,,,,,,,,,,,,,,,,,,,0,,,,,,,,,,,,,,,,,,,,j,0.2675,"[""6"",""space"",""j""]",0,0,0,0,1,,,,,,,,,,,,,,,,,,,,,,,,,,,,,,,,,,,,,,,,,,,,,,,,,,,,,,,,,,,,,,,,,
,,,,135992,001,2023-05-03_20h49.18.471,fluency,2022.2.5,Win32,144.5922499,,,,,,,,,,,,,,,,,,,,,,,0,5,img/B05_00.jpg,CONTROL,Press J as soon as you see a face, ,JK,,,,,,,,,,,,,,,,,,,,,,,,,,,,,,,,5,0.4609,,,,,,,,,,,,,,,,,,,,,space,0.2092,0,73,73,44,1,,,,,,,,,,,,,,,,,,,,,,,,,,,,,,,,,,,,,,,,,,,,,,,,,,,,,,,,,,
,,,,135992,001,2023-05-03_20h49.18.471,fluency,2022.2.5,Win32,144.5922499,,,,,,,,,,,,,,,,,,,,,,,,,,,,,,,,,,,,,,,,,,,,,,,,,,,,,,,0,,,,,,,,,,,,,,,,,,,,j,0.2201,"[""5"",""space"",""j""]",0,0,0,0,1,,,,,,,,,,,,,,,,,,,,,,,,,,,,,,,,,,,,,,,,,,,,,,,,,,,,,,,,,,,,,,,,,
,,,,135992,001,2023-05-03_20h49.18.471,fluency,2022.2.5,Win32,144.5922499,,,,,,,,,,,,,,,,,,,,,,,2,3,img/B03_02.jpg,CONTROL,Press J as soon as you see a face, ,JK,,,,,,,,,,,,,,,,,,,,,,,,,,,,,,,,6,0.4335,,,,,,,,,,,,,,,,,,,,,space,0.0767,0,74,74,24,1,,,,,,,,,,,,,,,,,,,,,,,,,,,,,,,,,,,,,,,,,,,,,,,,,,,,,,,,,,
,,,,135992,001,2023-05-03_20h49.18.471,fluency,2022.2.5,Win32,144.5922499,,,,,,,,,,,,,,,,,,,,,,,,,,,,,,,,,,,,,,,,,,,,,,,,,,,,,,,0,,,,,,,,,,,,,,,,,,,,j,0.2486,"[""6"",""space"",""j""]",0,0,0,0,1,,,,,,,,,,,,,,,,,,,,,,,,,,,,,,,,,,,,,,,,,,,,,,,,,,,,,,,,,,,,,,,,,
,,,,135992,001,2023-05-03_20h49.18.471,fluency,2022.2.5,Win32,144.5922499,,,,,,,,,,,,,,,,,,,,,,,8,1,img/B01_08.jpg,CONTROL,Press J as soon as you see a face, ,JK,,,,,,,,,,,,,,,,,,,,,,,,,,,,,,,,5,0.5505,,,,,,,,,,,,,,,,,,,,,space,0.3988,0,75,75,8,1,,,,,,,,,,,,,,,,,,,,,,,,,,,,,,,,,,,,,,,,,,,,,,,,,,,,,,,,,,
,,,,135992,001,2023-05-03_20h49.18.471,fluency,2022.2.5,Win32,144.5922499,,,,,,,,,,,,,,,,,,,,,,,,,,,,,,,,,,,,,,,,,,,,,,,,,,,,,,,0,,,,,,,,,,,,,,,,,,,,j,0.226,"[""5"",""space"",""j""]",0,0,0,0,1,,,,,,,,,,,,,,,,,,,,,,,,,,,,,,,,,,,,,,,,,,,,,,,,,,,,,,,,,,,,,,,,,
,,,,135992,001,2023-05-03_20h49.18.471,fluency,2022.2.5,Win32,144.5922499,,,,,,,,,,,,,,,,,,,,,,,7,9,img/B09_07.jpg,CONTROL,Press J as soon as you see a face, ,JK,,,,,,,,,,,,,,,,,,,,,,,,,,,,,,,,7,0.524,,,,,,,,,,,,,,,,,,,,,space,0.1073,0,76,76,95,1,,,,,,,,,,,,,,,,,,,,,,,,,,,,,,,,,,,,,,,,,,,,,,,,,,,,,,,,,,
,,,,135992,001,2023-05-03_20h49.18.471,fluency,2022.2.5,Win32,144.5922499,,,,,,,,,,,,,,,,,,,,,,,,,,,,,,,,,,,,,,,,,,,,,,,,,,,,,,,0,,,,,,,,,,,,,,,,,,,,j,0.257,"[""7"",""space"",""j""]",0,0,0,0,1,,,,,,,,,,,,,,,,,,,,,,,,,,,,,,,,,,,,,,,,,,,,,,,,,,,,,,,,,,,,,,,,,
,,,,135992,001,2023-05-03_20h49.18.471,fluency,2022.2.5,Win32,144.5922499,,,,,,,,,,,,,,,,,,,,,,,6,10,img/B10_06.jpg,CONTROL,Press J as soon as you see a face, ,JK,,,,,,,,,,,,,,,,,,,,,,,,,,,,,,,,4,0.2637,,,,,,,,,,,,,,,,,,,,,space,0.1143,0,77,77,105,1,,,,,,,,,,,,,,,,,,,,,,,,,,,,,,,,,,,,,,,,,,,,,,,,,,,,,,,,,,
,,,,135992,001,2023-05-03_20h49.18.471,fluency,2022.2.5,Win32,144.5922499,,,,,,,,,,,,,,,,,,,,,,,,,,,,,,,,,,,,,,,,,,,,,,,,,,,,,,,0,,,,,,,,,,,,,,,,,,,,j,0.2755,"[""4"",""space"",""j""]",0,0,0,0,1,,,,,,,,,,,,,,,,,,,,,,,,,,,,,,,,,,,,,,,,,,,,,,,,,,,,,,,,,,,,,,,,,
,,,,135992,001,2023-05-03_20h49.18.471,fluency,2022.2.5,Win32,144.5922499,,,,,,,,,,,,,,,,,,,,,,,5,8,img/B08_05.jpg,CONTROL,Press J as soon as you see a face, ,JK,,,,,,,,,,,,,,,,,,,,,,,,,,,,,,,,4,0.5446,,,,,,,,,,,,,,,,,,,,,space,0.1057,0,78,78,82,1,,,,,,,,,,,,,,,,,,,,,,,,,,,,,,,,,,,,,,,,,,,,,,,,,,,,,,,,,,
,,,,135992,001,2023-05-03_20h49.18.471,fluency,2022.2.5,Win32,144.5922499,,,,,,,,,,,,,,,,,,,,,,,,,,,,,,,,,,,,,,,,,,,,,,,,,,,,,,,0,,,,,,,,,,,,,,,,,,,,j,0.2982,"[""4"",""space"",""j""]",0,0,0,0,1,,,,,,,,,,,,,,,,,,,,,,,,,,,,,,,,,,,,,,,,,,,,,,,,,,,,,,,,,,,,,,,,,
,,,,135992,001,2023-05-03_20h49.18.471,fluency,2022.2.5,Win32,144.5922499,,,,,,,,,,,,,,,,,,,,,,,5,3,img/B03_05.jpg,CONTROL,Press J as soon as you see a face, ,JK,,,,,,,,,,,,,,,,,,,,,,,,,,,,,,,,5,0.315,,,,,,,,,,,,,,,,,,,,,space,0.092,0,79,79,27,1,,,,,,,,,,,,,,,,,,,,,,,,,,,,,,,,,,,,,,,,,,,,,,,,,,,,,,,,,,
,,,,135992,001,2023-05-03_20h49.18.471,fluency,2022.2.5,Win32,144.5922499,,,,,,,,,,,,,,,,,,,,,,,,,,,,,,,,,,,,,,,,,,,,,,,,,,,,,,,0,,,,,,,,,,,,,,,,,,,,j,0.3025,"[""5"",""space"",""j""]",0,0,0,0,1,,,,,,,,,,,,,,,,,,,,,,,,,,,,,,,,,,,,,,,,,,,,,,,,,,,,,,,,,,,,,,,,,
,,,,135992,001,2023-05-03_20h49.18.471,fluency,2022.2.5,Win32,144.5922499,,,,,,,,,,,,,,,,,,,,,,,10,5,img/B05_10.jpg,CONTROL,Press J as soon as you see a face, ,JK,,,,,,,,,,,,,,,,,,,,,,,,,,,,,,,,5,0.3921,,,,,,,,,,,,,,,,,,,,,space,0.1395,0,80,80,54,1,,,,,,,,,,,,,,,,,,,,,,,,,,,,,,,,,,,,,,,,,,,,,,,,,,,,,,,,,,
,,,,135992,001,2023-05-03_20h49.18.471,fluency,2022.2.5,Win32,144.5922499,,,,,,,,,,,,,,,,,,,,,,,,,,,,,,,,,,,,,,,,,,,,,,,,,,,,,,,0,,,,,,,,,,,,,,,,,,,,j,0.2257,"[""5"",""space"",""j""]",0,0,0,0,1,,,,,,,,,,,,,,,,,,,,,,,,,,,,,,,,,,,,,,,,,,,,,,,,,,,,,,,,,,,,,,,,,
,,,,135992,001,2023-05-03_20h49.18.471,fluency,2022.2.5,Win32,144.5922499,,,,,,,,,,,,,,,,,,,,,,,10,8,img/B08_10.jpg,CONTROL,Press J as soon as you see a face, ,JK,,,,,,,,,,,,,,,,,,,,,,,,,,,,,,,,4,0.2639,,,,,,,,,,,,,,,,,,,,,space,0.1047,0,81,81,87,1,,,,,,,,,,,,,,,,,,,,,,,,,,,,,,,,,,,,,,,,,,,,,,,,,,,,,,,,,,
,,,,135992,001,2023-05-03_20h49.18.471,fluency,2022.2.5,Win32,144.5922499,,,,,,,,,,,,,,,,,,,,,,,,,,,,,,,,,,,,,,,,,,,,,,,,,,,,,,,0,,,,,,,,,,,,,,,,,,,,j,0.2538,"[""4"",""space"",""j""]",0,0,0,0,1,,,,,,,,,,,,,,,,,,,,,,,,,,,,,,,,,,,,,,,,,,,,,,,,,,,,,,,,,,,,,,,,,
,,,,135992,001,2023-05-03_20h49.18.471,fluency,2022.2.5,Win32,144.5922499,,,,,,,,,,,,,,,,,,,,,,,7,2,img/B02_07.jpg,CONTROL,Press J as soon as you see a face, ,JK,,,,,,,,,,,,,,,,,,,,,,,,,,,,,,,,6,0.3083,,,,,,,,,,,,,,,,,,,,,space,0.1491,0,82,82,18,1,,,,,,,,,,,,,,,,,,,,,,,,,,,,,,,,,,,,,,,,,,,,,,,,,,,,,,,,,,
,,,,135992,001,2023-05-03_20h49.18.471,fluency,2022.2.5,Win32,144.5922499,,,,,,,,,,,,,,,,,,,,,,,,,,,,,,,,,,,,,,,,,,,,,,,,,,,,,,,0,,,,,,,,,,,,,,,,,,,,j,0.2826,"[""6"",""space"",""j""]",0,0,0,0,1,,,,,,,,,,,,,,,,,,,,,,,,,,,,,,,,,,,,,,,,,,,,,,,,,,,,,,,,,,,,,,,,,
,,,,135992,001,2023-05-03_20h49.18.471,fluency,2022.2.5,Win32,144.5922499,,,,,,,,,,,,,,,,,,,,,,,1,4,img/B04_01.jpg,CONTROL,Press J as soon as you see a face, ,JK,,,,,,,,,,,,,,,,,,,,,,,,,,,,,,,,5,0.3653,,,,,,,,,,,,,,,,,,,,,space,0.106,0,83,83,34,1,,,,,,,,,,,,,,,,,,,,,,,,,,,,,,,,,,,,,,,,,,,,,,,,,,,,,,,,,,
,,,,135992,001,2023-05-03_20h49.18.471,fluency,2022.2.5,Win32,144.5922499,,,,,,,,,,,,,,,,,,,,,,,,,,,,,,,,,,,,,,,,,,,,,,,,,,,,,,,0,,,,,,,,,,,,,,,,,,,,j,0.2894,"[""5"",""space"",""j""]",0,0,0,0,1,,,,,,,,,,,,,,,,,,,,,,,,,,,,,,,,,,,,,,,,,,,,,,,,,,,,,,,,,,,,,,,,,
,,,,135992,001,2023-05-03_20h49.18.471,fluency,2022.2.5,Win32,144.5922499,,,,,,,,,,,,,,,,,,,,,,,10,6,img/B06_10.jpg,CONTROL,Press J as soon as you see a face, ,JK,,,,,,,,,,,,,,,,,,,,,,,,,,,,,,,,8,0.2745,,,,,,,,,,,,,,,,,,,,,space,0.0926,0,84,84,65,1,,,,,,,,,,,,,,,,,,,,,,,,,,,,,,,,,,,,,,,,,,,,,,,,,,,,,,,,,,
,,,,135992,001,2023-05-03_20h49.18.471,fluency,2022.2.5,Win32,144.5922499,,,,,,,,,,,,,,,,,,,,,,,,,,,,,,,,,,,,,,,,,,,,,,,,,,,,,,,0,,,,,,,,,,,,,,,,,,,,j,0.2916,"[""8"",""space"",""j""]",0,0,0,0,1,,,,,,,,,,,,,,,,,,,,,,,,,,,,,,,,,,,,,,,,,,,,,,,,,,,,,,,,,,,,,,,,,
,,,,135992,001,2023-05-03_20h49.18.471,fluency,2022.2.5,Win32,144.5922499,,,,,,,,,,,,,,,,,,,,,,,1,9,img/B09_01.jpg,CONTROL,Press J as soon as you see a face, ,JK,,,,,,,,,,,,,,,,,,,,,,,,,,,,,,,,6,0.5504,,,,,,,,,,,,,,,,,,,,,space,0.0908,0,85,85,89,1,,,,,,,,,,,,,,,,,,,,,,,,,,,,,,,,,,,,,,,,,,,,,,,,,,,,,,,,,,
,,,,135992,001,2023-05-03_20h49.18.471,fluency,2022.2.5,Win32,144.5922499,,,,,,,,,,,,,,,,,,,,,,,,,,,,,,,,,,,,,,,,,,,,,,,,,,,,,,,0,,,,,,,,,,,,,,,,,,,,j,0.2741,"[""6"",""space"",""j""]",0,0,0,0,1,,,,,,,,,,,,,,,,,,,,,,,,,,,,,,,,,,,,,,,,,,,,,,,,,,,,,,,,,,,,,,,,,
,,,,135992,001,2023-05-03_20h49.18.471,fluency,2022.2.5,Win32,144.5922499,,,,,,,,,,,,,,,,,,,,,,,10,7,img/B07_10.jpg,CONTROL,Press J as soon as you see a face, ,JK,,,,,,,,,,,,,,,,,,,,,,,,,,,,,,,,6,0.4683,,,,,,,,,,,,,,,,,,,,,space,0.0628,0,86,86,76,1,,,,,,,,,,,,,,,,,,,,,,,,,,,,,,,,,,,,,,,,,,,,,,,,,,,,,,,,,,
,,,,135992,001,2023-05-03_20h49.18.471,fluency,2022.2.5,Win32,144.5922499,,,,,,,,,,,,,,,,,,,,,,,,,,,,,,,,,,,,,,,,,,,,,,,,,,,,,,,0,,,,,,,,,,,,,,,,,,,,j,0.2407,"[""6"",""space"",""j""]",0,0,0,0,1,,,,,,,,,,,,,,,,,,,,,,,,,,,,,,,,,,,,,,,,,,,,,,,,,,,,,,,,,,,,,,,,,
,,,,135992,001,2023-05-03_20h49.18.471,fluency,2022.2.5,Win32,144.5922499,,,,,,,,,,,,,,,,,,,,,,,8,10,img/B10_08.jpg,CONTROL,Press J as soon as you see a face, ,JK,,,,,,,,,,,,,,,,,,,,,,,,,,,,,,,,5,0.4368,,,,,,,,,,,,,,,,,,,,,space,0.113,0,87,87,107,1,,,,,,,,,,,,,,,,,,,,,,,,,,,,,,,,,,,,,,,,,,,,,,,,,,,,,,,,,,
,,,,135992,001,2023-05-03_20h49.18.471,fluency,2022.2.5,Win32,144.5922499,,,,,,,,,,,,,,,,,,,,,,,,,,,,,,,,,,,,,,,,,,,,,,,,,,,,,,,0,,,,,,,,,,,,,,,,,,,,j,0.3809,"[""5"",""space"",""j""]",0,0,0,0,1,,,,,,,,,,,,,,,,,,,,,,,,,,,,,,,,,,,,,,,,,,,,,,,,,,,,,,,,,,,,,,,,,
,,,,135992,001,2023-05-03_20h49.18.471,fluency,2022.2.5,Win32,144.5922499,,,,,,,,,,,,,,,,,,,,,,,6,9,img/B09_06.jpg,CONTROL,Press J as soon as you see a face, ,JK,,,,,,,,,,,,,,,,,,,,,,,,,,,,,,,,8,0.2711,,,,,,,,,,,,,,,,,,,,,space,0.1459,0,88,88,94,1,,,,,,,,,,,,,,,,,,,,,,,,,,,,,,,,,,,,,,,,,,,,,,,,,,,,,,,,,,
,,,,135992,001,2023-05-03_20h49.18.471,fluency,2022.2.5,Win32,144.5922499,,,,,,,,,,,,,,,,,,,,,,,,,,,,,,,,,,,,,,,,,,,,,,,,,,,,,,,0,,,,,,,,,,,,,,,,,,,,j,0.2409,"[""8"",""space"",""j""]",0,0,0,0,1,,,,,,,,,,,,,,,,,,,,,,,,,,,,,,,,,,,,,,,,,,,,,,,,,,,,,,,,,,,,,,,,,
,,,,135992,001,2023-05-03_20h49.18.471,fluency,2022.2.5,Win32,144.5922499,,,,,,,,,,,,,,,,,,,,,,,2,9,img/B09_02.jpg,CONTROL,Press J as soon as you see a face, ,JK,,,,,,,,,,,,,,,,,,,,,,,,,,,,,,,,6,1.0299,,,,,,,,,,,,,,,,,,,,,space,0.1179,0,89,89,90,1,,,,,,,,,,,,,,,,,,,,,,,,,,,,,,,,,,,,,,,,,,,,,,,,,,,,,,,,,,
,,,,135992,001,2023-05-03_20h49.18.471,fluency,2022.2.5,Win32,144.5922499,,,,,,,,,,,,,,,,,,,,,,,,,,,,,,,,,,,,,,,,,,,,,,,,,,,,,,,0,,,,,,,,,,,,,,,,,,,,j,0.2384,"[""6"",""space"",""j""]",0,0,0,0,1,,,,,,,,,,,,,,,,,,,,,,,,,,,,,,,,,,,,,,,,,,,,,,,,,,,,,,,,,,,,,,,,,
,,,,135992,001,2023-05-03_20h49.18.471,fluency,2022.2.5,Win32,144.5922499,,,,,,,,,,,,,,,,,,,,,,,5,4,img/B04_05.jpg,CONTROL,Press J as soon as you see a face, ,JK,,,,,,,,,,,,,,,,,,,,,,,,,,,,,,,,4,0.3041,,,,,,,,,,,,,,,,,,,,,space,0.1326,0,90,90,38,1,,,,,,,,,,,,,,,,,,,,,,,,,,,,,,,,,,,,,,,,,,,,,,,,,,,,,,,,,,
,,,,135992,001,2023-05-03_20h49.18.471,fluency,2022.2.5,Win32,144.5922499,,,,,,,,,,,,,,,,,,,,,,,,,,,,,,,,,,,,,,,,,,,,,,,,,,,,,,,0,,,,,,,,,,,,,,,,,,,,j,0.2766,"[""4"",""space"",""j""]",0,0,0,0,1,,,,,,,,,,,,,,,,,,,,,,,,,,,,,,,,,,,,,,,,,,,,,,,,,,,,,,,,,,,,,,,,,
,,,,135992,001,2023-05-03_20h49.18.471,fluency,2022.2.5,Win32,144.5922499,,,,,,,,,,,,,,,,,,,,,,,4,1,img/B01_04.jpg,CONTROL,Press J as soon as you see a face, ,JK,,,,,,,,,,,,,,,,,,,,,,,,,,,,,,,,6,0.3502,,,,,,,,,,,,,,,,,,,,,space,0.1219,0,91,91,4,1,,,,,,,,,,,,,,,,,,,,,,,,,,,,,,,,,,,,,,,,,,,,,,,,,,,,,,,,,,
,,,,135992,001,2023-05-03_20h49.18.471,fluency,2022.2.5,Win32,144.5922499,,,,,,,,,,,,,,,,,,,,,,,,,,,,,,,,,,,,,,,,,,,,,,,,,,,,,,,0,,,,,,,,,,,,,,,,,,,,j,0.2447,"[""6"",""space"",""j""]",0,0,0,0,1,,,,,,,,,,,,,,,,,,,,,,,,,,,,,,,,,,,,,,,,,,,,,,,,,,,,,,,,,,,,,,,,,
,,,,135992,001,2023-05-03_20h49.18.471,fluency,2022.2.5,Win32,144.5922499,,,,,,,,,,,,,,,,,,,,,,,3,8,img/B08_03.jpg,CONTROL,Press J as soon as you see a face, ,JK,,,,,,,,,,,,,,,,,,,,,,,,,,,,,,,,5,0.3537,,,,,,,,,,,,,,,,,,,,,space,0.1138,0,92,92,80,1,,,,,,,,,,,,,,,,,,,,,,,,,,,,,,,,,,,,,,,,,,,,,,,,,,,,,,,,,,
,,,,135992,001,2023-05-03_20h49.18.471,fluency,2022.2.5,Win32,144.5922499,,,,,,,,,,,,,,,,,,,,,,,,,,,,,,,,,,,,,,,,,,,,,,,,,,,,,,,0,,,,,,,,,,,,,,,,,,,,j,0.49,"[""5"",""space"",""j""]",0,0,0,0,1,,,,,,,,,,,,,,,,,,,,,,,,,,,,,,,,,,,,,,,,,,,,,,,,,,,,,,,,,,,,,,,,,
,,,,135992,001,2023-05-03_20h49.18.471,fluency,2022.2.5,Win32,144.5922499,,,,,,,,,,,,,,,,,,,,,,,2,4,img/B04_02.jpg,CONTROL,Press J as soon as you see a face, ,JK,,,,,,,,,,,,,,,,,,,,,,,,,,,,,,,,5,1.0514,,,,,,,,,,,,,,,,,,,,,space,1.6407,0,93,93,35,1,,,,,,,,,,,,,,,,,,,,,,,,,,,,,,,,,,,,,,,,,,,,,,,,,,,,,,,,,,
,,,,135992,001,2023-05-03_20h49.18.471,fluency,2022.2.5,Win32,144.5922499,,,,,,,,,,,,,,,,,,,,,,,,,,,,,,,,,,,,,,,,,,,,,,,,,,,,,,,0,,,,,,,,,,,,,,,,,,,,j,0.2487,"[""5"",""space"",""j""]",0,0,0,0,1,,,,,,,,,,,,,,,,,,,,,,,,,,,,,,,,,,,,,,,,,,,,,,,,,,,,,,,,,,,,,,,,,
,,,,135992,001,2023-05-03_20h49.18.471,fluency,2022.2.5,Win32,144.5922499,,,,,,,,,,,,,,,,,,,,,,,9,4,img/B04_09.jpg,CONTROL,Press J as soon as you see a face, ,JK,,,,,,,,,,,,,,,,,,,,,,,,,,,,,,,,3,0.2607,,,,,,,,,,,,,,,,,,,,,space,0.1267,0,94,94,42,1,,,,,,,,,,,,,,,,,,,,,,,,,,,,,,,,,,,,,,,,,,,,,,,,,,,,,,,,,,
,,,,135992,001,2023-05-03_20h49.18.471,fluency,2022.2.5,Win32,144.5922499,,,,,,,,,,,,,,,,,,,,,,,,,,,,,,,,,,,,,,,,,,,,,,,,,,,,,,,0,,,,,,,,,,,,,,,,,,,,j,0.2387,"[""3"",""space"",""j""]",0,0,0,0,1,,,,,,,,,,,,,,,,,,,,,,,,,,,,,,,,,,,,,,,,,,,,,,,,,,,,,,,,,,,,,,,,,
,,,,135992,001,2023-05-03_20h49.18.471,fluency,2022.2.5,Win32,144.5922499,,,,,,,,,,,,,,,,,,,,,,,2,7,img/B07_02.jpg,CONTROL,Press J as soon as you see a face, ,JK,,,,,,,,,,,,,,,,,,,,,,,,,,,,,,,,6,0.3791,,,,,,,,,,,,,,,,,,,,,space,0.1116,0,95,95,68,1,,,,,,,,,,,,,,,,,,,,,,,,,,,,,,,,,,,,,,,,,,,,,,,,,,,,,,,,,,
,,,,135992,001,2023-05-03_20h49.18.471,fluency,2022.2.5,Win32,144.5922499,,,,,,,,,,,,,,,,,,,,,,,,,,,,,,,,,,,,,,,,,,,,,,,,,,,,,,,0,,,,,,,,,,,,,,,,,,,,j,0.2436,"[""6"",""space"",""j""]",0,0,0,0,1,,,,,,,,,,,,,,,,,,,,,,,,,,,,,,,,,,,,,,,,,,,,,,,,,,,,,,,,,,,,,,,,,
,,,,135992,001,2023-05-03_20h49.18.471,fluency,2022.2.5,Win32,144.5922499,,,,,,,,,,,,,,,,,,,,,,,5,5,img/B05_05.jpg,CONTROL,Press J as soon as you see a face, ,JK,,,,,,,,,,,,,,,,,,,,,,,,,,,,,,,,6,0.3891,,,,,,,,,,,,,,,,,,,,,space,0.108,0,96,96,49,1,,,,,,,,,,,,,,,,,,,,,,,,,,,,,,,,,,,,,,,,,,,,,,,,,,,,,,,,,,
,,,,135992,001,2023-05-03_20h49.18.471,fluency,2022.2.5,Win32,144.5922499,,,,,,,,,,,,,,,,,,,,,,,,,,,,,,,,,,,,,,,,,,,,,,,,,,,,,,,0,,,,,,,,,,,,,,,,,,,,j,0.2793,"[""6"",""space"",""j""]",0,0,0,0,1,,,,,,,,,,,,,,,,,,,,,,,,,,,,,,,,,,,,,,,,,,,,,,,,,,,,,,,,,,,,,,,,,
,,,,135992,001,2023-05-03_20h49.18.471,fluency,2022.2.5,Win32,144.5922499,,,,,,,,,,,,,,,,,,,,,,,9,7,img/B07_09.jpg,CONTROL,Press J as soon as you see a face, ,JK,,,,,,,,,,,,,,,,,,,,,,,,,,,,,,,,6,0.4702,,,,,,,,,,,,,,,,,,,,,space,0.1264,0,97,97,75,1,,,,,,,,,,,,,,,,,,,,,,,,,,,,,,,,,,,,,,,,,,,,,,,,,,,,,,,,,,
,,,,135992,001,2023-05-03_20h49.18.471,fluency,2022.2.5,Win32,144.5922499,,,,,,,,,,,,,,,,,,,,,,,,,,,,,,,,,,,,,,,,,,,,,,,,,,,,,,,0,,,,,,,,,,,,,,,,,,,,j,0.2484,"[""6"",""space"",""j""]",0,0,0,0,1,,,,,,,,,,,,,,,,,,,,,,,,,,,,,,,,,,,,,,,,,,,,,,,,,,,,,,,,,,,,,,,,,
,,,,135992,001,2023-05-03_20h49.18.471,fluency,2022.2.5,Win32,144.5922499,,,,,,,,,,,,,,,,,,,,,,,3,9,img/B09_03.jpg,CONTROL,Press J as soon as you see a face, ,JK,,,,,,,,,,,,,,,,,,,,,,,,,,,,,,,,6,0.2891,,,,,,,,,,,,,,,,,,,,,space,0.1144,0,98,98,91,1,,,,,,,,,,,,,,,,,,,,,,,,,,,,,,,,,,,,,,,,,,,,,,,,,,,,,,,,,,
,,,,135992,001,2023-05-03_20h49.18.471,fluency,2022.2.5,Win32,144.5922499,,,,,,,,,,,,,,,,,,,,,,,,,,,,,,,,,,,,,,,,,,,,,,,,,,,,,,,0,,,,,,,,,,,,,,,,,,,,j,0.316,"[""6"",""space"",""j""]",0,0,0,0,1,,,,,,,,,,,,,,,,,,,,,,,,,,,,,,,,,,,,,,,,,,,,,,,,,,,,,,,,,,,,,,,,,
,,,,135992,001,2023-05-03_20h49.18.471,fluency,2022.2.5,Win32,144.5922499,,,,,,,,,,,,,,,,,,,,,,,7,10,img/B10_07.jpg,CONTROL,Press J as soon as you see a face, ,JK,,,,,,,,,,,,,,,,,,,,,,,,,,,,,,,,4,0.2954,,,,,,,,,,,,,,,,,,,,,space,0.1072,0,99,99,106,1,,,,,,,,,,,,,,,,,,,,,,,,,,,,,,,,,,,,,,,,,,,,,,,,,,,,,,,,,,
,,,,135992,001,2023-05-03_20h49.18.471,fluency,2022.2.5,Win32,144.5922499,,,,,,,,,,,,,,,,,,,,,,,,,,,,,,,,,,,,,,,,,,,,,,,,,,,,,,,0,,,,,,,,,,,,,,,,,,,,j,0.2812,"[""4"",""space"",""j""]",0,0,0,0,1,,,,,,,,,,,,,,,,,,,,,,,,,,,,,,,,,,,,,,,,,,,,,,,,,,,,,,,,,,,,,,,,,
,,,,135992,001,2023-05-03_20h49.18.471,fluency,2022.2.5,Win32,144.5922499,,,,,,,,,,,,,,,,,,,,,,,8,5,img/B05_08.jpg,CONTROL,Press J as soon as you see a face, ,JK,,,,,,,,,,,,,,,,,,,,,,,,,,,,,,,,5,0.2661,,,,,,,,,,,,,,,,,,,,,space,0.0501,0,100,100,52,1,,,,,,,,,,,,,,,,,,,,,,,,,,,,,,,,,,,,,,,,,,,,,,,,,,,,,,,,,,
,,,,135992,001,2023-05-03_20h49.18.471,fluency,2022.2.5,Win32,144.5922499,,,,,,,,,,,,,,,,,,,,,,,,,,,,,,,,,,,,,,,,,,,,,,,,,,,,,,,0,,,,,,,,,,,,,,,,,,,,j,0.2613,"[""5"",""space"",""j""]",0,0,0,0,1,,,,,,,,,,,,,,,,,,,,,,,,,,,,,,,,,,,,,,,,,,,,,,,,,,,,,,,,,,,,,,,,,
,,,,135992,001,2023-05-03_20h49.18.471,fluency,2022.2.5,Win32,144.5922499,,,,,,,,,,,,,,,,,,,,,,,4,10,img/B10_04.jpg,CONTROL,Press J as soon as you see a face, ,JK,,,,,,,,,,,,,,,,,,,,,,,,,,,,,,,,4,0.2704,,,,,,,,,,,,,,,,,,,,,space,0.1243,0,101,101,103,1,,,,,,,,,,,,,,,,,,,,,,,,,,,,,,,,,,,,,,,,,,,,,,,,,,,,,,,,,,
,,,,135992,001,2023-05-03_20h49.18.471,fluency,2022.2.5,Win32,144.5922499,,,,,,,,,,,,,,,,,,,,,,,,,,,,,,,,,,,,,,,,,,,,,,,,,,,,,,,0,,,,,,,,,,,,,,,,,,,,j,0.3572,"[""4"",""space"",""j""]",0,0,0,0,1,,,,,,,,,,,,,,,,,,,,,,,,,,,,,,,,,,,,,,,,,,,,,,,,,,,,,,,,,,,,,,,,,
,,,,135992,001,2023-05-03_20h49.18.471,fluency,2022.2.5,Win32,144.5922499,,,,,,,,,,,,,,,,,,,,,,,2,2,img/B02_02.jpg,CONTROL,Press J as soon as you see a face, ,JK,,,,,,,,,,,,,,,,,,,,,,,,,,,,,,,,4,0.2909,,,,,,,,,,,,,,,,,,,,,space,0.118,0,102,102,13,1,,,,,,,,,,,,,,,,,,,,,,,,,,,,,,,,,,,,,,,,,,,,,,,,,,,,,,,,,,
,,,,135992,001,2023-05-03_20h49.18.471,fluency,2022.2.5,Win32,144.5922499,,,,,,,,,,,,,,,,,,,,,,,,,,,,,,,,,,,,,,,,,,,,,,,,,,,,,,,0,,,,,,,,,,,,,,,,,,,,j,0.3712,"[""4"",""space"",""j""]",0,0,0,0,1,,,,,,,,,,,,,,,,,,,,,,,,,,,,,,,,,,,,,,,,,,,,,,,,,,,,,,,,,,,,,,,,,
,,,,135992,001,2023-05-03_20h49.18.471,fluency,2022.2.5,Win32,144.5922499,,,,,,,,,,,,,,,,,,,,,,,7,4,img/B04_07.jpg,CONTROL,Press J as soon as you see a face, ,JK,,,,,,,,,,,,,,,,,,,,,,,,,,,,,,,,4,0.311,,,,,,,,,,,,,,,,,,,,,space,0.1184,0,103,103,40,1,,,,,,,,,,,,,,,,,,,,,,,,,,,,,,,,,,,,,,,,,,,,,,,,,,,,,,,,,,
,,,,135992,001,2023-05-03_20h49.18.471,fluency,2022.2.5,Win32,144.5922499,,,,,,,,,,,,,,,,,,,,,,,,,,,,,,,,,,,,,,,,,,,,,,,,,,,,,,,0,,,,,,,,,,,,,,,,,,,,j,0.2464,"[""4"",""space"",""j""]",0,0,0,0,1,,,,,,,,,,,,,,,,,,,,,,,,,,,,,,,,,,,,,,,,,,,,,,,,,,,,,,,,,,,,,,,,,
,,,,135992,001,2023-05-03_20h49.18.471,fluency,2022.2.5,Win32,144.5922499,,,,,,,,,,,,,,,,,,,,,,,8,2,img/B02_08.jpg,CONTROL,Press J as soon as you see a face, ,JK,,,,,,,,,,,,,,,,,,,,,,,,,,,,,,,,6,0.2522,,,,,,,,,,,,,,,,,,,,,space,0.0873,0,104,104,19,1,,,,,,,,,,,,,,,,,,,,,,,,,,,,,,,,,,,,,,,,,,,,,,,,,,,,,,,,,,
,,,,135992,001,2023-05-03_20h49.18.471,fluency,2022.2.5,Win32,144.5922499,,,,,,,,,,,,,,,,,,,,,,,,,,,,,,,,,,,,,,,,,,,,,,,,,,,,,,,0,,,,,,,,,,,,,,,,,,,,j,0.2351,"[""6"",""space"",""j""]",0,0,0,0,1,,,,,,,,,,,,,,,,,,,,,,,,,,,,,,,,,,,,,,,,,,,,,,,,,,,,,,,,,,,,,,,,,
,,,,135992,001,2023-05-03_20h49.18.471,fluency,2022.2.5,Win32,144.5922499,,,,,,,,,,,,,,,,,,,,,,,1,10,img/B10_01.jpg,CONTROL,Press J as soon as you see a face, ,JK,,,,,,,,,,,,,,,,,,,,,,,,,,,,,,,,5,0.4174,,,,,,,,,,,,,,,,,,,,,space,0.0975,0,105,105,100,1,,,,,,,,,,,,,,,,,,,,,,,,,,,,,,,,,,,,,,,,,,,,,,,,,,,,,,,,,,
,,,,135992,001,2023-05-03_20h49.18.471,fluency,2022.2.5,Win32,144.5922499,,,,,,,,,,,,,,,,,,,,,,,,,,,,,,,,,,,,,,,,,,,,,,,,,,,,,,,0,,,,,,,,,,,,,,,,,,,,j,0.2329,"[""5"",""space"",""j""]",0,0,0,0,1,,,,,,,,,,,,,,,,,,,,,,,,,,,,,,,,,,,,,,,,,,,,,,,,,,,,,,,,,,,,,,,,,
,,,,135992,001,2023-05-03_20h49.18.471,fluency,2022.2.5,Win32,144.5922499,,,,,,,,,,,,,,,,,,,,,,,6,5,img/B05_06.jpg,CONTROL,Press J as soon as you see a face, ,JK,,,,,,,,,,,,,,,,,,,,,,,,,,,,,,,,5,0.3017,,,,,,,,,,,,,,,,,,,,,space,0.1046,0,106,106,50,1,,,,,,,,,,,,,,,,,,,,,,,,,,,,,,,,,,,,,,,,,,,,,,,,,,,,,,,,,,
,,,,135992,001,2023-05-03_20h49.18.471,fluency,2022.2.5,Win32,144.5922499,,,,,,,,,,,,,,,,,,,,,,,,,,,,,,,,,,,,,,,,,,,,,,,,,,,,,,,0,,,,,,,,,,,,,,,,,,,,j,0.6375,"[""5"",""space"",""j""]",0,0,0,0,1,,,,,,,,,,,,,,,,,,,,,,,,,,,,,,,,,,,,,,,,,,,,,,,,,,,,,,,,,,,,,,,,,
,,,,135992,001,2023-05-03_20h49.18.471,fluency,2022.2.5,Win32,144.5922499,,,,,,,,,,,,,,,,,,,,,,,9,5,img/B05_09.jpg,CONTROL,Press J as soon as you see a face, ,JK,,,,,,,,,,,,,,,,,,,,,,,,,,,,,,,,5,0.4531,,,,,,,,,,,,,,,,,,,,,space,0.0696,0,107,107,53,1,,,,,,,,,,,,,,,,,,,,,,,,,,,,,,,,,,,,,,,,,,,,,,,,,,,,,,,,,,
,,,,135992,001,2023-05-03_20h49.18.471,fluency,2022.2.5,Win32,144.5922499,,,,,,,,,,,,,,,,,,,,,,,,,,,,,,,,,,,,,,,,,,,,,,,,,,,,,,,0,,,,,,,,,,,,,,,,,,,,j,0.2559,"[""5"",""space"",""j""]",0,0,0,0,1,,,,,,,,,,,,,,,,,,,,,,,,,,,,,,,,,,,,,,,,,,,,,,,,,,,,,,,,,,,,,,,,,
,,,,135992,001,2023-05-03_20h49.18.471,fluency,2022.2.5,Win32,144.5922499,,,,,,,,,,,,,,,,,,,,,,,1,7,img/B07_01.jpg,CONTROL,Press J as soon as you see a face, ,JK,,,,,,,,,,,,,,,,,,,,,,,,,,,,,,,,6,0.5349,,,,,,,,,,,,,,,,,,,,,space,0.1403,0,108,108,67,1,,,,,,,,,,,,,,,,,,,,,,,,,,,,,,,,,,,,,,,,,,,,,,,,,,,,,,,,,,
,,,,135992,001,2023-05-03_20h49.18.471,fluency,2022.2.5,Win32,144.5922499,,,,,,,,,,,,,,,,,,,,,,,,,,,,,,,,,,,,,,,,,,,,,,,,,,,,,,,0,,,,,,,,,,,,,,,,,,,,j,0.2533,"[""6"",""space"",""j""]",0,0,0,0,1,,,,,,,,,,,,,,,,,,,,,,,,,,,,,,,,,,,,,,,,,,,,,,,,,,,,,,,,,,,,,,,,,
,,,,135992,001,2023-05-03_20h49.18.471,fluency,2022.2.5,Win32,144.5922499,,,,,,,,,,,,,,,,,,,,,,,2,8,img/B08_02.jpg,CONTROL,Press J as soon as you see a face, ,JK,,,,,,,,,,,,,,,,,,,,,,,,,,,,,,,,6,0.3235,,,,,,,,,,,,,,,,,,,,,space,0.0731,0,109,109,79,1,,,,,,,,,,,,,,,,,,,,,,,,,,,,,,,,,,,,,,,,,,,,,,,,,,,,,,,,,,
,,,,135992,001,2023-05-03_20h49.18.471,fluency,2022.2.5,Win32,144.5922499,,,,,,,,,,,,,,,,,,,,,,,,,,,,,,,,,,,,,,,,,,,,,,,,,,,,,,,,,,,,,,,,,,,,,,,,,,,,,,,,,,,,,,,,,,space,7.6507,,,,,,,,,,,,,,,,,,,,,,,,,,,,,,,,,,,,,,,,,,,,,,,,,,,,,,,,
,,,,135992,001,2023-05-03_20h49.18.471,fluency,2022.2.5,Win32,144.5922499,,,,,,,,,,,,,,,,,,,,,,,,,,,,,,,,,,,,,,,,,,,,,,,,,,,,,,,,,,,,,,,,,,,,,,,,,,,,,,,,,,,,,,,,,,,,5,12.3334,4,19.9895,4,28.9862,4,34.1961,1,[2.299600000143073],[2.299600000143073],,,,,,,,,,,,,,,,,,,,,,,,,,,,,,,,,,,,,,,,,,,,,
,,,,135992,001,2023-05-03_20h49.18.471,fluency,2022.2.5,Win32,144.5922499,,,,,,,,,,,,,,,,,,,,,,,,,,,,,,,,,,,,,,,,,,,,,,,,,,,,,,,,,,,,,,,,,,,,,,,,,,,,,,,,,,,,,,,,,,,,,,,,,,,,,,,3,7.2365,4,13.4366,5,18.382,5,24.6752,1,[0.6591999998091751],[0.6591999998091751],,,,,,,,,,,,,,,,,,,,,,,,,,,,,,,,,,
,,,,135992,001,2023-05-03_20h49.18.471,fluency,2022.2.5,Win32,144.5922499,,,,,,,,,,,,,,,,,,,,,,,,,,,,,,,,,,,,,,,,,,,,,,,,,,,,,,,,,,,,,,,,,,,,,,,,,,,,,,,,,,,,,,,,,,,,,,,,,,,,,,,,,,,,,,,,,,4,14.0223,4,37.3177,4,43.6103,5,49.4649,1,[0.8186999998092688],[0.8186999998092688],,,,,,,,,,,,,,,,,,,,,,,
,,,,135992,001,2023-05-03_20h49.18.471,fluency,2022.2.5,Win32,144.5922499,,,,,,,,,,,,,,,,,,,,,,,,,,,,,,,,,,,,,,,,,,,,,,,,,,,,,,,,,,,,,,,,,,,,,,,,,,,,,,,,,,,,,,,,,,,,,,,,,,,,,,,,,,,,,,,,,,,,,,,,,,,,,5,5.1443,3,10.2189,4,12.6332,1,[0.710200000047621],[0.7102999999523263],,,,,,,,,,,,,,
,,,,135992,001,2023-05-03_20h49.18.471,fluency,2022.2.5,Win32,144.5922499,,,,,,,,,,,,,,,,,,,,,,,,,,,,,,,,,,,,,,,,,,,,,,,,,,,,,,,,,,,,,,,,,,,,,,,,,,,,,,,,,,,,,,,,,,,,,,,,,,,,,,,,,,,,,,,,,,,,,,,,,,,,,,,,,,,,,,4,3.3774,5,4.9925,,1,[2.8001999998092515],[2.8001999998092515],,,,,,
,,,,135992,001,2023-05-03_20h49.18.471,fluency,2022.2.5,Win32,144.5922499,,,,,,,,,,,,,,,,,,,,,,,,,,,,,,,,,,,,,,,,,,,,,,,,,,,,,,,,,,,,,,,,,,,,,,,,,,,,,,,,,,,,,,,,,,,,,,,,,,,,,,,,,,,,,,,,,,,,,,,,,,,,,,,,,,,,,,,,,,,,,,I just try to select the letter J as fast as I saw a face and select a number in the atractive scale depending on what I feel about the face,1,[144.8130999999048],[144.8130999999048],,
,,,,135992,001,2023-05-03_20h49.18.471,fluency,2022.2.5,Win32,144.5922499,,,,,,,,,,,,,,,,,,,,,,,,,,,,,,,,,,,,,,,,,,,,,,,,,,,,,,,,,,,,,,,,,,,,,,,,,,,,,,,,,,,,,,,,,,,,,,,,,,,,,,,,,,,,,,,,,,,,,,,,,,,,,,,,,,,,,,,,,,,,,,,,,,space,26.858
