welc_advance.keys,welc_advance.rt,participant,session,date,expName,psychopyVersion,OS,frameRate,consent_advance.keys,consent_advance.rt,consent_advance_2.keys,consent_advance_2.rt,consentClick.x,consentClick.y,consentClick.leftButton,consentClick.midButton,consentClick.rightButton,consentClick.time,consentClick.clicked_name,quitClick.x,quitClick.y,quitClick.leftButton,quitClick.midButton,quitClick.rightButton,quitClick.time,quitClick.clicked_name,instr_advance_3.keys,instr_advance_3.rt,spec_instr_adv.keys,spec_instr_adv.rt,spec_instr_adv2.keys,spec_instr_adv2.rt,instr_loop.thisRepN,instr_loop.thisTrialN,instr_loop.thisN,instr_loop.thisIndex,instr_loop.ran,steps,fams,face_file,cond,instr,term,key_map,attnKeyResp1.keys,attnKeyResp1.rt,q1.thisRepN,q1.thisTrialN,q1.thisN,q1.thisIndex,q1.ran,attnKeyResp2.keys,attnKeyResp2.rt,q2.thisRepN,q2.thisTrialN,q2.thisN,q2.thisIndex,q2.ran,attnKeyResp3.keys,attnKeyResp3.rt,q3.thisRepN,q3.thisTrialN,q3.thisN,q3.thisIndex,q3.ran,practiceStart.keys,practiceStart.rt,practiceResp.keys,timesRedone,redo_keypress.keys,redo_keypress.rt,practiceFailed.thisRepN,practiceFailed.thisTrialN,practiceFailed.thisN,practiceFailed.thisIndex,practiceFailed.ran,practiceRepeat.thisRepN,practiceRepeat.thisTrialN,practiceRepeat.thisN,practiceRepeat.thisIndex,practiceRepeat.ran,practiceResp.rt,attrRating.keys,attrRating.rt,practiceTrial.thisRepN,practiceTrial.thisTrialN,practiceTrial.thisN,practiceTrial.thisIndex,practiceTrial.ran,key_resp_3.keys,key_resp_3.rt,attnChecker.thisRepN,attnChecker.thisTrialN,attnChecker.thisN,attnChecker.thisIndex,attnChecker.ran,catResp.keys,redo_feedback_loop.thisRepN,redo_feedback_loop.thisTrialN,redo_feedback_loop.thisN,redo_feedback_loop.thisIndex,redo_feedback_loop.ran,repeat_loop.thisRepN,repeat_loop.thisTrialN,repeat_loop.thisN,repeat_loop.thisIndex,repeat_loop.ran,catResp.rt,contResp.keys,contResp.rt,trials.thisRepN,trials.thisTrialN,trials.thisN,trials.thisIndex,trials.ran,contResp_2.keys,contResp_2.rt,respQ1.response,respQ1.rt,respQ2.response,respQ2.rt,respQ3.response,respQ3.rt,respQ4.response,respQ4.rt,nextClick1.x,nextClick1.y,nextClick1.leftButton,nextClick1.midButton,nextClick1.rightButton,nextClick1.clicked_name,respQ5.response,respQ5.rt,respQ6.response,respQ6.rt,respQ7.response,respQ7.rt,respQ8.response,respQ8.rt,nextClick2.x,nextClick2.y,nextClick2.leftButton,nextClick2.midButton,nextClick2.rightButton,nextClick2.clicked_name,respQ9.response,respQ9.rt,respQ10.response,respQ10.rt,respQ11.response,respQ11.rt,respQ12.response,respQ12.rt,nextClick3.x,nextClick3.y,nextClick3.leftButton,nextClick3.midButton,nextClick3.rightButton,nextClick3.clicked_name,respQ13.response,respQ13.rt,respQ14.response,respQ14.rt,respQ15.response,respQ15.rt,nextClick4.x,nextClick4.y,nextClick4.leftButton,nextClick4.midButton,nextClick4.rightButton,nextClick4.clicked_name,respAge.response,respAge.rt,genderResp1.response,genderResp1.rt,genderResp2.text,demographClick.x,demographClick.y,demographClick.leftButton,demographClick.midButton,demographClick.rightButton,demographClick.clicked_name,textbox.text,openanswerClick.x,openanswerClick.y,openanswerClick.leftButton,openanswerClick.midButton,openanswerClick.rightButton,openanswerClick.time,openanswerClick.clicked_name,exitKey.keys,exitKey.rt
space,1.1527,1510,001,2023-03-30_06h48.13.451,fluency,2022.2.5,Win32,58.99008966,,,,,,,,,,,,,,,,,,,,,,,,,,,,,,,,,,,,,,,,,,,,,,,,,,,,,,,,,,,,,,,,,,,,,,,,,,,,,,,,,,,,,,,,,,,,,,,,,,,,,,,,,,,,,,,,,,,,,,,,,,,,,,,,,,,,,,,,,,,,,,,,,,,,,,,,,,,,,,,,,,,,,,,,,,,,,,,,,,,,,,,,
,,1510,001,2023-03-30_06h48.13.451,fluency,2022.2.5,Win32,58.99008966,space,1.4038,,,,,,,,,,,,,,,,,,,,,,,,,,,,,,,,,,,,,,,,,,,,,,,,,,,,,,,,,,,,,,,,,,,,,,,,,,,,,,,,,,,,,,,,,,,,,,,,,,,,,,,,,,,,,,,,,,,,,,,,,,,,,,,,,,,,,,,,,,,,,,,,,,,,,,,,,,,,,,,,,,,,,,,,,,,,,,,,,,,,,,
,,1510,001,2023-03-30_06h48.13.451,fluency,2022.2.5,Win32,58.99008966,,,space,1.9625,,,,,,,,,,,,,,,,,,,,,,,,,,,,,,,,,,,,,,,,,,,,,,,,,,,,,,,,,,,,,,,,,,,,,,,,,,,,,,,,,,,,,,,,,,,,,,,,,,,,,,,,,,,,,,,,,,,,,,,,,,,,,,,,,,,,,,,,,,,,,,,,,,,,,,,,,,,,,,,,,,,,,,,,,,,,,,,,,,,,
,,1510,001,2023-03-30_06h48.13.451,fluency,2022.2.5,Win32,58.99008966,,,,,0.308333362,-0.336111139,1,0,0,4.1396,iAgree,[],[],[],[],[],[],[],,,,,,,,,,,,,,,,,,,,,,,,,,,,,,,,,,,,,,,,,,,,,,,,,,,,,,,,,,,,,,,,,,,,,,,,,,,,,,,,,,,,,,,,,,,,,,,,,,,,,,,,,,,,,,,,,,,,,,,,,,,,,,,,,,,,,,,,,,,,,,,,,,,,,,,,,,,,,,,,,,,,,,
,,1510,001,2023-03-30_06h48.13.451,fluency,2022.2.5,Win32,58.99008966,,,,,,,,,,,,,,,,,,,space,12.1728,,,,,,,,,,,,,,,,,,,,,,,,,,,,,,,,,,,,,,,,,,,,,,,,,,,,,,,,,,,,,,,,,,,,,,,,,,,,,,,,,,,,,,,,,,,,,,,,,,,,,,,,,,,,,,,,,,,,,,,,,,,,,,,,,,,,,,,,,,,,,,,,,,,,,,,,,,,,,,,,,,,,
,,1510,001,2023-03-30_06h48.13.451,fluency,2022.2.5,Win32,58.99008966,,,,,,,,,,,,,,,,,,,,,space,27.998,space,12.8666,0,0,0,82,1,5,8,img/B08_05.jpg,GCNB,Press J if the face is NONBINARY and K if the face is GENDER-CONFORMING,Gender-conforming means that the face appears to be a typical example of its gender. Nonbinary means that the face does not conform to any particular gender norms.,KJ,,,,,,,,,,,,,,,,,,,,,,,,,,,,,,,,,,,,,,,,,,,,,,,,,,,,,,,,,,,,,,,,,,,,,,,,,,,,,,,,,,,,,,,,,,,,,,,,,,,,,,,,,,,,,,,,,,,,,,,,,,,,,,,,,,,,,,,,,,,,,,,,,,,,
,,1510,001,2023-03-30_06h48.13.451,fluency,2022.2.5,Win32,58.99008966,,,,,,,,,,,,,,,,,,,,,,,,,,,,,,,,,,,,,c,2.348,0,0,0,0,1,,,,,,,,,,,,,,,,,,,,,,,,,,,,,,,,,,,,,,,,,,,,,,,,,,,,,,,,,,,,,,,,,,,,,,,,,,,,,,,,,,,,,,,,,,,,,,,,,,,,,,,,,,,,,,,,,,,,,,,,,,,,,,,,,,,,,,,,,,,,,
,,1510,001,2023-03-30_06h48.13.451,fluency,2022.2.5,Win32,58.99008966,,,,,,,,,,,,,,,,,,,,,,,,,,,,,,,,,,,,,,,,,,,,a,2.2703,0,0,0,0,1,,,,,,,,,,,,,,,,,,,,,,,,,,,,,,,,,,,,,,,,,,,,,,,,,,,,,,,,,,,,,,,,,,,,,,,,,,,,,,,,,,,,,,,,,,,,,,,,,,,,,,,,,,,,,,,,,,,,,,,,,,,,,,,,,,,,,,
,,1510,001,2023-03-30_06h48.13.451,fluency,2022.2.5,Win32,58.99008966,,,,,,,,,,,,,,,,,,,,,,,,,,,,,,,,,,,,,,,,,,,,,,,,,,,c,5.0553,0,0,0,0,1,,,,,,,,,,,,,,,,,,,,,,,,,,,,,,,,,,,,,,,,,,,,,,,,,,,,,,,,,,,,,,,,,,,,,,,,,,,,,,,,,,,,,,,,,,,,,,,,,,,,,,,,,,,,,,,,,,,,,,,,,,,,,,,
,,1510,001,2023-03-30_06h48.13.451,fluency,2022.2.5,Win32,58.99008966,,,,,,,,,,,,,,,,,,,,,,,,,,,,,,,,,,,,,,,,,,,,,,,,,,,,,,,,,,space,0.2363,,1,space,3.2836,0,0,0,0,1,,,,,,,,,,,,,,,,,,,,,,,,,,,,,,,,,,,,,,,,,,,,,,,,,,,,,,,,,,,,,,,,,,,,,,,,,,,,,,,,,,,,,,,,,,,,,,,,,,,,,,,,,,,,,,,,,,,,
,,1510,001,2023-03-30_06h48.13.451,fluency,2022.2.5,Win32,58.99008966,,,,,,,,,,,,,,,,,,,,,,,,,,,,,,,,,,,,,,,,,,,,,,,,,,,,,,,,,,,,,,,,,,,,,0,0,0,0,1,,,,,,,,,,,,,,,,,,,,,,,,,,,,,,,,,,,,,,,,,,,,,,,,,,,,,,,,,,,,,,,,,,,,,,,,,,,,,,,,,,,,,,,,,,,,,,,,,,,,,,,,,,,,,,,
,,1510,001,2023-03-30_06h48.13.451,fluency,2022.2.5,Win32,58.99008966,,,,,,,,,,,,,,,,,,,,,,,,,,,,,,,,,,,,,,,,,,,,,,,,,,,,,,,,,,,,k,1,,,,,,,,1,0,1,0,1,0.639,,,,,,,,,,,,,,,,,,,,,,,,,,,,,,,,,,,,,,,,,,,,,,,,,,,,,,,,,,,,,,,,,,,,,,,,,,,,,,,,,,,,,,,,,,,,,,,,,,,,,,,,,,,,,,
,,1510,001,2023-03-30_06h48.13.451,fluency,2022.2.5,Win32,58.99008966,,,,,,,,,,,,,,,,,,,,,,,,,,,,,,,,,,,,,,,,,,,,,,,,,,,,,,,,,,,,,,,,,,,,,,,,,,,4,2.6123,0,0,0,0,1,,,,,,,,,,,,,,,,,,,,,,,,,,,,,,,,,,,,,,,,,,,,,,,,,,,,,,,,,,,,,,,,,,,,,,,,,,,,,,,,,,,,,,,,,,,,,,,,,,,,,,,
,,1510,001,2023-03-30_06h48.13.451,fluency,2022.2.5,Win32,58.99008966,,,,,,,,,,,,,,,,,,,,,,,,,,,,,,,,,,,,,,,,,,,,,,,,,,,,,,,,,,,,,,,,,,,,,,,,,,,,,,,,,,space,5.0306,0,0,0,0,1,,,,,,,,,,,,,,,,,,,,,,,,,,,,,,,,,,,,,,,,,,,,,,,,,,,,,,,,,,,,,,,,,,,,,,,,,,,,,,,,,,,,,,,,,,,,,,,,
,,1510,001,2023-03-30_06h48.13.451,fluency,2022.2.5,Win32,58.99008966,,,,,,,,,,,,,,,,,,,,,,,,,,,,,,,,,,,,,,,,,,,,,,,,,,,,,,,,,,,,,2,space,1.7076,,,,,,,,,,,,,,,,,,,,,,,,,,,0,0,0,0,1,,,,,,,,,,,,,,,,,,,,,,,,,,,,,,,,,,,,,,,,,,,,,,,,,,,,,,,,,,,,,,,,,,,,,,,,,,,,,,,,,,,,,,,,,,
,,1510,001,2023-03-30_06h48.13.451,fluency,2022.2.5,Win32,58.99008966,,,,,,,,,,,,,,,,,,,,,,,,,,,,,,,,,,,,,,,,,,,,,,,,,,,,,,,,,,,,,,,,,,,,,,,,,,,,,,,,,,,,,,,,,,,,,,,0,0,0,0,1,,,,,,,,,,,,,,,,,,,,,,,,,,,,,,,,,,,,,,,,,,,,,,,,,,,,,,,,,,,,,,,,,,,,,,,,,,,,,,,,,,,,,
,,1510,001,2023-03-30_06h48.13.451,fluency,2022.2.5,Win32,58.99008966,,,,,,,,,,,,,,,,,,,,,,,,,,,,,,,,,,,,,,,,,,,,,,,,,,,,,,,,,,,,,2,,,,,,,,,,,,,,,,,,,,,,,,,,,,k,,,,,,1,0,1,0,1,0.4724,,,,,,,,,,,,,,,,,,,,,,,,,,,,,,,,,,,,,,,,,,,,,,,,,,,,,,,,,,,,,,,,,,,,,,,,,,,,,,,,,,,,
,,1510,001,2023-03-30_06h48.13.451,fluency,2022.2.5,Win32,58.99008966,,,,,,,,,,,,,,,,,,,,,,,,,,,,,,6,6,img/B06_06.jpg,GCNB,Press J if the face is NONBINARY and K if the face is GENDER-CONFORMING,Gender-conforming means that the face appears to be a typical example of its gender. Nonbinary means that the face does not conform to any particular gender norms.,KJ,,,,,,,,,,,,,,,,,,,,,,,,,,,,,,,,,,,,,,,6,1.6756,,,,,,,,,,,,,,,,,,,,,,,,,space,17.6106,0,0,0,61,1,,,,,,,,,,,,,,,,,,,,,,,,,,,,,,,,,,,,,,,,,,,,,,,,,,,,,,,,,,,,,,,,,,,,,,,,,,,,,
,,1510,001,2023-03-30_06h48.13.451,fluency,2022.2.5,Win32,58.99008966,,,,,,,,,,,,,,,,,,,,,,,,,,,,,,,,,,,,,,,,,,,,,,,,,,,,,,,,,,,,,2,,,,,,,,,,,,,,,,,,,,,,,,,,,,k,,,,,,0,0,0,0,1,1.8748,,,,,,,,,,,,,,,,,,,,,,,,,,,,,,,,,,,,,,,,,,,,,,,,,,,,,,,,,,,,,,,,,,,,,,,,,,,,,,,,,,,,
,,1510,001,2023-03-30_06h48.13.451,fluency,2022.2.5,Win32,58.99008966,,,,,,,,,,,,,,,,,,,,,,,,,,,,,,3,5,img/B05_03.jpg,GCNB,Press J if the face is NONBINARY and K if the face is GENDER-CONFORMING,Gender-conforming means that the face appears to be a typical example of its gender. Nonbinary means that the face does not conform to any particular gender norms.,KJ,,,,,,,,,,,,,,,,,,,,,,,,,,,,,,,,,,,,,,,6,2.6501,,,,,,,,,,,,,,,,,,,,,,,,,space,38.1774,0,1,1,47,1,,,,,,,,,,,,,,,,,,,,,,,,,,,,,,,,,,,,,,,,,,,,,,,,,,,,,,,,,,,,,,,,,,,,,,,,,,,,,
,,1510,001,2023-03-30_06h48.13.451,fluency,2022.2.5,Win32,58.99008966,,,,,,,,,,,,,,,,,,,,,,,,,,,,,,,,,,,,,,,,,,,,,,,,,,,,,,,,,,,,,3,space,1.8792,,,,,,,,,,,,,,,,,,,,,,,,,,,0,0,0,0,1,,,,,,,,,,,,,,,,,,,,,,,,,,,,,,,,,,,,,,,,,,,,,,,,,,,,,,,,,,,,,,,,,,,,,,,,,,,,,,,,,,,,,,,,,,
,,1510,001,2023-03-30_06h48.13.451,fluency,2022.2.5,Win32,58.99008966,,,,,,,,,,,,,,,,,,,,,,,,,,,,,,,,,,,,,,,,,,,,,,,,,,,,,,,,,,,,,,,,,,,,,,,,,,,,,,,,,,,,,,,,,,,,,,,0,0,0,0,1,,,,,,,,,,,,,,,,,,,,,,,,,,,,,,,,,,,,,,,,,,,,,,,,,,,,,,,,,,,,,,,,,,,,,,,,,,,,,,,,,,,,,
,,1510,001,2023-03-30_06h48.13.451,fluency,2022.2.5,Win32,58.99008966,,,,,,,,,,,,,,,,,,,,,,,,,,,,,,,,,,,,,,,,,,,,,,,,,,,,,,,,,,,,,3,,,,,,,,,,,,,,,,,,,,,,,,,,,,j,,,,,,1,0,1,0,1,0.5179,,,,,,,,,,,,,,,,,,,,,,,,,,,,,,,,,,,,,,,,,,,,,,,,,,,,,,,,,,,,,,,,,,,,,,,,,,,,,,,,,,,,
,,1510,001,2023-03-30_06h48.13.451,fluency,2022.2.5,Win32,58.99008966,,,,,,,,,,,,,,,,,,,,,,,,,,,,,,0,8,img/B08_00.jpg,GCNB,Press J if the face is NONBINARY and K if the face is GENDER-CONFORMING,Gender-conforming means that the face appears to be a typical example of its gender. Nonbinary means that the face does not conform to any particular gender norms.,KJ,,,,,,,,,,,,,,,,,,,,,,,,,,,,,,,,,,,,,,,5,3.0622,,,,,,,,,,,,,,,,,,,,,,,,,space,1.5182,0,2,2,77,1,,,,,,,,,,,,,,,,,,,,,,,,,,,,,,,,,,,,,,,,,,,,,,,,,,,,,,,,,,,,,,,,,,,,,,,,,,,,,
,,1510,001,2023-03-30_06h48.13.451,fluency,2022.2.5,Win32,58.99008966,,,,,,,,,,,,,,,,,,,,,,,,,,,,,,,,,,,,,,,,,,,,,,,,,,,,,,,,,,,,,3,,,,,,,,,,,,,,,,,,,,,,,,,,,,k,,,,,,0,0,0,0,1,1.1331,,,,,,,,,,,,,,,,,,,,,,,,,,,,,,,,,,,,,,,,,,,,,,,,,,,,,,,,,,,,,,,,,,,,,,,,,,,,,,,,,,,,
,,1510,001,2023-03-30_06h48.13.451,fluency,2022.2.5,Win32,58.99008966,,,,,,,,,,,,,,,,,,,,,,,,,,,,,,4,6,img/B06_04.jpg,GCNB,Press J if the face is NONBINARY and K if the face is GENDER-CONFORMING,Gender-conforming means that the face appears to be a typical example of its gender. Nonbinary means that the face does not conform to any particular gender norms.,KJ,,,,,,,,,,,,,,,,,,,,,,,,,,,,,,,,,,,,,,,4,2.2304,,,,,,,,,,,,,,,,,,,,,,,,,space,3.1336,0,3,3,59,1,,,,,,,,,,,,,,,,,,,,,,,,,,,,,,,,,,,,,,,,,,,,,,,,,,,,,,,,,,,,,,,,,,,,,,,,,,,,,
,,1510,001,2023-03-30_06h48.13.451,fluency,2022.2.5,Win32,58.99008966,,,,,,,,,,,,,,,,,,,,,,,,,,,,,,,,,,,,,,,,,,,,,,,,,,,,,,,,,,,,,3,,,,,,,,,,,,,,,,,,,,,,,,,,,,k,,,,,,0,0,0,0,1,1.5912,,,,,,,,,,,,,,,,,,,,,,,,,,,,,,,,,,,,,,,,,,,,,,,,,,,,,,,,,,,,,,,,,,,,,,,,,,,,,,,,,,,,
,,1510,001,2023-03-30_06h48.13.451,fluency,2022.2.5,Win32,58.99008966,,,,,,,,,,,,,,,,,,,,,,,,,,,,,,0,7,img/B07_00.jpg,GCNB,Press J if the face is NONBINARY and K if the face is GENDER-CONFORMING,Gender-conforming means that the face appears to be a typical example of its gender. Nonbinary means that the face does not conform to any particular gender norms.,KJ,,,,,,,,,,,,,,,,,,,,,,,,,,,,,,,,,,,,,,,3,1.3988,,,,,,,,,,,,,,,,,,,,,,,,,space,4.3553,0,4,4,66,1,,,,,,,,,,,,,,,,,,,,,,,,,,,,,,,,,,,,,,,,,,,,,,,,,,,,,,,,,,,,,,,,,,,,,,,,,,,,,
,,1510,001,2023-03-30_06h48.13.451,fluency,2022.2.5,Win32,58.99008966,,,,,,,,,,,,,,,,,,,,,,,,,,,,,,,,,,,,,,,,,,,,,,,,,,,,,,,,,,,,,3,,,,,,,,,,,,,,,,,,,,,,,,,,,,k,,,,,,0,0,0,0,1,1.0649,,,,,,,,,,,,,,,,,,,,,,,,,,,,,,,,,,,,,,,,,,,,,,,,,,,,,,,,,,,,,,,,,,,,,,,,,,,,,,,,,,,,
,,1510,001,2023-03-30_06h48.13.451,fluency,2022.2.5,Win32,58.99008966,,,,,,,,,,,,,,,,,,,,,,,,,,,,,,0,4,img/B04_00.jpg,GCNB,Press J if the face is NONBINARY and K if the face is GENDER-CONFORMING,Gender-conforming means that the face appears to be a typical example of its gender. Nonbinary means that the face does not conform to any particular gender norms.,KJ,,,,,,,,,,,,,,,,,,,,,,,,,,,,,,,,,,,,,,,4,2.3632,,,,,,,,,,,,,,,,,,,,,,,,,space,1.3237,0,5,5,33,1,,,,,,,,,,,,,,,,,,,,,,,,,,,,,,,,,,,,,,,,,,,,,,,,,,,,,,,,,,,,,,,,,,,,,,,,,,,,,
,,1510,001,2023-03-30_06h48.13.451,fluency,2022.2.5,Win32,58.99008966,,,,,,,,,,,,,,,,,,,,,,,,,,,,,,,,,,,,,,,,,,,,,,,,,,,,,,,,,,,,,3,,,,,,,,,,,,,,,,,,,,,,,,,,,,k,,,,,,0,0,0,0,1,0.9815,,,,,,,,,,,,,,,,,,,,,,,,,,,,,,,,,,,,,,,,,,,,,,,,,,,,,,,,,,,,,,,,,,,,,,,,,,,,,,,,,,,,
,,1510,001,2023-03-30_06h48.13.451,fluency,2022.2.5,Win32,58.99008966,,,,,,,,,,,,,,,,,,,,,,,,,,,,,,0,5,img/B05_00.jpg,GCNB,Press J if the face is NONBINARY and K if the face is GENDER-CONFORMING,Gender-conforming means that the face appears to be a typical example of its gender. Nonbinary means that the face does not conform to any particular gender norms.,KJ,,,,,,,,,,,,,,,,,,,,,,,,,,,,,,,,,,,,,,,5,2.308,,,,,,,,,,,,,,,,,,,,,,,,,space,2.1805,0,6,6,44,1,,,,,,,,,,,,,,,,,,,,,,,,,,,,,,,,,,,,,,,,,,,,,,,,,,,,,,,,,,,,,,,,,,,,,,,,,,,,,
,,1510,001,2023-03-30_06h48.13.451,fluency,2022.2.5,Win32,58.99008966,,,,,,,,,,,,,,,,,,,,,,,,,,,,,,,,,,,,,,,,,,,,,,,,,,,,,,,,,,,,,4,space,3.6168,,,,,,,,,,,,,,,,,,,,,,,,,,,0,0,0,0,1,,,,,,,,,,,,,,,,,,,,,,,,,,,,,,,,,,,,,,,,,,,,,,,,,,,,,,,,,,,,,,,,,,,,,,,,,,,,,,,,,,,,,,,,,,
,,1510,001,2023-03-30_06h48.13.451,fluency,2022.2.5,Win32,58.99008966,,,,,,,,,,,,,,,,,,,,,,,,,,,,,,,,,,,,,,,,,,,,,,,,,,,,,,,,,,,,,,,,,,,,,,,,,,,,,,,,,,,,,,,,,,,,,,,0,0,0,0,1,,,,,,,,,,,,,,,,,,,,,,,,,,,,,,,,,,,,,,,,,,,,,,,,,,,,,,,,,,,,,,,,,,,,,,,,,,,,,,,,,,,,,
,,1510,001,2023-03-30_06h48.13.451,fluency,2022.2.5,Win32,58.99008966,,,,,,,,,,,,,,,,,,,,,,,,,,,,,,,,,,,,,,,,,,,,,,,,,,,,,,,,,,,,,4,,,,,,,,,,,,,,,,,,,,,,,,,,,,j,,,,,,1,0,1,0,1,0.4805,,,,,,,,,,,,,,,,,,,,,,,,,,,,,,,,,,,,,,,,,,,,,,,,,,,,,,,,,,,,,,,,,,,,,,,,,,,,,,,,,,,,
,,1510,001,2023-03-30_06h48.13.451,fluency,2022.2.5,Win32,58.99008966,,,,,,,,,,,,,,,,,,,,,,,,,,,,,,1,8,img/B08_01.jpg,GCNB,Press J if the face is NONBINARY and K if the face is GENDER-CONFORMING,Gender-conforming means that the face appears to be a typical example of its gender. Nonbinary means that the face does not conform to any particular gender norms.,KJ,,,,,,,,,,,,,,,,,,,,,,,,,,,,,,,,,,,,,,,5,2.2378,,,,,,,,,,,,,,,,,,,,,,,,,space,0.8732,0,7,7,78,1,,,,,,,,,,,,,,,,,,,,,,,,,,,,,,,,,,,,,,,,,,,,,,,,,,,,,,,,,,,,,,,,,,,,,,,,,,,,,
,,1510,001,2023-03-30_06h48.13.451,fluency,2022.2.5,Win32,58.99008966,,,,,,,,,,,,,,,,,,,,,,,,,,,,,,,,,,,,,,,,,,,,,,,,,,,,,,,,,,,,,4,,,,,,,,,,,,,,,,,,,,,,,,,,,,k,,,,,,0,0,0,0,1,1.6165,,,,,,,,,,,,,,,,,,,,,,,,,,,,,,,,,,,,,,,,,,,,,,,,,,,,,,,,,,,,,,,,,,,,,,,,,,,,,,,,,,,,
,,1510,001,2023-03-30_06h48.13.451,fluency,2022.2.5,Win32,58.99008966,,,,,,,,,,,,,,,,,,,,,,,,,,,,,,4,1,img/B01_04.jpg,GCNB,Press J if the face is NONBINARY and K if the face is GENDER-CONFORMING,Gender-conforming means that the face appears to be a typical example of its gender. Nonbinary means that the face does not conform to any particular gender norms.,KJ,,,,,,,,,,,,,,,,,,,,,,,,,,,,,,,,,,,,,,,5,0.9994,,,,,,,,,,,,,,,,,,,,,,,,,space,2.2814,0,8,8,4,1,,,,,,,,,,,,,,,,,,,,,,,,,,,,,,,,,,,,,,,,,,,,,,,,,,,,,,,,,,,,,,,,,,,,,,,,,,,,,
,,1510,001,2023-03-30_06h48.13.451,fluency,2022.2.5,Win32,58.99008966,,,,,,,,,,,,,,,,,,,,,,,,,,,,,,,,,,,,,,,,,,,,,,,,,,,,,,,,,,,,,4,,,,,,,,,,,,,,,,,,,,,,,,,,,,j,,,,,,0,0,0,0,1,1.0578,,,,,,,,,,,,,,,,,,,,,,,,,,,,,,,,,,,,,,,,,,,,,,,,,,,,,,,,,,,,,,,,,,,,,,,,,,,,,,,,,,,,
,,1510,001,2023-03-30_06h48.13.451,fluency,2022.2.5,Win32,58.99008966,,,,,,,,,,,,,,,,,,,,,,,,,,,,,,2,8,img/B08_02.jpg,GCNB,Press J if the face is NONBINARY and K if the face is GENDER-CONFORMING,Gender-conforming means that the face appears to be a typical example of its gender. Nonbinary means that the face does not conform to any particular gender norms.,KJ,,,,,,,,,,,,,,,,,,,,,,,,,,,,,,,,,,,,,,,5,1.0836,,,,,,,,,,,,,,,,,,,,,,,,,space,1.2314,0,9,9,79,1,,,,,,,,,,,,,,,,,,,,,,,,,,,,,,,,,,,,,,,,,,,,,,,,,,,,,,,,,,,,,,,,,,,,,,,,,,,,,
,,1510,001,2023-03-30_06h48.13.451,fluency,2022.2.5,Win32,58.99008966,,,,,,,,,,,,,,,,,,,,,,,,,,,,,,,,,,,,,,,,,,,,,,,,,,,,,,,,,,,,,4,,,,,,,,,,,,,,,,,,,,,,,,,,,,k,,,,,,0,0,0,0,1,1.2137,,,,,,,,,,,,,,,,,,,,,,,,,,,,,,,,,,,,,,,,,,,,,,,,,,,,,,,,,,,,,,,,,,,,,,,,,,,,,,,,,,,,
,,1510,001,2023-03-30_06h48.13.451,fluency,2022.2.5,Win32,58.99008966,,,,,,,,,,,,,,,,,,,,,,,,,,,,,,2,3,img/B03_02.jpg,GCNB,Press J if the face is NONBINARY and K if the face is GENDER-CONFORMING,Gender-conforming means that the face appears to be a typical example of its gender. Nonbinary means that the face does not conform to any particular gender norms.,KJ,,,,,,,,,,,,,,,,,,,,,,,,,,,,,,,,,,,,,,,4,0.8765,,,,,,,,,,,,,,,,,,,,,,,,,space,1.6136,0,10,10,24,1,,,,,,,,,,,,,,,,,,,,,,,,,,,,,,,,,,,,,,,,,,,,,,,,,,,,,,,,,,,,,,,,,,,,,,,,,,,,,
,,1510,001,2023-03-30_06h48.13.451,fluency,2022.2.5,Win32,58.99008966,,,,,,,,,,,,,,,,,,,,,,,,,,,,,,,,,,,,,,,,,,,,,,,,,,,,,,,,,,,,,4,,,,,,,,,,,,,,,,,,,,,,,,,,,,k,,,,,,0,0,0,0,1,1.1076,,,,,,,,,,,,,,,,,,,,,,,,,,,,,,,,,,,,,,,,,,,,,,,,,,,,,,,,,,,,,,,,,,,,,,,,,,,,,,,,,,,,
,,1510,001,2023-03-30_06h48.13.451,fluency,2022.2.5,Win32,58.99008966,,,,,,,,,,,,,,,,,,,,,,,,,,,,,,8,5,img/B05_08.jpg,GCNB,Press J if the face is NONBINARY and K if the face is GENDER-CONFORMING,Gender-conforming means that the face appears to be a typical example of its gender. Nonbinary means that the face does not conform to any particular gender norms.,KJ,,,,,,,,,,,,,,,,,,,,,,,,,,,,,,,,,,,,,,,7,1.1589,,,,,,,,,,,,,,,,,,,,,,,,,space,0.8304,0,11,11,52,1,,,,,,,,,,,,,,,,,,,,,,,,,,,,,,,,,,,,,,,,,,,,,,,,,,,,,,,,,,,,,,,,,,,,,,,,,,,,,
,,1510,001,2023-03-30_06h48.13.451,fluency,2022.2.5,Win32,58.99008966,,,,,,,,,,,,,,,,,,,,,,,,,,,,,,,,,,,,,,,,,,,,,,,,,,,,,,,,,,,,,4,,,,,,,,,,,,,,,,,,,,,,,,,,,,k,,,,,,0,0,0,0,1,1.3511,,,,,,,,,,,,,,,,,,,,,,,,,,,,,,,,,,,,,,,,,,,,,,,,,,,,,,,,,,,,,,,,,,,,,,,,,,,,,,,,,,,,
,,1510,001,2023-03-30_06h48.13.451,fluency,2022.2.5,Win32,58.99008966,,,,,,,,,,,,,,,,,,,,,,,,,,,,,,2,5,img/B05_02.jpg,GCNB,Press J if the face is NONBINARY and K if the face is GENDER-CONFORMING,Gender-conforming means that the face appears to be a typical example of its gender. Nonbinary means that the face does not conform to any particular gender norms.,KJ,,,,,,,,,,,,,,,,,,,,,,,,,,,,,,,,,,,,,,,4,1.1325,,,,,,,,,,,,,,,,,,,,,,,,,space,0.9172,0,12,12,46,1,,,,,,,,,,,,,,,,,,,,,,,,,,,,,,,,,,,,,,,,,,,,,,,,,,,,,,,,,,,,,,,,,,,,,,,,,,,,,
,,1510,001,2023-03-30_06h48.13.451,fluency,2022.2.5,Win32,58.99008966,,,,,,,,,,,,,,,,,,,,,,,,,,,,,,,,,,,,,,,,,,,,,,,,,,,,,,,,,,,,,4,,,,,,,,,,,,,,,,,,,,,,,,,,,,k,,,,,,0,0,0,0,1,1.0346,,,,,,,,,,,,,,,,,,,,,,,,,,,,,,,,,,,,,,,,,,,,,,,,,,,,,,,,,,,,,,,,,,,,,,,,,,,,,,,,,,,,
,,1510,001,2023-03-30_06h48.13.451,fluency,2022.2.5,Win32,58.99008966,,,,,,,,,,,,,,,,,,,,,,,,,,,,,,7,10,img/B10_07.jpg,GCNB,Press J if the face is NONBINARY and K if the face is GENDER-CONFORMING,Gender-conforming means that the face appears to be a typical example of its gender. Nonbinary means that the face does not conform to any particular gender norms.,KJ,,,,,,,,,,,,,,,,,,,,,,,,,,,,,,,,,,,,,,,5,1.495,,,,,,,,,,,,,,,,,,,,,,,,,space,0.6471,0,13,13,106,1,,,,,,,,,,,,,,,,,,,,,,,,,,,,,,,,,,,,,,,,,,,,,,,,,,,,,,,,,,,,,,,,,,,,,,,,,,,,,
,,1510,001,2023-03-30_06h48.13.451,fluency,2022.2.5,Win32,58.99008966,,,,,,,,,,,,,,,,,,,,,,,,,,,,,,,,,,,,,,,,,,,,,,,,,,,,,,,,,,,,,4,,,,,,,,,,,,,,,,,,,,,,,,,,,,k,,,,,,0,0,0,0,1,1.0448,,,,,,,,,,,,,,,,,,,,,,,,,,,,,,,,,,,,,,,,,,,,,,,,,,,,,,,,,,,,,,,,,,,,,,,,,,,,,,,,,,,,
,,1510,001,2023-03-30_06h48.13.451,fluency,2022.2.5,Win32,58.99008966,,,,,,,,,,,,,,,,,,,,,,,,,,,,,,9,2,img/B02_09.jpg,GCNB,Press J if the face is NONBINARY and K if the face is GENDER-CONFORMING,Gender-conforming means that the face appears to be a typical example of its gender. Nonbinary means that the face does not conform to any particular gender norms.,KJ,,,,,,,,,,,,,,,,,,,,,,,,,,,,,,,,,,,,,,,9,0.5592,,,,,,,,,,,,,,,,,,,,,,,,,space,0.8107,0,14,14,20,1,,,,,,,,,,,,,,,,,,,,,,,,,,,,,,,,,,,,,,,,,,,,,,,,,,,,,,,,,,,,,,,,,,,,,,,,,,,,,
,,1510,001,2023-03-30_06h48.13.451,fluency,2022.2.5,Win32,58.99008966,,,,,,,,,,,,,,,,,,,,,,,,,,,,,,,,,,,,,,,,,,,,,,,,,,,,,,,,,,,,,4,,,,,,,,,,,,,,,,,,,,,,,,,,,,j,,,,,,0,0,0,0,1,1.5626,,,,,,,,,,,,,,,,,,,,,,,,,,,,,,,,,,,,,,,,,,,,,,,,,,,,,,,,,,,,,,,,,,,,,,,,,,,,,,,,,,,,
,,1510,001,2023-03-30_06h48.13.451,fluency,2022.2.5,Win32,58.99008966,,,,,,,,,,,,,,,,,,,,,,,,,,,,,,8,9,img/B09_08.jpg,GCNB,Press J if the face is NONBINARY and K if the face is GENDER-CONFORMING,Gender-conforming means that the face appears to be a typical example of its gender. Nonbinary means that the face does not conform to any particular gender norms.,KJ,,,,,,,,,,,,,,,,,,,,,,,,,,,,,,,,,,,,,,,6,1.9938,,,,,,,,,,,,,,,,,,,,,,,,,space,0.8734,0,15,15,96,1,,,,,,,,,,,,,,,,,,,,,,,,,,,,,,,,,,,,,,,,,,,,,,,,,,,,,,,,,,,,,,,,,,,,,,,,,,,,,
,,1510,001,2023-03-30_06h48.13.451,fluency,2022.2.5,Win32,58.99008966,,,,,,,,,,,,,,,,,,,,,,,,,,,,,,,,,,,,,,,,,,,,,,,,,,,,,,,,,,,,,4,,,,,,,,,,,,,,,,,,,,,,,,,,,,j,,,,,,0,0,0,0,1,1.6155,,,,,,,,,,,,,,,,,,,,,,,,,,,,,,,,,,,,,,,,,,,,,,,,,,,,,,,,,,,,,,,,,,,,,,,,,,,,,,,,,,,,
,,1510,001,2023-03-30_06h48.13.451,fluency,2022.2.5,Win32,58.99008966,,,,,,,,,,,,,,,,,,,,,,,,,,,,,,6,3,img/B03_06.jpg,GCNB,Press J if the face is NONBINARY and K if the face is GENDER-CONFORMING,Gender-conforming means that the face appears to be a typical example of its gender. Nonbinary means that the face does not conform to any particular gender norms.,KJ,,,,,,,,,,,,,,,,,,,,,,,,,,,,,,,,,,,,,,,5,1.0921,,,,,,,,,,,,,,,,,,,,,,,,,space,0.6966,0,16,16,28,1,,,,,,,,,,,,,,,,,,,,,,,,,,,,,,,,,,,,,,,,,,,,,,,,,,,,,,,,,,,,,,,,,,,,,,,,,,,,,
,,1510,001,2023-03-30_06h48.13.451,fluency,2022.2.5,Win32,58.99008966,,,,,,,,,,,,,,,,,,,,,,,,,,,,,,,,,,,,,,,,,,,,,,,,,,,,,,,,,,,,,4,,,,,,,,,,,,,,,,,,,,,,,,,,,,j,,,,,,0,0,0,0,1,1.8419,,,,,,,,,,,,,,,,,,,,,,,,,,,,,,,,,,,,,,,,,,,,,,,,,,,,,,,,,,,,,,,,,,,,,,,,,,,,,,,,,,,,
,,1510,001,2023-03-30_06h48.13.451,fluency,2022.2.5,Win32,58.99008966,,,,,,,,,,,,,,,,,,,,,,,,,,,,,,8,1,img/B01_08.jpg,GCNB,Press J if the face is NONBINARY and K if the face is GENDER-CONFORMING,Gender-conforming means that the face appears to be a typical example of its gender. Nonbinary means that the face does not conform to any particular gender norms.,KJ,,,,,,,,,,,,,,,,,,,,,,,,,,,,,,,,,,,,,,,4,0.8966,,,,,,,,,,,,,,,,,,,,,,,,,space,2.1673,0,17,17,8,1,,,,,,,,,,,,,,,,,,,,,,,,,,,,,,,,,,,,,,,,,,,,,,,,,,,,,,,,,,,,,,,,,,,,,,,,,,,,,
,,1510,001,2023-03-30_06h48.13.451,fluency,2022.2.5,Win32,58.99008966,,,,,,,,,,,,,,,,,,,,,,,,,,,,,,,,,,,,,,,,,,,,,,,,,,,,,,,,,,,,,4,,,,,,,,,,,,,,,,,,,,,,,,,,,,k,,,,,,0,0,0,0,1,1.116,,,,,,,,,,,,,,,,,,,,,,,,,,,,,,,,,,,,,,,,,,,,,,,,,,,,,,,,,,,,,,,,,,,,,,,,,,,,,,,,,,,,
,,1510,001,2023-03-30_06h48.13.451,fluency,2022.2.5,Win32,58.99008966,,,,,,,,,,,,,,,,,,,,,,,,,,,,,,1,7,img/B07_01.jpg,GCNB,Press J if the face is NONBINARY and K if the face is GENDER-CONFORMING,Gender-conforming means that the face appears to be a typical example of its gender. Nonbinary means that the face does not conform to any particular gender norms.,KJ,,,,,,,,,,,,,,,,,,,,,,,,,,,,,,,,,,,,,,,3,0.3232,,,,,,,,,,,,,,,,,,,,,,,,,space,0.8379,0,18,18,67,1,,,,,,,,,,,,,,,,,,,,,,,,,,,,,,,,,,,,,,,,,,,,,,,,,,,,,,,,,,,,,,,,,,,,,,,,,,,,,
,,1510,001,2023-03-30_06h48.13.451,fluency,2022.2.5,Win32,58.99008966,,,,,,,,,,,,,,,,,,,,,,,,,,,,,,,,,,,,,,,,,,,,,,,,,,,,,,,,,,,,,4,,,,,,,,,,,,,,,,,,,,,,,,,,,,j,,,,,,0,0,0,0,1,1.3687,,,,,,,,,,,,,,,,,,,,,,,,,,,,,,,,,,,,,,,,,,,,,,,,,,,,,,,,,,,,,,,,,,,,,,,,,,,,,,,,,,,,
,,1510,001,2023-03-30_06h48.13.451,fluency,2022.2.5,Win32,58.99008966,,,,,,,,,,,,,,,,,,,,,,,,,,,,,,9,9,img/B09_09.jpg,GCNB,Press J if the face is NONBINARY and K if the face is GENDER-CONFORMING,Gender-conforming means that the face appears to be a typical example of its gender. Nonbinary means that the face does not conform to any particular gender norms.,KJ,,,,,,,,,,,,,,,,,,,,,,,,,,,,,,,,,,,,,,,6,2.6292,,,,,,,,,,,,,,,,,,,,,,,,,space,0.6548,0,19,19,97,1,,,,,,,,,,,,,,,,,,,,,,,,,,,,,,,,,,,,,,,,,,,,,,,,,,,,,,,,,,,,,,,,,,,,,,,,,,,,,
,,1510,001,2023-03-30_06h48.13.451,fluency,2022.2.5,Win32,58.99008966,,,,,,,,,,,,,,,,,,,,,,,,,,,,,,,,,,,,,,,,,,,,,,,,,,,,,,,,,,,,,4,,,,,,,,,,,,,,,,,,,,,,,,,,,,k,,,,,,0,0,0,0,1,1.0169,,,,,,,,,,,,,,,,,,,,,,,,,,,,,,,,,,,,,,,,,,,,,,,,,,,,,,,,,,,,,,,,,,,,,,,,,,,,,,,,,,,,
,,1510,001,2023-03-30_06h48.13.451,fluency,2022.2.5,Win32,58.99008966,,,,,,,,,,,,,,,,,,,,,,,,,,,,,,3,7,img/B07_03.jpg,GCNB,Press J if the face is NONBINARY and K if the face is GENDER-CONFORMING,Gender-conforming means that the face appears to be a typical example of its gender. Nonbinary means that the face does not conform to any particular gender norms.,KJ,,,,,,,,,,,,,,,,,,,,,,,,,,,,,,,,,,,,,,,3,0.1489,,,,,,,,,,,,,,,,,,,,,,,,,space,0.8872,0,20,20,69,1,,,,,,,,,,,,,,,,,,,,,,,,,,,,,,,,,,,,,,,,,,,,,,,,,,,,,,,,,,,,,,,,,,,,,,,,,,,,,
,,1510,001,2023-03-30_06h48.13.451,fluency,2022.2.5,Win32,58.99008966,,,,,,,,,,,,,,,,,,,,,,,,,,,,,,,,,,,,,,,,,,,,,,,,,,,,,,,,,,,,,4,,,,,,,,,,,,,,,,,,,,,,,,,,,,k,,,,,,0,0,0,0,1,1.7462,,,,,,,,,,,,,,,,,,,,,,,,,,,,,,,,,,,,,,,,,,,,,,,,,,,,,,,,,,,,,,,,,,,,,,,,,,,,,,,,,,,,
,,1510,001,2023-03-30_06h48.13.451,fluency,2022.2.5,Win32,58.99008966,,,,,,,,,,,,,,,,,,,,,,,,,,,,,,9,3,img/B03_09.jpg,GCNB,Press J if the face is NONBINARY and K if the face is GENDER-CONFORMING,Gender-conforming means that the face appears to be a typical example of its gender. Nonbinary means that the face does not conform to any particular gender norms.,KJ,,,,,,,,,,,,,,,,,,,,,,,,,,,,,,,,,,,,,,,9,1.3313,,,,,,,,,,,,,,,,,,,,,,,,,space,1.3762,0,21,21,31,1,,,,,,,,,,,,,,,,,,,,,,,,,,,,,,,,,,,,,,,,,,,,,,,,,,,,,,,,,,,,,,,,,,,,,,,,,,,,,
,,1510,001,2023-03-30_06h48.13.451,fluency,2022.2.5,Win32,58.99008966,,,,,,,,,,,,,,,,,,,,,,,,,,,,,,,,,,,,,,,,,,,,,,,,,,,,,,,,,,,,,4,,,,,,,,,,,,,,,,,,,,,,,,,,,,k,,,,,,0,0,0,0,1,0.9577,,,,,,,,,,,,,,,,,,,,,,,,,,,,,,,,,,,,,,,,,,,,,,,,,,,,,,,,,,,,,,,,,,,,,,,,,,,,,,,,,,,,
,,1510,001,2023-03-30_06h48.13.451,fluency,2022.2.5,Win32,58.99008966,,,,,,,,,,,,,,,,,,,,,,,,,,,,,,4,4,img/B04_04.jpg,GCNB,Press J if the face is NONBINARY and K if the face is GENDER-CONFORMING,Gender-conforming means that the face appears to be a typical example of its gender. Nonbinary means that the face does not conform to any particular gender norms.,KJ,,,,,,,,,,,,,,,,,,,,,,,,,,,,,,,,,,,,,,,6,0.4391,,,,,,,,,,,,,,,,,,,,,,,,,space,0.7584,0,22,22,37,1,,,,,,,,,,,,,,,,,,,,,,,,,,,,,,,,,,,,,,,,,,,,,,,,,,,,,,,,,,,,,,,,,,,,,,,,,,,,,
,,1510,001,2023-03-30_06h48.13.451,fluency,2022.2.5,Win32,58.99008966,,,,,,,,,,,,,,,,,,,,,,,,,,,,,,,,,,,,,,,,,,,,,,,,,,,,,,,,,,,,,4,,,,,,,,,,,,,,,,,,,,,,,,,,,,j,,,,,,0,0,0,0,1,1.4252,,,,,,,,,,,,,,,,,,,,,,,,,,,,,,,,,,,,,,,,,,,,,,,,,,,,,,,,,,,,,,,,,,,,,,,,,,,,,,,,,,,,
,,1510,001,2023-03-30_06h48.13.451,fluency,2022.2.5,Win32,58.99008966,,,,,,,,,,,,,,,,,,,,,,,,,,,,,,4,9,img/B09_04.jpg,GCNB,Press J if the face is NONBINARY and K if the face is GENDER-CONFORMING,Gender-conforming means that the face appears to be a typical example of its gender. Nonbinary means that the face does not conform to any particular gender norms.,KJ,,,,,,,,,,,,,,,,,,,,,,,,,,,,,,,,,,,,,,,4,1.3272,,,,,,,,,,,,,,,,,,,,,,,,,space,0.6801,0,23,23,92,1,,,,,,,,,,,,,,,,,,,,,,,,,,,,,,,,,,,,,,,,,,,,,,,,,,,,,,,,,,,,,,,,,,,,,,,,,,,,,
,,1510,001,2023-03-30_06h48.13.451,fluency,2022.2.5,Win32,58.99008966,,,,,,,,,,,,,,,,,,,,,,,,,,,,,,,,,,,,,,,,,,,,,,,,,,,,,,,,,,,,,4,,,,,,,,,,,,,,,,,,,,,,,,,,,,k,,,,,,0,0,0,0,1,1.6745,,,,,,,,,,,,,,,,,,,,,,,,,,,,,,,,,,,,,,,,,,,,,,,,,,,,,,,,,,,,,,,,,,,,,,,,,,,,,,,,,,,,
,,1510,001,2023-03-30_06h48.13.451,fluency,2022.2.5,Win32,58.99008966,,,,,,,,,,,,,,,,,,,,,,,,,,,,,,10,9,img/B09_10.jpg,GCNB,Press J if the face is NONBINARY and K if the face is GENDER-CONFORMING,Gender-conforming means that the face appears to be a typical example of its gender. Nonbinary means that the face does not conform to any particular gender norms.,KJ,,,,,,,,,,,,,,,,,,,,,,,,,,,,,,,,,,,,,,,6,1.8093,,,,,,,,,,,,,,,,,,,,,,,,,space,0.9979,0,24,24,98,1,,,,,,,,,,,,,,,,,,,,,,,,,,,,,,,,,,,,,,,,,,,,,,,,,,,,,,,,,,,,,,,,,,,,,,,,,,,,,
,,1510,001,2023-03-30_06h48.13.451,fluency,2022.2.5,Win32,58.99008966,,,,,,,,,,,,,,,,,,,,,,,,,,,,,,,,,,,,,,,,,,,,,,,,,,,,,,,,,,,,,4,,,,,,,,,,,,,,,,,,,,,,,,,,,,k,,,,,,0,0,0,0,1,1.0652,,,,,,,,,,,,,,,,,,,,,,,,,,,,,,,,,,,,,,,,,,,,,,,,,,,,,,,,,,,,,,,,,,,,,,,,,,,,,,,,,,,,
,,1510,001,2023-03-30_06h48.13.451,fluency,2022.2.5,Win32,58.99008966,,,,,,,,,,,,,,,,,,,,,,,,,,,,,,9,10,img/B10_09.jpg,GCNB,Press J if the face is NONBINARY and K if the face is GENDER-CONFORMING,Gender-conforming means that the face appears to be a typical example of its gender. Nonbinary means that the face does not conform to any particular gender norms.,KJ,,,,,,,,,,,,,,,,,,,,,,,,,,,,,,,,,,,,,,,6,1.9584,,,,,,,,,,,,,,,,,,,,,,,,,space,0.7537,0,25,25,108,1,,,,,,,,,,,,,,,,,,,,,,,,,,,,,,,,,,,,,,,,,,,,,,,,,,,,,,,,,,,,,,,,,,,,,,,,,,,,,
,,1510,001,2023-03-30_06h48.13.451,fluency,2022.2.5,Win32,58.99008966,,,,,,,,,,,,,,,,,,,,,,,,,,,,,,,,,,,,,,,,,,,,,,,,,,,,,,,,,,,,,4,,,,,,,,,,,,,,,,,,,,,,,,,,,,k,,,,,,0,0,0,0,1,1.3623,,,,,,,,,,,,,,,,,,,,,,,,,,,,,,,,,,,,,,,,,,,,,,,,,,,,,,,,,,,,,,,,,,,,,,,,,,,,,,,,,,,,
,,1510,001,2023-03-30_06h48.13.451,fluency,2022.2.5,Win32,58.99008966,,,,,,,,,,,,,,,,,,,,,,,,,,,,,,7,7,img/B07_07.jpg,GCNB,Press J if the face is NONBINARY and K if the face is GENDER-CONFORMING,Gender-conforming means that the face appears to be a typical example of its gender. Nonbinary means that the face does not conform to any particular gender norms.,KJ,,,,,,,,,,,,,,,,,,,,,,,,,,,,,,,,,,,,,,,7,1.5563,,,,,,,,,,,,,,,,,,,,,,,,,space,0.7175,0,26,26,73,1,,,,,,,,,,,,,,,,,,,,,,,,,,,,,,,,,,,,,,,,,,,,,,,,,,,,,,,,,,,,,,,,,,,,,,,,,,,,,
,,1510,001,2023-03-30_06h48.13.451,fluency,2022.2.5,Win32,58.99008966,,,,,,,,,,,,,,,,,,,,,,,,,,,,,,,,,,,,,,,,,,,,,,,,,,,,,,,,,,,,,4,,,,,,,,,,,,,,,,,,,,,,,,,,,,k,,,,,,0,0,0,0,1,1.7146,,,,,,,,,,,,,,,,,,,,,,,,,,,,,,,,,,,,,,,,,,,,,,,,,,,,,,,,,,,,,,,,,,,,,,,,,,,,,,,,,,,,
,,1510,001,2023-03-30_06h48.13.451,fluency,2022.2.5,Win32,58.99008966,,,,,,,,,,,,,,,,,,,,,,,,,,,,,,9,4,img/B04_09.jpg,GCNB,Press J if the face is NONBINARY and K if the face is GENDER-CONFORMING,Gender-conforming means that the face appears to be a typical example of its gender. Nonbinary means that the face does not conform to any particular gender norms.,KJ,,,,,,,,,,,,,,,,,,,,,,,,,,,,,,,,,,,,,,,5,0.1928,,,,,,,,,,,,,,,,,,,,,,,,,space,0.7038,0,27,27,42,1,,,,,,,,,,,,,,,,,,,,,,,,,,,,,,,,,,,,,,,,,,,,,,,,,,,,,,,,,,,,,,,,,,,,,,,,,,,,,
,,1510,001,2023-03-30_06h48.13.451,fluency,2022.2.5,Win32,58.99008966,,,,,,,,,,,,,,,,,,,,,,,,,,,,,,,,,,,,,,,,,,,,,,,,,,,,,,,,,,,,,4,,,,,,,,,,,,,,,,,,,,,,,,,,,,k,,,,,,0,0,0,0,1,1.0288,,,,,,,,,,,,,,,,,,,,,,,,,,,,,,,,,,,,,,,,,,,,,,,,,,,,,,,,,,,,,,,,,,,,,,,,,,,,,,,,,,,,
,,1510,001,2023-03-30_06h48.13.451,fluency,2022.2.5,Win32,58.99008966,,,,,,,,,,,,,,,,,,,,,,,,,,,,,,7,5,img/B05_07.jpg,GCNB,Press J if the face is NONBINARY and K if the face is GENDER-CONFORMING,Gender-conforming means that the face appears to be a typical example of its gender. Nonbinary means that the face does not conform to any particular gender norms.,KJ,,,,,,,,,,,,,,,,,,,,,,,,,,,,,,,,,,,,,,,8,2.5303,,,,,,,,,,,,,,,,,,,,,,,,,space,5.572,0,28,28,51,1,,,,,,,,,,,,,,,,,,,,,,,,,,,,,,,,,,,,,,,,,,,,,,,,,,,,,,,,,,,,,,,,,,,,,,,,,,,,,
,,1510,001,2023-03-30_06h48.13.451,fluency,2022.2.5,Win32,58.99008966,,,,,,,,,,,,,,,,,,,,,,,,,,,,,,,,,,,,,,,,,,,,,,,,,,,,,,,,,,,,,4,,,,,,,,,,,,,,,,,,,,,,,,,,,,j,,,,,,0,0,0,0,1,1.3429,,,,,,,,,,,,,,,,,,,,,,,,,,,,,,,,,,,,,,,,,,,,,,,,,,,,,,,,,,,,,,,,,,,,,,,,,,,,,,,,,,,,
,,1510,001,2023-03-30_06h48.13.451,fluency,2022.2.5,Win32,58.99008966,,,,,,,,,,,,,,,,,,,,,,,,,,,,,,5,1,img/B01_05.jpg,GCNB,Press J if the face is NONBINARY and K if the face is GENDER-CONFORMING,Gender-conforming means that the face appears to be a typical example of its gender. Nonbinary means that the face does not conform to any particular gender norms.,KJ,,,,,,,,,,,,,,,,,,,,,,,,,,,,,,,,,,,,,,,3,1.3505,,,,,,,,,,,,,,,,,,,,,,,,,space,0.7366,0,29,29,5,1,,,,,,,,,,,,,,,,,,,,,,,,,,,,,,,,,,,,,,,,,,,,,,,,,,,,,,,,,,,,,,,,,,,,,,,,,,,,,
,,1510,001,2023-03-30_06h48.13.451,fluency,2022.2.5,Win32,58.99008966,,,,,,,,,,,,,,,,,,,,,,,,,,,,,,,,,,,,,,,,,,,,,,,,,,,,,,,,,,,,,4,,,,,,,,,,,,,,,,,,,,,,,,,,,,k,,,,,,0,0,0,0,1,1.0272,,,,,,,,,,,,,,,,,,,,,,,,,,,,,,,,,,,,,,,,,,,,,,,,,,,,,,,,,,,,,,,,,,,,,,,,,,,,,,,,,,,,
,,1510,001,2023-03-30_06h48.13.451,fluency,2022.2.5,Win32,58.99008966,,,,,,,,,,,,,,,,,,,,,,,,,,,,,,2,7,img/B07_02.jpg,GCNB,Press J if the face is NONBINARY and K if the face is GENDER-CONFORMING,Gender-conforming means that the face appears to be a typical example of its gender. Nonbinary means that the face does not conform to any particular gender norms.,KJ,,,,,,,,,,,,,,,,,,,,,,,,,,,,,,,,,,,,,,,4,2.3956,,,,,,,,,,,,,,,,,,,,,,,,,space,1.2563,0,30,30,68,1,,,,,,,,,,,,,,,,,,,,,,,,,,,,,,,,,,,,,,,,,,,,,,,,,,,,,,,,,,,,,,,,,,,,,,,,,,,,,
,,1510,001,2023-03-30_06h48.13.451,fluency,2022.2.5,Win32,58.99008966,,,,,,,,,,,,,,,,,,,,,,,,,,,,,,,,,,,,,,,,,,,,,,,,,,,,,,,,,,,,,4,,,,,,,,,,,,,,,,,,,,,,,,,,,,k,,,,,,0,0,0,0,1,1.4116,,,,,,,,,,,,,,,,,,,,,,,,,,,,,,,,,,,,,,,,,,,,,,,,,,,,,,,,,,,,,,,,,,,,,,,,,,,,,,,,,,,,
,,1510,001,2023-03-30_06h48.13.451,fluency,2022.2.5,Win32,58.99008966,,,,,,,,,,,,,,,,,,,,,,,,,,,,,,7,8,img/B08_07.jpg,GCNB,Press J if the face is NONBINARY and K if the face is GENDER-CONFORMING,Gender-conforming means that the face appears to be a typical example of its gender. Nonbinary means that the face does not conform to any particular gender norms.,KJ,,,,,,,,,,,,,,,,,,,,,,,,,,,,,,,,,,,,,,,6,1.7727,,,,,,,,,,,,,,,,,,,,,,,,,space,0.9305,0,31,31,84,1,,,,,,,,,,,,,,,,,,,,,,,,,,,,,,,,,,,,,,,,,,,,,,,,,,,,,,,,,,,,,,,,,,,,,,,,,,,,,
,,1510,001,2023-03-30_06h48.13.451,fluency,2022.2.5,Win32,58.99008966,,,,,,,,,,,,,,,,,,,,,,,,,,,,,,,,,,,,,,,,,,,,,,,,,,,,,,,,,,,,,5,space,5.723,,,,,,,,,,,,,,,,,,,,,,,,,,,0,0,0,0,1,,,,,,,,,,,,,,,,,,,,,,,,,,,,,,,,,,,,,,,,,,,,,,,,,,,,,,,,,,,,,,,,,,,,,,,,,,,,,,,,,,,,,,,,,,
,,1510,001,2023-03-30_06h48.13.451,fluency,2022.2.5,Win32,58.99008966,,,,,,,,,,,,,,,,,,,,,,,,,,,,,,,,,,,,,,,,,,,,,,,,,,,,,,,,,,,,,,,,,,,,,,,,,,,,,,,,,,,,,,,,,,,,,,,0,0,0,0,1,,,,,,,,,,,,,,,,,,,,,,,,,,,,,,,,,,,,,,,,,,,,,,,,,,,,,,,,,,,,,,,,,,,,,,,,,,,,,,,,,,,,,
,,1510,001,2023-03-30_06h48.13.451,fluency,2022.2.5,Win32,58.99008966,,,,,,,,,,,,,,,,,,,,,,,,,,,,,,,,,,,,,,,,,,,,,,,,,,,,,,,,,,,,,5,,,,,,,,,,,,,,,,,,,,,,,,,,,,k,,,,,,1,0,1,0,1,0.3213,,,,,,,,,,,,,,,,,,,,,,,,,,,,,,,,,,,,,,,,,,,,,,,,,,,,,,,,,,,,,,,,,,,,,,,,,,,,,,,,,,,,
,,1510,001,2023-03-30_06h48.13.451,fluency,2022.2.5,Win32,58.99008966,,,,,,,,,,,,,,,,,,,,,,,,,,,,,,8,6,img/B06_08.jpg,GCNB,Press J if the face is NONBINARY and K if the face is GENDER-CONFORMING,Gender-conforming means that the face appears to be a typical example of its gender. Nonbinary means that the face does not conform to any particular gender norms.,KJ,,,,,,,,,,,,,,,,,,,,,,,,,,,,,,,,,,,,,,,7,0.5913,,,,,,,,,,,,,,,,,,,,,,,,,space,1.5501,0,32,32,63,1,,,,,,,,,,,,,,,,,,,,,,,,,,,,,,,,,,,,,,,,,,,,,,,,,,,,,,,,,,,,,,,,,,,,,,,,,,,,,
,,1510,001,2023-03-30_06h48.13.451,fluency,2022.2.5,Win32,58.99008966,,,,,,,,,,,,,,,,,,,,,,,,,,,,,,,,,,,,,,,,,,,,,,,,,,,,,,,,,,,,,5,,,,,,,,,,,,,,,,,,,,,,,,,,,,k,,,,,,0,0,0,0,1,0.7083,,,,,,,,,,,,,,,,,,,,,,,,,,,,,,,,,,,,,,,,,,,,,,,,,,,,,,,,,,,,,,,,,,,,,,,,,,,,,,,,,,,,
,,1510,001,2023-03-30_06h48.13.451,fluency,2022.2.5,Win32,58.99008966,,,,,,,,,,,,,,,,,,,,,,,,,,,,,,6,5,img/B05_06.jpg,GCNB,Press J if the face is NONBINARY and K if the face is GENDER-CONFORMING,Gender-conforming means that the face appears to be a typical example of its gender. Nonbinary means that the face does not conform to any particular gender norms.,KJ,,,,,,,,,,,,,,,,,,,,,,,,,,,,,,,,,,,,,,,7,0.5331,,,,,,,,,,,,,,,,,,,,,,,,,space,0.5348,0,33,33,50,1,,,,,,,,,,,,,,,,,,,,,,,,,,,,,,,,,,,,,,,,,,,,,,,,,,,,,,,,,,,,,,,,,,,,,,,,,,,,,
,,1510,001,2023-03-30_06h48.13.451,fluency,2022.2.5,Win32,58.99008966,,,,,,,,,,,,,,,,,,,,,,,,,,,,,,,,,,,,,,,,,,,,,,,,,,,,,,,,,,,,,5,,,,,,,,,,,,,,,,,,,,,,,,,,,,k,,,,,,0,0,0,0,1,0.8568,,,,,,,,,,,,,,,,,,,,,,,,,,,,,,,,,,,,,,,,,,,,,,,,,,,,,,,,,,,,,,,,,,,,,,,,,,,,,,,,,,,,
,,1510,001,2023-03-30_06h48.13.451,fluency,2022.2.5,Win32,58.99008966,,,,,,,,,,,,,,,,,,,,,,,,,,,,,,4,7,img/B07_04.jpg,GCNB,Press J if the face is NONBINARY and K if the face is GENDER-CONFORMING,Gender-conforming means that the face appears to be a typical example of its gender. Nonbinary means that the face does not conform to any particular gender norms.,KJ,,,,,,,,,,,,,,,,,,,,,,,,,,,,,,,,,,,,,,,4,0.7098,,,,,,,,,,,,,,,,,,,,,,,,,space,1.7046,0,34,34,70,1,,,,,,,,,,,,,,,,,,,,,,,,,,,,,,,,,,,,,,,,,,,,,,,,,,,,,,,,,,,,,,,,,,,,,,,,,,,,,
,,1510,001,2023-03-30_06h48.13.451,fluency,2022.2.5,Win32,58.99008966,,,,,,,,,,,,,,,,,,,,,,,,,,,,,,,,,,,,,,,,,,,,,,,,,,,,,,,,,,,,,5,,,,,,,,,,,,,,,,,,,,,,,,,,,,j,,,,,,0,0,0,0,1,1.1926,,,,,,,,,,,,,,,,,,,,,,,,,,,,,,,,,,,,,,,,,,,,,,,,,,,,,,,,,,,,,,,,,,,,,,,,,,,,,,,,,,,,
,,1510,001,2023-03-30_06h48.13.451,fluency,2022.2.5,Win32,58.99008966,,,,,,,,,,,,,,,,,,,,,,,,,,,,,,6,1,img/B01_06.jpg,GCNB,Press J if the face is NONBINARY and K if the face is GENDER-CONFORMING,Gender-conforming means that the face appears to be a typical example of its gender. Nonbinary means that the face does not conform to any particular gender norms.,KJ,,,,,,,,,,,,,,,,,,,,,,,,,,,,,,,,,,,,,,,4,0.5506,,,,,,,,,,,,,,,,,,,,,,,,,space,0.745,0,35,35,6,1,,,,,,,,,,,,,,,,,,,,,,,,,,,,,,,,,,,,,,,,,,,,,,,,,,,,,,,,,,,,,,,,,,,,,,,,,,,,,
,,1510,001,2023-03-30_06h48.13.451,fluency,2022.2.5,Win32,58.99008966,,,,,,,,,,,,,,,,,,,,,,,,,,,,,,,,,,,,,,,,,,,,,,,,,,,,,,,,,,,,,5,,,,,,,,,,,,,,,,,,,,,,,,,,,,k,,,,,,0,0,0,0,1,0.9152,,,,,,,,,,,,,,,,,,,,,,,,,,,,,,,,,,,,,,,,,,,,,,,,,,,,,,,,,,,,,,,,,,,,,,,,,,,,,,,,,,,,
,,1510,001,2023-03-30_06h48.13.451,fluency,2022.2.5,Win32,58.99008966,,,,,,,,,,,,,,,,,,,,,,,,,,,,,,3,9,img/B09_03.jpg,GCNB,Press J if the face is NONBINARY and K if the face is GENDER-CONFORMING,Gender-conforming means that the face appears to be a typical example of its gender. Nonbinary means that the face does not conform to any particular gender norms.,KJ,,,,,,,,,,,,,,,,,,,,,,,,,,,,,,,,,,,,,,,6,1.4396,,,,,,,,,,,,,,,,,,,,,,,,,space,0.7079,0,36,36,91,1,,,,,,,,,,,,,,,,,,,,,,,,,,,,,,,,,,,,,,,,,,,,,,,,,,,,,,,,,,,,,,,,,,,,,,,,,,,,,
,,1510,001,2023-03-30_06h48.13.451,fluency,2022.2.5,Win32,58.99008966,,,,,,,,,,,,,,,,,,,,,,,,,,,,,,,,,,,,,,,,,,,,,,,,,,,,,,,,,,,,,5,,,,,,,,,,,,,,,,,,,,,,,,,,,,k,,,,,,0,0,0,0,1,1.2461,,,,,,,,,,,,,,,,,,,,,,,,,,,,,,,,,,,,,,,,,,,,,,,,,,,,,,,,,,,,,,,,,,,,,,,,,,,,,,,,,,,,
,,1510,001,2023-03-30_06h48.13.451,fluency,2022.2.5,Win32,58.99008966,,,,,,,,,,,,,,,,,,,,,,,,,,,,,,5,6,img/B06_05.jpg,GCNB,Press J if the face is NONBINARY and K if the face is GENDER-CONFORMING,Gender-conforming means that the face appears to be a typical example of its gender. Nonbinary means that the face does not conform to any particular gender norms.,KJ,,,,,,,,,,,,,,,,,,,,,,,,,,,,,,,,,,,,,,,6,2.0605,,,,,,,,,,,,,,,,,,,,,,,,,space,0.4619,0,37,37,60,1,,,,,,,,,,,,,,,,,,,,,,,,,,,,,,,,,,,,,,,,,,,,,,,,,,,,,,,,,,,,,,,,,,,,,,,,,,,,,
,,1510,001,2023-03-30_06h48.13.451,fluency,2022.2.5,Win32,58.99008966,,,,,,,,,,,,,,,,,,,,,,,,,,,,,,,,,,,,,,,,,,,,,,,,,,,,,,,,,,,,,5,,,,,,,,,,,,,,,,,,,,,,,,,,,,k,,,,,,0,0,0,0,1,0.8973,,,,,,,,,,,,,,,,,,,,,,,,,,,,,,,,,,,,,,,,,,,,,,,,,,,,,,,,,,,,,,,,,,,,,,,,,,,,,,,,,,,,
,,1510,001,2023-03-30_06h48.13.451,fluency,2022.2.5,Win32,58.99008966,,,,,,,,,,,,,,,,,,,,,,,,,,,,,,1,10,img/B10_01.jpg,GCNB,Press J if the face is NONBINARY and K if the face is GENDER-CONFORMING,Gender-conforming means that the face appears to be a typical example of its gender. Nonbinary means that the face does not conform to any particular gender norms.,KJ,,,,,,,,,,,,,,,,,,,,,,,,,,,,,,,,,,,,,,,6,0.8488,,,,,,,,,,,,,,,,,,,,,,,,,space,1.1308,0,38,38,100,1,,,,,,,,,,,,,,,,,,,,,,,,,,,,,,,,,,,,,,,,,,,,,,,,,,,,,,,,,,,,,,,,,,,,,,,,,,,,,
,,1510,001,2023-03-30_06h48.13.451,fluency,2022.2.5,Win32,58.99008966,,,,,,,,,,,,,,,,,,,,,,,,,,,,,,,,,,,,,,,,,,,,,,,,,,,,,,,,,,,,,5,,,,,,,,,,,,,,,,,,,,,,,,,,,,j,,,,,,0,0,0,0,1,1.5182,,,,,,,,,,,,,,,,,,,,,,,,,,,,,,,,,,,,,,,,,,,,,,,,,,,,,,,,,,,,,,,,,,,,,,,,,,,,,,,,,,,,
,,1510,001,2023-03-30_06h48.13.451,fluency,2022.2.5,Win32,58.99008966,,,,,,,,,,,,,,,,,,,,,,,,,,,,,,5,8,img/B08_05.jpg,GCNB,Press J if the face is NONBINARY and K if the face is GENDER-CONFORMING,Gender-conforming means that the face appears to be a typical example of its gender. Nonbinary means that the face does not conform to any particular gender norms.,KJ,,,,,,,,,,,,,,,,,,,,,,,,,,,,,,,,,,,,,,,4,1.21,,,,,,,,,,,,,,,,,,,,,,,,,space,0.6359,0,39,39,82,1,,,,,,,,,,,,,,,,,,,,,,,,,,,,,,,,,,,,,,,,,,,,,,,,,,,,,,,,,,,,,,,,,,,,,,,,,,,,,
,,1510,001,2023-03-30_06h48.13.451,fluency,2022.2.5,Win32,58.99008966,,,,,,,,,,,,,,,,,,,,,,,,,,,,,,,,,,,,,,,,,,,,,,,,,,,,,,,,,,,,,5,,,,,,,,,,,,,,,,,,,,,,,,,,,,j,,,,,,0,0,0,0,1,1.9311,,,,,,,,,,,,,,,,,,,,,,,,,,,,,,,,,,,,,,,,,,,,,,,,,,,,,,,,,,,,,,,,,,,,,,,,,,,,,,,,,,,,
,,1510,001,2023-03-30_06h48.13.451,fluency,2022.2.5,Win32,58.99008966,,,,,,,,,,,,,,,,,,,,,,,,,,,,,,5,9,img/B09_05.jpg,GCNB,Press J if the face is NONBINARY and K if the face is GENDER-CONFORMING,Gender-conforming means that the face appears to be a typical example of its gender. Nonbinary means that the face does not conform to any particular gender norms.,KJ,,,,,,,,,,,,,,,,,,,,,,,,,,,,,,,,,,,,,,,6,0.9263,,,,,,,,,,,,,,,,,,,,,,,,,space,0.5234,0,40,40,93,1,,,,,,,,,,,,,,,,,,,,,,,,,,,,,,,,,,,,,,,,,,,,,,,,,,,,,,,,,,,,,,,,,,,,,,,,,,,,,
,,1510,001,2023-03-30_06h48.13.451,fluency,2022.2.5,Win32,58.99008966,,,,,,,,,,,,,,,,,,,,,,,,,,,,,,,,,,,,,,,,,,,,,,,,,,,,,,,,,,,,,5,,,,,,,,,,,,,,,,,,,,,,,,,,,,k,,,,,,0,0,0,0,1,0.9617,,,,,,,,,,,,,,,,,,,,,,,,,,,,,,,,,,,,,,,,,,,,,,,,,,,,,,,,,,,,,,,,,,,,,,,,,,,,,,,,,,,,
,,1510,001,2023-03-30_06h48.13.451,fluency,2022.2.5,Win32,58.99008966,,,,,,,,,,,,,,,,,,,,,,,,,,,,,,2,6,img/B06_02.jpg,GCNB,Press J if the face is NONBINARY and K if the face is GENDER-CONFORMING,Gender-conforming means that the face appears to be a typical example of its gender. Nonbinary means that the face does not conform to any particular gender norms.,KJ,,,,,,,,,,,,,,,,,,,,,,,,,,,,,,,,,,,,,,,6,1.1309,,,,,,,,,,,,,,,,,,,,,,,,,space,0.4179,0,41,41,57,1,,,,,,,,,,,,,,,,,,,,,,,,,,,,,,,,,,,,,,,,,,,,,,,,,,,,,,,,,,,,,,,,,,,,,,,,,,,,,
,,1510,001,2023-03-30_06h48.13.451,fluency,2022.2.5,Win32,58.99008966,,,,,,,,,,,,,,,,,,,,,,,,,,,,,,,,,,,,,,,,,,,,,,,,,,,,,,,,,,,,,5,,,,,,,,,,,,,,,,,,,,,,,,,,,,k,,,,,,0,0,0,0,1,0.8948,,,,,,,,,,,,,,,,,,,,,,,,,,,,,,,,,,,,,,,,,,,,,,,,,,,,,,,,,,,,,,,,,,,,,,,,,,,,,,,,,,,,
,,1510,001,2023-03-30_06h48.13.451,fluency,2022.2.5,Win32,58.99008966,,,,,,,,,,,,,,,,,,,,,,,,,,,,,,0,1,img/B01_00.jpg,GCNB,Press J if the face is NONBINARY and K if the face is GENDER-CONFORMING,Gender-conforming means that the face appears to be a typical example of its gender. Nonbinary means that the face does not conform to any particular gender norms.,KJ,,,,,,,,,,,,,,,,,,,,,,,,,,,,,,,,,,,,,,,3,0.5095,,,,,,,,,,,,,,,,,,,,,,,,,space,0.447,0,42,42,0,1,,,,,,,,,,,,,,,,,,,,,,,,,,,,,,,,,,,,,,,,,,,,,,,,,,,,,,,,,,,,,,,,,,,,,,,,,,,,,
,,1510,001,2023-03-30_06h48.13.451,fluency,2022.2.5,Win32,58.99008966,,,,,,,,,,,,,,,,,,,,,,,,,,,,,,,,,,,,,,,,,,,,,,,,,,,,,,,,,,,,,5,,,,,,,,,,,,,,,,,,,,,,,,,,,,k,,,,,,0,0,0,0,1,1.3749,,,,,,,,,,,,,,,,,,,,,,,,,,,,,,,,,,,,,,,,,,,,,,,,,,,,,,,,,,,,,,,,,,,,,,,,,,,,,,,,,,,,
,,1510,001,2023-03-30_06h48.13.451,fluency,2022.2.5,Win32,58.99008966,,,,,,,,,,,,,,,,,,,,,,,,,,,,,,5,10,img/B10_05.jpg,GCNB,Press J if the face is NONBINARY and K if the face is GENDER-CONFORMING,Gender-conforming means that the face appears to be a typical example of its gender. Nonbinary means that the face does not conform to any particular gender norms.,KJ,,,,,,,,,,,,,,,,,,,,,,,,,,,,,,,,,,,,,,,5,1.0385,,,,,,,,,,,,,,,,,,,,,,,,,space,0.4812,0,43,43,104,1,,,,,,,,,,,,,,,,,,,,,,,,,,,,,,,,,,,,,,,,,,,,,,,,,,,,,,,,,,,,,,,,,,,,,,,,,,,,,
,,1510,001,2023-03-30_06h48.13.451,fluency,2022.2.5,Win32,58.99008966,,,,,,,,,,,,,,,,,,,,,,,,,,,,,,,,,,,,,,,,,,,,,,,,,,,,,,,,,,,,,5,,,,,,,,,,,,,,,,,,,,,,,,,,,,k,,,,,,0,0,0,0,1,0.9419,,,,,,,,,,,,,,,,,,,,,,,,,,,,,,,,,,,,,,,,,,,,,,,,,,,,,,,,,,,,,,,,,,,,,,,,,,,,,,,,,,,,
,,1510,001,2023-03-30_06h48.13.451,fluency,2022.2.5,Win32,58.99008966,,,,,,,,,,,,,,,,,,,,,,,,,,,,,,10,8,img/B08_10.jpg,GCNB,Press J if the face is NONBINARY and K if the face is GENDER-CONFORMING,Gender-conforming means that the face appears to be a typical example of its gender. Nonbinary means that the face does not conform to any particular gender norms.,KJ,,,,,,,,,,,,,,,,,,,,,,,,,,,,,,,,,,,,,,,5,0.576,,,,,,,,,,,,,,,,,,,,,,,,,space,0.464,0,44,44,87,1,,,,,,,,,,,,,,,,,,,,,,,,,,,,,,,,,,,,,,,,,,,,,,,,,,,,,,,,,,,,,,,,,,,,,,,,,,,,,
,,1510,001,2023-03-30_06h48.13.451,fluency,2022.2.5,Win32,58.99008966,,,,,,,,,,,,,,,,,,,,,,,,,,,,,,,,,,,,,,,,,,,,,,,,,,,,,,,,,,,,,5,,,,,,,,,,,,,,,,,,,,,,,,,,,,k,,,,,,0,0,0,0,1,0.8606,,,,,,,,,,,,,,,,,,,,,,,,,,,,,,,,,,,,,,,,,,,,,,,,,,,,,,,,,,,,,,,,,,,,,,,,,,,,,,,,,,,,
,,1510,001,2023-03-30_06h48.13.451,fluency,2022.2.5,Win32,58.99008966,,,,,,,,,,,,,,,,,,,,,,,,,,,,,,1,4,img/B04_01.jpg,GCNB,Press J if the face is NONBINARY and K if the face is GENDER-CONFORMING,Gender-conforming means that the face appears to be a typical example of its gender. Nonbinary means that the face does not conform to any particular gender norms.,KJ,,,,,,,,,,,,,,,,,,,,,,,,,,,,,,,,,,,,,,,6,0.5323,,,,,,,,,,,,,,,,,,,,,,,,,space,0.336,0,45,45,34,1,,,,,,,,,,,,,,,,,,,,,,,,,,,,,,,,,,,,,,,,,,,,,,,,,,,,,,,,,,,,,,,,,,,,,,,,,,,,,
,,1510,001,2023-03-30_06h48.13.451,fluency,2022.2.5,Win32,58.99008966,,,,,,,,,,,,,,,,,,,,,,,,,,,,,,,,,,,,,,,,,,,,,,,,,,,,,,,,,,,,,5,,,,,,,,,,,,,,,,,,,,,,,,,,,,k,,,,,,0,0,0,0,1,0.6626,,,,,,,,,,,,,,,,,,,,,,,,,,,,,,,,,,,,,,,,,,,,,,,,,,,,,,,,,,,,,,,,,,,,,,,,,,,,,,,,,,,,
,,1510,001,2023-03-30_06h48.13.451,fluency,2022.2.5,Win32,58.99008966,,,,,,,,,,,,,,,,,,,,,,,,,,,,,,8,8,img/B08_08.jpg,GCNB,Press J if the face is NONBINARY and K if the face is GENDER-CONFORMING,Gender-conforming means that the face appears to be a typical example of its gender. Nonbinary means that the face does not conform to any particular gender norms.,KJ,,,,,,,,,,,,,,,,,,,,,,,,,,,,,,,,,,,,,,,6,0.4637,,,,,,,,,,,,,,,,,,,,,,,,,space,2.2336,0,46,46,85,1,,,,,,,,,,,,,,,,,,,,,,,,,,,,,,,,,,,,,,,,,,,,,,,,,,,,,,,,,,,,,,,,,,,,,,,,,,,,,
,,1510,001,2023-03-30_06h48.13.451,fluency,2022.2.5,Win32,58.99008966,,,,,,,,,,,,,,,,,,,,,,,,,,,,,,,,,,,,,,,,,,,,,,,,,,,,,,,,,,,,,5,,,,,,,,,,,,,,,,,,,,,,,,,,,,k,,,,,,0,0,0,0,1,1.6079,,,,,,,,,,,,,,,,,,,,,,,,,,,,,,,,,,,,,,,,,,,,,,,,,,,,,,,,,,,,,,,,,,,,,,,,,,,,,,,,,,,,
,,1510,001,2023-03-30_06h48.13.451,fluency,2022.2.5,Win32,58.99008966,,,,,,,,,,,,,,,,,,,,,,,,,,,,,,6,2,img/B02_06.jpg,GCNB,Press J if the face is NONBINARY and K if the face is GENDER-CONFORMING,Gender-conforming means that the face appears to be a typical example of its gender. Nonbinary means that the face does not conform to any particular gender norms.,KJ,,,,,,,,,,,,,,,,,,,,,,,,,,,,,,,,,,,,,,,8,0.8226,,,,,,,,,,,,,,,,,,,,,,,,,space,1.2111,0,47,47,17,1,,,,,,,,,,,,,,,,,,,,,,,,,,,,,,,,,,,,,,,,,,,,,,,,,,,,,,,,,,,,,,,,,,,,,,,,,,,,,
,,1510,001,2023-03-30_06h48.13.451,fluency,2022.2.5,Win32,58.99008966,,,,,,,,,,,,,,,,,,,,,,,,,,,,,,,,,,,,,,,,,,,,,,,,,,,,,,,,,,,,,5,,,,,,,,,,,,,,,,,,,,,,,,,,,,k,,,,,,0,0,0,0,1,0.6775,,,,,,,,,,,,,,,,,,,,,,,,,,,,,,,,,,,,,,,,,,,,,,,,,,,,,,,,,,,,,,,,,,,,,,,,,,,,,,,,,,,,
,,1510,001,2023-03-30_06h48.13.451,fluency,2022.2.5,Win32,58.99008966,,,,,,,,,,,,,,,,,,,,,,,,,,,,,,8,3,img/B03_08.jpg,GCNB,Press J if the face is NONBINARY and K if the face is GENDER-CONFORMING,Gender-conforming means that the face appears to be a typical example of its gender. Nonbinary means that the face does not conform to any particular gender norms.,KJ,,,,,,,,,,,,,,,,,,,,,,,,,,,,,,,,,,,,,,,9,0.4887,,,,,,,,,,,,,,,,,,,,,,,,,space,0.6676,0,48,48,30,1,,,,,,,,,,,,,,,,,,,,,,,,,,,,,,,,,,,,,,,,,,,,,,,,,,,,,,,,,,,,,,,,,,,,,,,,,,,,,
,,1510,001,2023-03-30_06h48.13.451,fluency,2022.2.5,Win32,58.99008966,,,,,,,,,,,,,,,,,,,,,,,,,,,,,,,,,,,,,,,,,,,,,,,,,,,,,,,,,,,,,5,,,,,,,,,,,,,,,,,,,,,,,,,,,,k,,,,,,0,0,0,0,1,1.3578,,,,,,,,,,,,,,,,,,,,,,,,,,,,,,,,,,,,,,,,,,,,,,,,,,,,,,,,,,,,,,,,,,,,,,,,,,,,,,,,,,,,
,,1510,001,2023-03-30_06h48.13.451,fluency,2022.2.5,Win32,58.99008966,,,,,,,,,,,,,,,,,,,,,,,,,,,,,,8,10,img/B10_08.jpg,GCNB,Press J if the face is NONBINARY and K if the face is GENDER-CONFORMING,Gender-conforming means that the face appears to be a typical example of its gender. Nonbinary means that the face does not conform to any particular gender norms.,KJ,,,,,,,,,,,,,,,,,,,,,,,,,,,,,,,,,,,,,,,7,0.7615,,,,,,,,,,,,,,,,,,,,,,,,,space,0.7016,0,49,49,107,1,,,,,,,,,,,,,,,,,,,,,,,,,,,,,,,,,,,,,,,,,,,,,,,,,,,,,,,,,,,,,,,,,,,,,,,,,,,,,
,,1510,001,2023-03-30_06h48.13.451,fluency,2022.2.5,Win32,58.99008966,,,,,,,,,,,,,,,,,,,,,,,,,,,,,,,,,,,,,,,,,,,,,,,,,,,,,,,,,,,,,5,,,,,,,,,,,,,,,,,,,,,,,,,,,,k,,,,,,0,0,0,0,1,0.8284,,,,,,,,,,,,,,,,,,,,,,,,,,,,,,,,,,,,,,,,,,,,,,,,,,,,,,,,,,,,,,,,,,,,,,,,,,,,,,,,,,,,
,,1510,001,2023-03-30_06h48.13.451,fluency,2022.2.5,Win32,58.99008966,,,,,,,,,,,,,,,,,,,,,,,,,,,,,,9,7,img/B07_09.jpg,GCNB,Press J if the face is NONBINARY and K if the face is GENDER-CONFORMING,Gender-conforming means that the face appears to be a typical example of its gender. Nonbinary means that the face does not conform to any particular gender norms.,KJ,,,,,,,,,,,,,,,,,,,,,,,,,,,,,,,,,,,,,,,9,0.472,,,,,,,,,,,,,,,,,,,,,,,,,space,0.8542,0,50,50,75,1,,,,,,,,,,,,,,,,,,,,,,,,,,,,,,,,,,,,,,,,,,,,,,,,,,,,,,,,,,,,,,,,,,,,,,,,,,,,,
,,1510,001,2023-03-30_06h48.13.451,fluency,2022.2.5,Win32,58.99008966,,,,,,,,,,,,,,,,,,,,,,,,,,,,,,,,,,,,,,,,,,,,,,,,,,,,,,,,,,,,,5,,,,,,,,,,,,,,,,,,,,,,,,,,,,k,,,,,,0,0,0,0,1,0.7844,,,,,,,,,,,,,,,,,,,,,,,,,,,,,,,,,,,,,,,,,,,,,,,,,,,,,,,,,,,,,,,,,,,,,,,,,,,,,,,,,,,,
,,1510,001,2023-03-30_06h48.13.451,fluency,2022.2.5,Win32,58.99008966,,,,,,,,,,,,,,,,,,,,,,,,,,,,,,8,7,img/B07_08.jpg,GCNB,Press J if the face is NONBINARY and K if the face is GENDER-CONFORMING,Gender-conforming means that the face appears to be a typical example of its gender. Nonbinary means that the face does not conform to any particular gender norms.,KJ,,,,,,,,,,,,,,,,,,,,,,,,,,,,,,,,,,,,,,,9,0.4567,,,,,,,,,,,,,,,,,,,,,,,,,space,0.6922,0,51,51,74,1,,,,,,,,,,,,,,,,,,,,,,,,,,,,,,,,,,,,,,,,,,,,,,,,,,,,,,,,,,,,,,,,,,,,,,,,,,,,,
,,1510,001,2023-03-30_06h48.13.451,fluency,2022.2.5,Win32,58.99008966,,,,,,,,,,,,,,,,,,,,,,,,,,,,,,,,,,,,,,,,,,,,,,,,,,,,,,,,,,,,,5,,,,,,,,,,,,,,,,,,,,,,,,,,,,k,,,,,,0,0,0,0,1,1.434,,,,,,,,,,,,,,,,,,,,,,,,,,,,,,,,,,,,,,,,,,,,,,,,,,,,,,,,,,,,,,,,,,,,,,,,,,,,,,,,,,,,
,,1510,001,2023-03-30_06h48.13.451,fluency,2022.2.5,Win32,58.99008966,,,,,,,,,,,,,,,,,,,,,,,,,,,,,,10,4,img/B04_10.jpg,GCNB,Press J if the face is NONBINARY and K if the face is GENDER-CONFORMING,Gender-conforming means that the face appears to be a typical example of its gender. Nonbinary means that the face does not conform to any particular gender norms.,KJ,,,,,,,,,,,,,,,,,,,,,,,,,,,,,,,,,,,,,,,5,1.0391,,,,,,,,,,,,,,,,,,,,,,,,,space,0.6702,0,52,52,43,1,,,,,,,,,,,,,,,,,,,,,,,,,,,,,,,,,,,,,,,,,,,,,,,,,,,,,,,,,,,,,,,,,,,,,,,,,,,,,
,,1510,001,2023-03-30_06h48.13.451,fluency,2022.2.5,Win32,58.99008966,,,,,,,,,,,,,,,,,,,,,,,,,,,,,,,,,,,,,,,,,,,,,,,,,,,,,,,,,,,,,5,,,,,,,,,,,,,,,,,,,,,,,,,,,,k,,,,,,0,0,0,0,1,1.0322,,,,,,,,,,,,,,,,,,,,,,,,,,,,,,,,,,,,,,,,,,,,,,,,,,,,,,,,,,,,,,,,,,,,,,,,,,,,,,,,,,,,
,,1510,001,2023-03-30_06h48.13.451,fluency,2022.2.5,Win32,58.99008966,,,,,,,,,,,,,,,,,,,,,,,,,,,,,,3,10,img/B10_03.jpg,GCNB,Press J if the face is NONBINARY and K if the face is GENDER-CONFORMING,Gender-conforming means that the face appears to be a typical example of its gender. Nonbinary means that the face does not conform to any particular gender norms.,KJ,,,,,,,,,,,,,,,,,,,,,,,,,,,,,,,,,,,,,,,6,0.8485,,,,,,,,,,,,,,,,,,,,,,,,,space,0.6681,0,53,53,102,1,,,,,,,,,,,,,,,,,,,,,,,,,,,,,,,,,,,,,,,,,,,,,,,,,,,,,,,,,,,,,,,,,,,,,,,,,,,,,
,,1510,001,2023-03-30_06h48.13.451,fluency,2022.2.5,Win32,58.99008966,,,,,,,,,,,,,,,,,,,,,,,,,,,,,,,,,,,,,,,,,,,,,,,,,,,,,,,,,,,,,5,,,,,,,,,,,,,,,,,,,,,,,,,,,,j,,,,,,0,0,0,0,1,1.734,,,,,,,,,,,,,,,,,,,,,,,,,,,,,,,,,,,,,,,,,,,,,,,,,,,,,,,,,,,,,,,,,,,,,,,,,,,,,,,,,,,,
,,1510,001,2023-03-30_06h48.13.451,fluency,2022.2.5,Win32,58.99008966,,,,,,,,,,,,,,,,,,,,,,,,,,,,,,4,3,img/B03_04.jpg,GCNB,Press J if the face is NONBINARY and K if the face is GENDER-CONFORMING,Gender-conforming means that the face appears to be a typical example of its gender. Nonbinary means that the face does not conform to any particular gender norms.,KJ,,,,,,,,,,,,,,,,,,,,,,,,,,,,,,,,,,,,,,,5,1.2274,,,,,,,,,,,,,,,,,,,,,,,,,space,0.6816,0,54,54,26,1,,,,,,,,,,,,,,,,,,,,,,,,,,,,,,,,,,,,,,,,,,,,,,,,,,,,,,,,,,,,,,,,,,,,,,,,,,,,,
,,1510,001,2023-03-30_06h48.13.451,fluency,2022.2.5,Win32,58.99008966,,,,,,,,,,,,,,,,,,,,,,,,,,,,,,,,,,,,,,,,,,,,,,,,,,,,,,,,,,,,,6,space,1.2837,,,,,,,,,,,,,,,,,,,,,,,,,,,0,0,0,0,1,,,,,,,,,,,,,,,,,,,,,,,,,,,,,,,,,,,,,,,,,,,,,,,,,,,,,,,,,,,,,,,,,,,,,,,,,,,,,,,,,,,,,,,,,,
,,1510,001,2023-03-30_06h48.13.451,fluency,2022.2.5,Win32,58.99008966,,,,,,,,,,,,,,,,,,,,,,,,,,,,,,,,,,,,,,,,,,,,,,,,,,,,,,,,,,,,,,,,,,,,,,,,,,,,,,,,,,,,,,,,,,,,,,,0,0,0,0,1,,,,,,,,,,,,,,,,,,,,,,,,,,,,,,,,,,,,,,,,,,,,,,,,,,,,,,,,,,,,,,,,,,,,,,,,,,,,,,,,,,,,,
,,1510,001,2023-03-30_06h48.13.451,fluency,2022.2.5,Win32,58.99008966,,,,,,,,,,,,,,,,,,,,,,,,,,,,,,,,,,,,,,,,,,,,,,,,,,,,,,,,,,,,,6,,,,,,,,,,,,,,,,,,,,,,,,,,,,j,,,,,,1,0,1,0,1,0.5306,,,,,,,,,,,,,,,,,,,,,,,,,,,,,,,,,,,,,,,,,,,,,,,,,,,,,,,,,,,,,,,,,,,,,,,,,,,,,,,,,,,,
,,1510,001,2023-03-30_06h48.13.451,fluency,2022.2.5,Win32,58.99008966,,,,,,,,,,,,,,,,,,,,,,,,,,,,,,5,7,img/B07_05.jpg,GCNB,Press J if the face is NONBINARY and K if the face is GENDER-CONFORMING,Gender-conforming means that the face appears to be a typical example of its gender. Nonbinary means that the face does not conform to any particular gender norms.,KJ,,,,,,,,,,,,,,,,,,,,,,,,,,,,,,,,,,,,,,,4,0.3952,,,,,,,,,,,,,,,,,,,,,,,,,space,0.6469,0,55,55,71,1,,,,,,,,,,,,,,,,,,,,,,,,,,,,,,,,,,,,,,,,,,,,,,,,,,,,,,,,,,,,,,,,,,,,,,,,,,,,,
,,1510,001,2023-03-30_06h48.13.451,fluency,2022.2.5,Win32,58.99008966,,,,,,,,,,,,,,,,,,,,,,,,,,,,,,,,,,,,,,,,,,,,,,,,,,,,,,,,,,,,,6,,,,,,,,,,,,,,,,,,,,,,,,,,,,k,,,,,,0,0,0,0,1,1.4575,,,,,,,,,,,,,,,,,,,,,,,,,,,,,,,,,,,,,,,,,,,,,,,,,,,,,,,,,,,,,,,,,,,,,,,,,,,,,,,,,,,,
,,1510,001,2023-03-30_06h48.13.451,fluency,2022.2.5,Win32,58.99008966,,,,,,,,,,,,,,,,,,,,,,,,,,,,,,3,2,img/B02_03.jpg,GCNB,Press J if the face is NONBINARY and K if the face is GENDER-CONFORMING,Gender-conforming means that the face appears to be a typical example of its gender. Nonbinary means that the face does not conform to any particular gender norms.,KJ,,,,,,,,,,,,,,,,,,,,,,,,,,,,,,,,,,,,,,,4,1.4226,,,,,,,,,,,,,,,,,,,,,,,,,space,0.7738,0,56,56,14,1,,,,,,,,,,,,,,,,,,,,,,,,,,,,,,,,,,,,,,,,,,,,,,,,,,,,,,,,,,,,,,,,,,,,,,,,,,,,,
,,1510,001,2023-03-30_06h48.13.451,fluency,2022.2.5,Win32,58.99008966,,,,,,,,,,,,,,,,,,,,,,,,,,,,,,,,,,,,,,,,,,,,,,,,,,,,,,,,,,,,,6,,,,,,,,,,,,,,,,,,,,,,,,,,,,k,,,,,,0,0,0,0,1,1.4576,,,,,,,,,,,,,,,,,,,,,,,,,,,,,,,,,,,,,,,,,,,,,,,,,,,,,,,,,,,,,,,,,,,,,,,,,,,,,,,,,,,,
,,1510,001,2023-03-30_06h48.13.451,fluency,2022.2.5,Win32,58.99008966,,,,,,,,,,,,,,,,,,,,,,,,,,,,,,5,3,img/B03_05.jpg,GCNB,Press J if the face is NONBINARY and K if the face is GENDER-CONFORMING,Gender-conforming means that the face appears to be a typical example of its gender. Nonbinary means that the face does not conform to any particular gender norms.,KJ,,,,,,,,,,,,,,,,,,,,,,,,,,,,,,,,,,,,,,,5,1.2924,,,,,,,,,,,,,,,,,,,,,,,,,space,0.485,0,57,57,27,1,,,,,,,,,,,,,,,,,,,,,,,,,,,,,,,,,,,,,,,,,,,,,,,,,,,,,,,,,,,,,,,,,,,,,,,,,,,,,
,,1510,001,2023-03-30_06h48.13.451,fluency,2022.2.5,Win32,58.99008966,,,,,,,,,,,,,,,,,,,,,,,,,,,,,,,,,,,,,,,,,,,,,,,,,,,,,,,,,,,,,6,,,,,,,,,,,,,,,,,,,,,,,,,,,,k,,,,,,0,0,0,0,1,1.2495,,,,,,,,,,,,,,,,,,,,,,,,,,,,,,,,,,,,,,,,,,,,,,,,,,,,,,,,,,,,,,,,,,,,,,,,,,,,,,,,,,,,
,,1510,001,2023-03-30_06h48.13.451,fluency,2022.2.5,Win32,58.99008966,,,,,,,,,,,,,,,,,,,,,,,,,,,,,,2,2,img/B02_02.jpg,GCNB,Press J if the face is NONBINARY and K if the face is GENDER-CONFORMING,Gender-conforming means that the face appears to be a typical example of its gender. Nonbinary means that the face does not conform to any particular gender norms.,KJ,,,,,,,,,,,,,,,,,,,,,,,,,,,,,,,,,,,,,,,5,0.4727,,,,,,,,,,,,,,,,,,,,,,,,,space,0.8225,0,58,58,13,1,,,,,,,,,,,,,,,,,,,,,,,,,,,,,,,,,,,,,,,,,,,,,,,,,,,,,,,,,,,,,,,,,,,,,,,,,,,,,
,,1510,001,2023-03-30_06h48.13.451,fluency,2022.2.5,Win32,58.99008966,,,,,,,,,,,,,,,,,,,,,,,,,,,,,,,,,,,,,,,,,,,,,,,,,,,,,,,,,,,,,6,,,,,,,,,,,,,,,,,,,,,,,,,,,,k,,,,,,0,0,0,0,1,0.7942,,,,,,,,,,,,,,,,,,,,,,,,,,,,,,,,,,,,,,,,,,,,,,,,,,,,,,,,,,,,,,,,,,,,,,,,,,,,,,,,,,,,
,,1510,001,2023-03-30_06h48.13.451,fluency,2022.2.5,Win32,58.99008966,,,,,,,,,,,,,,,,,,,,,,,,,,,,,,1,3,img/B03_01.jpg,GCNB,Press J if the face is NONBINARY and K if the face is GENDER-CONFORMING,Gender-conforming means that the face appears to be a typical example of its gender. Nonbinary means that the face does not conform to any particular gender norms.,KJ,,,,,,,,,,,,,,,,,,,,,,,,,,,,,,,,,,,,,,,4,0.3393,,,,,,,,,,,,,,,,,,,,,,,,,space,0.4975,0,59,59,23,1,,,,,,,,,,,,,,,,,,,,,,,,,,,,,,,,,,,,,,,,,,,,,,,,,,,,,,,,,,,,,,,,,,,,,,,,,,,,,
,,1510,001,2023-03-30_06h48.13.451,fluency,2022.2.5,Win32,58.99008966,,,,,,,,,,,,,,,,,,,,,,,,,,,,,,,,,,,,,,,,,,,,,,,,,,,,,,,,,,,,,6,,,,,,,,,,,,,,,,,,,,,,,,,,,,k,,,,,,0,0,0,0,1,1.2843,,,,,,,,,,,,,,,,,,,,,,,,,,,,,,,,,,,,,,,,,,,,,,,,,,,,,,,,,,,,,,,,,,,,,,,,,,,,,,,,,,,,
,,1510,001,2023-03-30_06h48.13.451,fluency,2022.2.5,Win32,58.99008966,,,,,,,,,,,,,,,,,,,,,,,,,,,,,,5,4,img/B04_05.jpg,GCNB,Press J if the face is NONBINARY and K if the face is GENDER-CONFORMING,Gender-conforming means that the face appears to be a typical example of its gender. Nonbinary means that the face does not conform to any particular gender norms.,KJ,,,,,,,,,,,,,,,,,,,,,,,,,,,,,,,,,,,,,,,5,0.9302,,,,,,,,,,,,,,,,,,,,,,,,,space,0.5407,0,60,60,38,1,,,,,,,,,,,,,,,,,,,,,,,,,,,,,,,,,,,,,,,,,,,,,,,,,,,,,,,,,,,,,,,,,,,,,,,,,,,,,
,,1510,001,2023-03-30_06h48.13.451,fluency,2022.2.5,Win32,58.99008966,,,,,,,,,,,,,,,,,,,,,,,,,,,,,,,,,,,,,,,,,,,,,,,,,,,,,,,,,,,,,6,,,,,,,,,,,,,,,,,,,,,,,,,,,,k,,,,,,0,0,0,0,1,1.2246,,,,,,,,,,,,,,,,,,,,,,,,,,,,,,,,,,,,,,,,,,,,,,,,,,,,,,,,,,,,,,,,,,,,,,,,,,,,,,,,,,,,
,,1510,001,2023-03-30_06h48.13.451,fluency,2022.2.5,Win32,58.99008966,,,,,,,,,,,,,,,,,,,,,,,,,,,,,,10,6,img/B06_10.jpg,GCNB,Press J if the face is NONBINARY and K if the face is GENDER-CONFORMING,Gender-conforming means that the face appears to be a typical example of its gender. Nonbinary means that the face does not conform to any particular gender norms.,KJ,,,,,,,,,,,,,,,,,,,,,,,,,,,,,,,,,,,,,,,6,0.5092,,,,,,,,,,,,,,,,,,,,,,,,,space,0.5017,0,61,61,65,1,,,,,,,,,,,,,,,,,,,,,,,,,,,,,,,,,,,,,,,,,,,,,,,,,,,,,,,,,,,,,,,,,,,,,,,,,,,,,
,,1510,001,2023-03-30_06h48.13.451,fluency,2022.2.5,Win32,58.99008966,,,,,,,,,,,,,,,,,,,,,,,,,,,,,,,,,,,,,,,,,,,,,,,,,,,,,,,,,,,,,6,,,,,,,,,,,,,,,,,,,,,,,,,,,,k,,,,,,0,0,0,0,1,0.8621,,,,,,,,,,,,,,,,,,,,,,,,,,,,,,,,,,,,,,,,,,,,,,,,,,,,,,,,,,,,,,,,,,,,,,,,,,,,,,,,,,,,
,,1510,001,2023-03-30_06h48.13.451,fluency,2022.2.5,Win32,58.99008966,,,,,,,,,,,,,,,,,,,,,,,,,,,,,,1,1,img/B01_01.jpg,GCNB,Press J if the face is NONBINARY and K if the face is GENDER-CONFORMING,Gender-conforming means that the face appears to be a typical example of its gender. Nonbinary means that the face does not conform to any particular gender norms.,KJ,,,,,,,,,,,,,,,,,,,,,,,,,,,,,,,,,,,,,,,4,0.3758,,,,,,,,,,,,,,,,,,,,,,,,,space,0.5171,0,62,62,1,1,,,,,,,,,,,,,,,,,,,,,,,,,,,,,,,,,,,,,,,,,,,,,,,,,,,,,,,,,,,,,,,,,,,,,,,,,,,,,
,,1510,001,2023-03-30_06h48.13.451,fluency,2022.2.5,Win32,58.99008966,,,,,,,,,,,,,,,,,,,,,,,,,,,,,,,,,,,,,,,,,,,,,,,,,,,,,,,,,,,,,6,,,,,,,,,,,,,,,,,,,,,,,,,,,,k,,,,,,0,0,0,0,1,1.1444,,,,,,,,,,,,,,,,,,,,,,,,,,,,,,,,,,,,,,,,,,,,,,,,,,,,,,,,,,,,,,,,,,,,,,,,,,,,,,,,,,,,
,,1510,001,2023-03-30_06h48.13.451,fluency,2022.2.5,Win32,58.99008966,,,,,,,,,,,,,,,,,,,,,,,,,,,,,,10,7,img/B07_10.jpg,GCNB,Press J if the face is NONBINARY and K if the face is GENDER-CONFORMING,Gender-conforming means that the face appears to be a typical example of its gender. Nonbinary means that the face does not conform to any particular gender norms.,KJ,,,,,,,,,,,,,,,,,,,,,,,,,,,,,,,,,,,,,,,9,0.51,,,,,,,,,,,,,,,,,,,,,,,,,space,1.0472,0,63,63,76,1,,,,,,,,,,,,,,,,,,,,,,,,,,,,,,,,,,,,,,,,,,,,,,,,,,,,,,,,,,,,,,,,,,,,,,,,,,,,,
,,1510,001,2023-03-30_06h48.13.451,fluency,2022.2.5,Win32,58.99008966,,,,,,,,,,,,,,,,,,,,,,,,,,,,,,,,,,,,,,,,,,,,,,,,,,,,,,,,,,,,,6,,,,,,,,,,,,,,,,,,,,,,,,,,,,j,,,,,,0,0,0,0,1,1.4249,,,,,,,,,,,,,,,,,,,,,,,,,,,,,,,,,,,,,,,,,,,,,,,,,,,,,,,,,,,,,,,,,,,,,,,,,,,,,,,,,,,,
,,1510,001,2023-03-30_06h48.13.451,fluency,2022.2.5,Win32,58.99008966,,,,,,,,,,,,,,,,,,,,,,,,,,,,,,9,1,img/B01_09.jpg,GCNB,Press J if the face is NONBINARY and K if the face is GENDER-CONFORMING,Gender-conforming means that the face appears to be a typical example of its gender. Nonbinary means that the face does not conform to any particular gender norms.,KJ,,,,,,,,,,,,,,,,,,,,,,,,,,,,,,,,,,,,,,,6,1.8267,,,,,,,,,,,,,,,,,,,,,,,,,space,1.2821,0,64,64,9,1,,,,,,,,,,,,,,,,,,,,,,,,,,,,,,,,,,,,,,,,,,,,,,,,,,,,,,,,,,,,,,,,,,,,,,,,,,,,,
,,1510,001,2023-03-30_06h48.13.451,fluency,2022.2.5,Win32,58.99008966,,,,,,,,,,,,,,,,,,,,,,,,,,,,,,,,,,,,,,,,,,,,,,,,,,,,,,,,,,,,,6,,,,,,,,,,,,,,,,,,,,,,,,,,,,k,,,,,,0,0,0,0,1,0.8794,,,,,,,,,,,,,,,,,,,,,,,,,,,,,,,,,,,,,,,,,,,,,,,,,,,,,,,,,,,,,,,,,,,,,,,,,,,,,,,,,,,,
,,1510,001,2023-03-30_06h48.13.451,fluency,2022.2.5,Win32,58.99008966,,,,,,,,,,,,,,,,,,,,,,,,,,,,,,1,5,img/B05_01.jpg,GCNB,Press J if the face is NONBINARY and K if the face is GENDER-CONFORMING,Gender-conforming means that the face appears to be a typical example of its gender. Nonbinary means that the face does not conform to any particular gender norms.,KJ,,,,,,,,,,,,,,,,,,,,,,,,,,,,,,,,,,,,,,,5,0.959,,,,,,,,,,,,,,,,,,,,,,,,,space,0.6009,0,65,65,45,1,,,,,,,,,,,,,,,,,,,,,,,,,,,,,,,,,,,,,,,,,,,,,,,,,,,,,,,,,,,,,,,,,,,,,,,,,,,,,
,,1510,001,2023-03-30_06h48.13.451,fluency,2022.2.5,Win32,58.99008966,,,,,,,,,,,,,,,,,,,,,,,,,,,,,,,,,,,,,,,,,,,,,,,,,,,,,,,,,,,,,6,,,,,,,,,,,,,,,,,,,,,,,,,,,,j,,,,,,0,0,0,0,1,1.7364,,,,,,,,,,,,,,,,,,,,,,,,,,,,,,,,,,,,,,,,,,,,,,,,,,,,,,,,,,,,,,,,,,,,,,,,,,,,,,,,,,,,
,,1510,001,2023-03-30_06h48.13.451,fluency,2022.2.5,Win32,58.99008966,,,,,,,,,,,,,,,,,,,,,,,,,,,,,,6,7,img/B07_06.jpg,GCNB,Press J if the face is NONBINARY and K if the face is GENDER-CONFORMING,Gender-conforming means that the face appears to be a typical example of its gender. Nonbinary means that the face does not conform to any particular gender norms.,KJ,,,,,,,,,,,,,,,,,,,,,,,,,,,,,,,,,,,,,,,5,1.7734,,,,,,,,,,,,,,,,,,,,,,,,,space,0.5036,0,66,66,72,1,,,,,,,,,,,,,,,,,,,,,,,,,,,,,,,,,,,,,,,,,,,,,,,,,,,,,,,,,,,,,,,,,,,,,,,,,,,,,
,,1510,001,2023-03-30_06h48.13.451,fluency,2022.2.5,Win32,58.99008966,,,,,,,,,,,,,,,,,,,,,,,,,,,,,,,,,,,,,,,,,,,,,,,,,,,,,,,,,,,,,6,,,,,,,,,,,,,,,,,,,,,,,,,,,,k,,,,,,0,0,0,0,1,0.879,,,,,,,,,,,,,,,,,,,,,,,,,,,,,,,,,,,,,,,,,,,,,,,,,,,,,,,,,,,,,,,,,,,,,,,,,,,,,,,,,,,,
,,1510,001,2023-03-30_06h48.13.451,fluency,2022.2.5,Win32,58.99008966,,,,,,,,,,,,,,,,,,,,,,,,,,,,,,1,2,img/B02_01.jpg,GCNB,Press J if the face is NONBINARY and K if the face is GENDER-CONFORMING,Gender-conforming means that the face appears to be a typical example of its gender. Nonbinary means that the face does not conform to any particular gender norms.,KJ,,,,,,,,,,,,,,,,,,,,,,,,,,,,,,,,,,,,,,,4,0.6554,,,,,,,,,,,,,,,,,,,,,,,,,space,0.4554,0,67,67,12,1,,,,,,,,,,,,,,,,,,,,,,,,,,,,,,,,,,,,,,,,,,,,,,,,,,,,,,,,,,,,,,,,,,,,,,,,,,,,,
,,1510,001,2023-03-30_06h48.13.451,fluency,2022.2.5,Win32,58.99008966,,,,,,,,,,,,,,,,,,,,,,,,,,,,,,,,,,,,,,,,,,,,,,,,,,,,,,,,,,,,,6,,,,,,,,,,,,,,,,,,,,,,,,,,,,j,,,,,,0,0,0,0,1,1.3779,,,,,,,,,,,,,,,,,,,,,,,,,,,,,,,,,,,,,,,,,,,,,,,,,,,,,,,,,,,,,,,,,,,,,,,,,,,,,,,,,,,,
,,1510,001,2023-03-30_06h48.13.451,fluency,2022.2.5,Win32,58.99008966,,,,,,,,,,,,,,,,,,,,,,,,,,,,,,10,1,img/B01_10.jpg,GCNB,Press J if the face is NONBINARY and K if the face is GENDER-CONFORMING,Gender-conforming means that the face appears to be a typical example of its gender. Nonbinary means that the face does not conform to any particular gender norms.,KJ,,,,,,,,,,,,,,,,,,,,,,,,,,,,,,,,,,,,,,,5,1.1728,,,,,,,,,,,,,,,,,,,,,,,,,space,0.451,0,68,68,10,1,,,,,,,,,,,,,,,,,,,,,,,,,,,,,,,,,,,,,,,,,,,,,,,,,,,,,,,,,,,,,,,,,,,,,,,,,,,,,
,,1510,001,2023-03-30_06h48.13.451,fluency,2022.2.5,Win32,58.99008966,,,,,,,,,,,,,,,,,,,,,,,,,,,,,,,,,,,,,,,,,,,,,,,,,,,,,,,,,,,,,6,,,,,,,,,,,,,,,,,,,,,,,,,,,,k,,,,,,0,0,0,0,1,1.2797,,,,,,,,,,,,,,,,,,,,,,,,,,,,,,,,,,,,,,,,,,,,,,,,,,,,,,,,,,,,,,,,,,,,,,,,,,,,,,,,,,,,
,,1510,001,2023-03-30_06h48.13.451,fluency,2022.2.5,Win32,58.99008966,,,,,,,,,,,,,,,,,,,,,,,,,,,,,,4,5,img/B05_04.jpg,GCNB,Press J if the face is NONBINARY and K if the face is GENDER-CONFORMING,Gender-conforming means that the face appears to be a typical example of its gender. Nonbinary means that the face does not conform to any particular gender norms.,KJ,,,,,,,,,,,,,,,,,,,,,,,,,,,,,,,,,,,,,,,6,1.1045,,,,,,,,,,,,,,,,,,,,,,,,,space,0.4039,0,69,69,48,1,,,,,,,,,,,,,,,,,,,,,,,,,,,,,,,,,,,,,,,,,,,,,,,,,,,,,,,,,,,,,,,,,,,,,,,,,,,,,
,,1510,001,2023-03-30_06h48.13.451,fluency,2022.2.5,Win32,58.99008966,,,,,,,,,,,,,,,,,,,,,,,,,,,,,,,,,,,,,,,,,,,,,,,,,,,,,,,,,,,,,6,,,,,,,,,,,,,,,,,,,,,,,,,,,,k,,,,,,0,0,0,0,1,0.964,,,,,,,,,,,,,,,,,,,,,,,,,,,,,,,,,,,,,,,,,,,,,,,,,,,,,,,,,,,,,,,,,,,,,,,,,,,,,,,,,,,,
,,1510,001,2023-03-30_06h48.13.451,fluency,2022.2.5,Win32,58.99008966,,,,,,,,,,,,,,,,,,,,,,,,,,,,,,0,3,img/B03_00.jpg,GCNB,Press J if the face is NONBINARY and K if the face is GENDER-CONFORMING,Gender-conforming means that the face appears to be a typical example of its gender. Nonbinary means that the face does not conform to any particular gender norms.,KJ,,,,,,,,,,,,,,,,,,,,,,,,,,,,,,,,,,,,,,,4,1.4227,,,,,,,,,,,,,,,,,,,,,,,,,space,0.7344,0,70,70,22,1,,,,,,,,,,,,,,,,,,,,,,,,,,,,,,,,,,,,,,,,,,,,,,,,,,,,,,,,,,,,,,,,,,,,,,,,,,,,,
,,1510,001,2023-03-30_06h48.13.451,fluency,2022.2.5,Win32,58.99008966,,,,,,,,,,,,,,,,,,,,,,,,,,,,,,,,,,,,,,,,,,,,,,,,,,,,,,,,,,,,,6,,,,,,,,,,,,,,,,,,,,,,,,,,,,k,,,,,,0,0,0,0,1,0.8784,,,,,,,,,,,,,,,,,,,,,,,,,,,,,,,,,,,,,,,,,,,,,,,,,,,,,,,,,,,,,,,,,,,,,,,,,,,,,,,,,,,,
,,1510,001,2023-03-30_06h48.13.451,fluency,2022.2.5,Win32,58.99008966,,,,,,,,,,,,,,,,,,,,,,,,,,,,,,10,3,img/B03_10.jpg,GCNB,Press J if the face is NONBINARY and K if the face is GENDER-CONFORMING,Gender-conforming means that the face appears to be a typical example of its gender. Nonbinary means that the face does not conform to any particular gender norms.,KJ,,,,,,,,,,,,,,,,,,,,,,,,,,,,,,,,,,,,,,,7,0.64,,,,,,,,,,,,,,,,,,,,,,,,,space,0.4808,0,71,71,32,1,,,,,,,,,,,,,,,,,,,,,,,,,,,,,,,,,,,,,,,,,,,,,,,,,,,,,,,,,,,,,,,,,,,,,,,,,,,,,
,,1510,001,2023-03-30_06h48.13.451,fluency,2022.2.5,Win32,58.99008966,,,,,,,,,,,,,,,,,,,,,,,,,,,,,,,,,,,,,,,,,,,,,,,,,,,,,,,,,,,,,6,,,,,,,,,,,,,,,,,,,,,,,,,,,,k,,,,,,0,0,0,0,1,0.8082,,,,,,,,,,,,,,,,,,,,,,,,,,,,,,,,,,,,,,,,,,,,,,,,,,,,,,,,,,,,,,,,,,,,,,,,,,,,,,,,,,,,
,,1510,001,2023-03-30_06h48.13.451,fluency,2022.2.5,Win32,58.99008966,,,,,,,,,,,,,,,,,,,,,,,,,,,,,,9,8,img/B08_09.jpg,GCNB,Press J if the face is NONBINARY and K if the face is GENDER-CONFORMING,Gender-conforming means that the face appears to be a typical example of its gender. Nonbinary means that the face does not conform to any particular gender norms.,KJ,,,,,,,,,,,,,,,,,,,,,,,,,,,,,,,,,,,,,,,6,0.5447,,,,,,,,,,,,,,,,,,,,,,,,,space,1.4675,0,72,72,86,1,,,,,,,,,,,,,,,,,,,,,,,,,,,,,,,,,,,,,,,,,,,,,,,,,,,,,,,,,,,,,,,,,,,,,,,,,,,,,
,,1510,001,2023-03-30_06h48.13.451,fluency,2022.2.5,Win32,58.99008966,,,,,,,,,,,,,,,,,,,,,,,,,,,,,,,,,,,,,,,,,,,,,,,,,,,,,,,,,,,,,7,space,1.1462,,,,,,,,,,,,,,,,,,,,,,,,,,,0,0,0,0,1,,,,,,,,,,,,,,,,,,,,,,,,,,,,,,,,,,,,,,,,,,,,,,,,,,,,,,,,,,,,,,,,,,,,,,,,,,,,,,,,,,,,,,,,,,
,,1510,001,2023-03-30_06h48.13.451,fluency,2022.2.5,Win32,58.99008966,,,,,,,,,,,,,,,,,,,,,,,,,,,,,,,,,,,,,,,,,,,,,,,,,,,,,,,,,,,,,,,,,,,,,,,,,,,,,,,,,,,,,,,,,,,,,,,0,0,0,0,1,,,,,,,,,,,,,,,,,,,,,,,,,,,,,,,,,,,,,,,,,,,,,,,,,,,,,,,,,,,,,,,,,,,,,,,,,,,,,,,,,,,,,
,,1510,001,2023-03-30_06h48.13.451,fluency,2022.2.5,Win32,58.99008966,,,,,,,,,,,,,,,,,,,,,,,,,,,,,,,,,,,,,,,,,,,,,,,,,,,,,,,,,,,,,7,,,,,,,,,,,,,,,,,,,,,,,,,,,,,,,,,,1,0,1,0,1,,,,,,,,,,,,,,,,,,,,,,,,,,,,,,,,,,,,,,,,,,,,,,,,,,,,,,,,,,,,,,,,,,,,,,,,,,,,,,,,,,,,,
,,1510,001,2023-03-30_06h48.13.451,fluency,2022.2.5,Win32,58.99008966,,,,,,,,,,,,,,,,,,,,,,,,,,,,,,6,4,img/B04_06.jpg,GCNB,Press J if the face is NONBINARY and K if the face is GENDER-CONFORMING,Gender-conforming means that the face appears to be a typical example of its gender. Nonbinary means that the face does not conform to any particular gender norms.,KJ,,,,,,,,,,,,,,,,,,,,,,,,,,,,,,,,,,,,,,,4,1.7875,,,,,,,,,,,,,,,,,,,,,,,,,space,1.3363,0,73,73,39,1,,,,,,,,,,,,,,,,,,,,,,,,,,,,,,,,,,,,,,,,,,,,,,,,,,,,,,,,,,,,,,,,,,,,,,,,,,,,,
,,1510,001,2023-03-30_06h48.13.451,fluency,2022.2.5,Win32,58.99008966,,,,,,,,,,,,,,,,,,,,,,,,,,,,,,,,,,,,,,,,,,,,,,,,,,,,,,,,,,,,,7,,,,,,,,,,,,,,,,,,,,,,,,,,,,j,,,,,,0,0,0,0,1,0.9445,,,,,,,,,,,,,,,,,,,,,,,,,,,,,,,,,,,,,,,,,,,,,,,,,,,,,,,,,,,,,,,,,,,,,,,,,,,,,,,,,,,,
,,1510,001,2023-03-30_06h48.13.451,fluency,2022.2.5,Win32,58.99008966,,,,,,,,,,,,,,,,,,,,,,,,,,,,,,7,1,img/B01_07.jpg,GCNB,Press J if the face is NONBINARY and K if the face is GENDER-CONFORMING,Gender-conforming means that the face appears to be a typical example of its gender. Nonbinary means that the face does not conform to any particular gender norms.,KJ,,,,,,,,,,,,,,,,,,,,,,,,,,,,,,,,,,,,,,,5,0.6901,,,,,,,,,,,,,,,,,,,,,,,,,space,0.5806,0,74,74,7,1,,,,,,,,,,,,,,,,,,,,,,,,,,,,,,,,,,,,,,,,,,,,,,,,,,,,,,,,,,,,,,,,,,,,,,,,,,,,,
,,1510,001,2023-03-30_06h48.13.451,fluency,2022.2.5,Win32,58.99008966,,,,,,,,,,,,,,,,,,,,,,,,,,,,,,,,,,,,,,,,,,,,,,,,,,,,,,,,,,,,,7,,,,,,,,,,,,,,,,,,,,,,,,,,,,k,,,,,,0,0,0,0,1,0.8746,,,,,,,,,,,,,,,,,,,,,,,,,,,,,,,,,,,,,,,,,,,,,,,,,,,,,,,,,,,,,,,,,,,,,,,,,,,,,,,,,,,,
,,1510,001,2023-03-30_06h48.13.451,fluency,2022.2.5,Win32,58.99008966,,,,,,,,,,,,,,,,,,,,,,,,,,,,,,0,6,img/B06_00.jpg,GCNB,Press J if the face is NONBINARY and K if the face is GENDER-CONFORMING,Gender-conforming means that the face appears to be a typical example of its gender. Nonbinary means that the face does not conform to any particular gender norms.,KJ,,,,,,,,,,,,,,,,,,,,,,,,,,,,,,,,,,,,,,,6,1.714,,,,,,,,,,,,,,,,,,,,,,,,,space,0.46,0,75,75,55,1,,,,,,,,,,,,,,,,,,,,,,,,,,,,,,,,,,,,,,,,,,,,,,,,,,,,,,,,,,,,,,,,,,,,,,,,,,,,,
,,1510,001,2023-03-30_06h48.13.451,fluency,2022.2.5,Win32,58.99008966,,,,,,,,,,,,,,,,,,,,,,,,,,,,,,,,,,,,,,,,,,,,,,,,,,,,,,,,,,,,,7,,,,,,,,,,,,,,,,,,,,,,,,,,,,j,,,,,,0,0,0,0,1,1.4768,,,,,,,,,,,,,,,,,,,,,,,,,,,,,,,,,,,,,,,,,,,,,,,,,,,,,,,,,,,,,,,,,,,,,,,,,,,,,,,,,,,,
,,1510,001,2023-03-30_06h48.13.451,fluency,2022.2.5,Win32,58.99008966,,,,,,,,,,,,,,,,,,,,,,,,,,,,,,6,8,img/B08_06.jpg,GCNB,Press J if the face is NONBINARY and K if the face is GENDER-CONFORMING,Gender-conforming means that the face appears to be a typical example of its gender. Nonbinary means that the face does not conform to any particular gender norms.,KJ,,,,,,,,,,,,,,,,,,,,,,,,,,,,,,,,,,,,,,,5,1.6428,,,,,,,,,,,,,,,,,,,,,,,,,space,0.6339,0,76,76,83,1,,,,,,,,,,,,,,,,,,,,,,,,,,,,,,,,,,,,,,,,,,,,,,,,,,,,,,,,,,,,,,,,,,,,,,,,,,,,,
,,1510,001,2023-03-30_06h48.13.451,fluency,2022.2.5,Win32,58.99008966,,,,,,,,,,,,,,,,,,,,,,,,,,,,,,,,,,,,,,,,,,,,,,,,,,,,,,,,,,,,,7,,,,,,,,,,,,,,,,,,,,,,,,,,,,k,,,,,,0,0,0,0,1,0.9645,,,,,,,,,,,,,,,,,,,,,,,,,,,,,,,,,,,,,,,,,,,,,,,,,,,,,,,,,,,,,,,,,,,,,,,,,,,,,,,,,,,,
,,1510,001,2023-03-30_06h48.13.451,fluency,2022.2.5,Win32,58.99008966,,,,,,,,,,,,,,,,,,,,,,,,,,,,,,4,10,img/B10_04.jpg,GCNB,Press J if the face is NONBINARY and K if the face is GENDER-CONFORMING,Gender-conforming means that the face appears to be a typical example of its gender. Nonbinary means that the face does not conform to any particular gender norms.,KJ,,,,,,,,,,,,,,,,,,,,,,,,,,,,,,,,,,,,,,,5,1.3762,,,,,,,,,,,,,,,,,,,,,,,,,space,0.5082,0,77,77,103,1,,,,,,,,,,,,,,,,,,,,,,,,,,,,,,,,,,,,,,,,,,,,,,,,,,,,,,,,,,,,,,,,,,,,,,,,,,,,,
,,1510,001,2023-03-30_06h48.13.451,fluency,2022.2.5,Win32,58.99008966,,,,,,,,,,,,,,,,,,,,,,,,,,,,,,,,,,,,,,,,,,,,,,,,,,,,,,,,,,,,,7,,,,,,,,,,,,,,,,,,,,,,,,,,,,k,,,,,,0,0,0,0,1,0.8516,,,,,,,,,,,,,,,,,,,,,,,,,,,,,,,,,,,,,,,,,,,,,,,,,,,,,,,,,,,,,,,,,,,,,,,,,,,,,,,,,,,,
,,1510,001,2023-03-30_06h48.13.451,fluency,2022.2.5,Win32,58.99008966,,,,,,,,,,,,,,,,,,,,,,,,,,,,,,1,6,img/B06_01.jpg,GCNB,Press J if the face is NONBINARY and K if the face is GENDER-CONFORMING,Gender-conforming means that the face appears to be a typical example of its gender. Nonbinary means that the face does not conform to any particular gender norms.,KJ,,,,,,,,,,,,,,,,,,,,,,,,,,,,,,,,,,,,,,,6,0.4306,,,,,,,,,,,,,,,,,,,,,,,,,space,0.7075,0,78,78,56,1,,,,,,,,,,,,,,,,,,,,,,,,,,,,,,,,,,,,,,,,,,,,,,,,,,,,,,,,,,,,,,,,,,,,,,,,,,,,,
,,1510,001,2023-03-30_06h48.13.451,fluency,2022.2.5,Win32,58.99008966,,,,,,,,,,,,,,,,,,,,,,,,,,,,,,,,,,,,,,,,,,,,,,,,,,,,,,,,,,,,,7,,,,,,,,,,,,,,,,,,,,,,,,,,,,k,,,,,,0,0,0,0,1,1.3913,,,,,,,,,,,,,,,,,,,,,,,,,,,,,,,,,,,,,,,,,,,,,,,,,,,,,,,,,,,,,,,,,,,,,,,,,,,,,,,,,,,,
,,1510,001,2023-03-30_06h48.13.451,fluency,2022.2.5,Win32,58.99008966,,,,,,,,,,,,,,,,,,,,,,,,,,,,,,8,4,img/B04_08.jpg,GCNB,Press J if the face is NONBINARY and K if the face is GENDER-CONFORMING,Gender-conforming means that the face appears to be a typical example of its gender. Nonbinary means that the face does not conform to any particular gender norms.,KJ,,,,,,,,,,,,,,,,,,,,,,,,,,,,,,,,,,,,,,,6,0.7452,,,,,,,,,,,,,,,,,,,,,,,,,space,0.4241,0,79,79,41,1,,,,,,,,,,,,,,,,,,,,,,,,,,,,,,,,,,,,,,,,,,,,,,,,,,,,,,,,,,,,,,,,,,,,,,,,,,,,,
,,1510,001,2023-03-30_06h48.13.451,fluency,2022.2.5,Win32,58.99008966,,,,,,,,,,,,,,,,,,,,,,,,,,,,,,,,,,,,,,,,,,,,,,,,,,,,,,,,,,,,,7,,,,,,,,,,,,,,,,,,,,,,,,,,,,k,,,,,,0,0,0,0,1,0.7002,,,,,,,,,,,,,,,,,,,,,,,,,,,,,,,,,,,,,,,,,,,,,,,,,,,,,,,,,,,,,,,,,,,,,,,,,,,,,,,,,,,,
,,1510,001,2023-03-30_06h48.13.451,fluency,2022.2.5,Win32,58.99008966,,,,,,,,,,,,,,,,,,,,,,,,,,,,,,7,4,img/B04_07.jpg,GCNB,Press J if the face is NONBINARY and K if the face is GENDER-CONFORMING,Gender-conforming means that the face appears to be a typical example of its gender. Nonbinary means that the face does not conform to any particular gender norms.,KJ,,,,,,,,,,,,,,,,,,,,,,,,,,,,,,,,,,,,,,,6,0.4312,,,,,,,,,,,,,,,,,,,,,,,,,space,1.1181,0,80,80,40,1,,,,,,,,,,,,,,,,,,,,,,,,,,,,,,,,,,,,,,,,,,,,,,,,,,,,,,,,,,,,,,,,,,,,,,,,,,,,,
,,1510,001,2023-03-30_06h48.13.451,fluency,2022.2.5,Win32,58.99008966,,,,,,,,,,,,,,,,,,,,,,,,,,,,,,,,,,,,,,,,,,,,,,,,,,,,,,,,,,,,,7,,,,,,,,,,,,,,,,,,,,,,,,,,,,k,,,,,,0,0,0,0,1,0.7341,,,,,,,,,,,,,,,,,,,,,,,,,,,,,,,,,,,,,,,,,,,,,,,,,,,,,,,,,,,,,,,,,,,,,,,,,,,,,,,,,,,,
,,1510,001,2023-03-30_06h48.13.451,fluency,2022.2.5,Win32,58.99008966,,,,,,,,,,,,,,,,,,,,,,,,,,,,,,2,4,img/B04_02.jpg,GCNB,Press J if the face is NONBINARY and K if the face is GENDER-CONFORMING,Gender-conforming means that the face appears to be a typical example of its gender. Nonbinary means that the face does not conform to any particular gender norms.,KJ,,,,,,,,,,,,,,,,,,,,,,,,,,,,,,,,,,,,,,,6,0.5614,,,,,,,,,,,,,,,,,,,,,,,,,space,0.4009,0,81,81,35,1,,,,,,,,,,,,,,,,,,,,,,,,,,,,,,,,,,,,,,,,,,,,,,,,,,,,,,,,,,,,,,,,,,,,,,,,,,,,,
,,1510,001,2023-03-30_06h48.13.451,fluency,2022.2.5,Win32,58.99008966,,,,,,,,,,,,,,,,,,,,,,,,,,,,,,,,,,,,,,,,,,,,,,,,,,,,,,,,,,,,,7,,,,,,,,,,,,,,,,,,,,,,,,,,,,k,,,,,,0,0,0,0,1,1.2014,,,,,,,,,,,,,,,,,,,,,,,,,,,,,,,,,,,,,,,,,,,,,,,,,,,,,,,,,,,,,,,,,,,,,,,,,,,,,,,,,,,,
,,1510,001,2023-03-30_06h48.13.451,fluency,2022.2.5,Win32,58.99008966,,,,,,,,,,,,,,,,,,,,,,,,,,,,,,8,2,img/B02_08.jpg,GCNB,Press J if the face is NONBINARY and K if the face is GENDER-CONFORMING,Gender-conforming means that the face appears to be a typical example of its gender. Nonbinary means that the face does not conform to any particular gender norms.,KJ,,,,,,,,,,,,,,,,,,,,,,,,,,,,,,,,,,,,,,,8,1.5264,,,,,,,,,,,,,,,,,,,,,,,,,space,0.5143,0,82,82,19,1,,,,,,,,,,,,,,,,,,,,,,,,,,,,,,,,,,,,,,,,,,,,,,,,,,,,,,,,,,,,,,,,,,,,,,,,,,,,,
,,1510,001,2023-03-30_06h48.13.451,fluency,2022.2.5,Win32,58.99008966,,,,,,,,,,,,,,,,,,,,,,,,,,,,,,,,,,,,,,,,,,,,,,,,,,,,,,,,,,,,,7,,,,,,,,,,,,,,,,,,,,,,,,,,,,k,,,,,,0,0,0,0,1,1.6522,,,,,,,,,,,,,,,,,,,,,,,,,,,,,,,,,,,,,,,,,,,,,,,,,,,,,,,,,,,,,,,,,,,,,,,,,,,,,,,,,,,,
,,1510,001,2023-03-30_06h48.13.451,fluency,2022.2.5,Win32,58.99008966,,,,,,,,,,,,,,,,,,,,,,,,,,,,,,6,10,img/B10_06.jpg,GCNB,Press J if the face is NONBINARY and K if the face is GENDER-CONFORMING,Gender-conforming means that the face appears to be a typical example of its gender. Nonbinary means that the face does not conform to any particular gender norms.,KJ,,,,,,,,,,,,,,,,,,,,,,,,,,,,,,,,,,,,,,,6,0.7968,,,,,,,,,,,,,,,,,,,,,,,,,space,0.4506,0,83,83,105,1,,,,,,,,,,,,,,,,,,,,,,,,,,,,,,,,,,,,,,,,,,,,,,,,,,,,,,,,,,,,,,,,,,,,,,,,,,,,,
,,1510,001,2023-03-30_06h48.13.451,fluency,2022.2.5,Win32,58.99008966,,,,,,,,,,,,,,,,,,,,,,,,,,,,,,,,,,,,,,,,,,,,,,,,,,,,,,,,,,,,,7,,,,,,,,,,,,,,,,,,,,,,,,,,,,j,,,,,,0,0,0,0,1,1.5486,,,,,,,,,,,,,,,,,,,,,,,,,,,,,,,,,,,,,,,,,,,,,,,,,,,,,,,,,,,,,,,,,,,,,,,,,,,,,,,,,,,,
,,1510,001,2023-03-30_06h48.13.451,fluency,2022.2.5,Win32,58.99008966,,,,,,,,,,,,,,,,,,,,,,,,,,,,,,6,9,img/B09_06.jpg,GCNB,Press J if the face is NONBINARY and K if the face is GENDER-CONFORMING,Gender-conforming means that the face appears to be a typical example of its gender. Nonbinary means that the face does not conform to any particular gender norms.,KJ,,,,,,,,,,,,,,,,,,,,,,,,,,,,,,,,,,,,,,,6,1.426,,,,,,,,,,,,,,,,,,,,,,,,,space,0.4309,0,84,84,94,1,,,,,,,,,,,,,,,,,,,,,,,,,,,,,,,,,,,,,,,,,,,,,,,,,,,,,,,,,,,,,,,,,,,,,,,,,,,,,
,,1510,001,2023-03-30_06h48.13.451,fluency,2022.2.5,Win32,58.99008966,,,,,,,,,,,,,,,,,,,,,,,,,,,,,,,,,,,,,,,,,,,,,,,,,,,,,,,,,,,,,7,,,,,,,,,,,,,,,,,,,,,,,,,,,,k,,,,,,0,0,0,0,1,1.6777,,,,,,,,,,,,,,,,,,,,,,,,,,,,,,,,,,,,,,,,,,,,,,,,,,,,,,,,,,,,,,,,,,,,,,,,,,,,,,,,,,,,
,,1510,001,2023-03-30_06h48.13.451,fluency,2022.2.5,Win32,58.99008966,,,,,,,,,,,,,,,,,,,,,,,,,,,,,,0,9,img/B09_00.jpg,GCNB,Press J if the face is NONBINARY and K if the face is GENDER-CONFORMING,Gender-conforming means that the face appears to be a typical example of its gender. Nonbinary means that the face does not conform to any particular gender norms.,KJ,,,,,,,,,,,,,,,,,,,,,,,,,,,,,,,,,,,,,,,5,2.4562,,,,,,,,,,,,,,,,,,,,,,,,,space,0.8176,0,85,85,88,1,,,,,,,,,,,,,,,,,,,,,,,,,,,,,,,,,,,,,,,,,,,,,,,,,,,,,,,,,,,,,,,,,,,,,,,,,,,,,
,,1510,001,2023-03-30_06h48.13.451,fluency,2022.2.5,Win32,58.99008966,,,,,,,,,,,,,,,,,,,,,,,,,,,,,,,,,,,,,,,,,,,,,,,,,,,,,,,,,,,,,7,,,,,,,,,,,,,,,,,,,,,,,,,,,,k,,,,,,0,0,0,0,1,1.7253,,,,,,,,,,,,,,,,,,,,,,,,,,,,,,,,,,,,,,,,,,,,,,,,,,,,,,,,,,,,,,,,,,,,,,,,,,,,,,,,,,,,
,,1510,001,2023-03-30_06h48.13.451,fluency,2022.2.5,Win32,58.99008966,,,,,,,,,,,,,,,,,,,,,,,,,,,,,,9,6,img/B06_09.jpg,GCNB,Press J if the face is NONBINARY and K if the face is GENDER-CONFORMING,Gender-conforming means that the face appears to be a typical example of its gender. Nonbinary means that the face does not conform to any particular gender norms.,KJ,,,,,,,,,,,,,,,,,,,,,,,,,,,,,,,,,,,,,,,8,1.0682,,,,,,,,,,,,,,,,,,,,,,,,,space,0.5845,0,86,86,64,1,,,,,,,,,,,,,,,,,,,,,,,,,,,,,,,,,,,,,,,,,,,,,,,,,,,,,,,,,,,,,,,,,,,,,,,,,,,,,
,,1510,001,2023-03-30_06h48.13.451,fluency,2022.2.5,Win32,58.99008966,,,,,,,,,,,,,,,,,,,,,,,,,,,,,,,,,,,,,,,,,,,,,,,,,,,,,,,,,,,,,7,,,,,,,,,,,,,,,,,,,,,,,,,,,,k,,,,,,0,0,0,0,1,1.1678,,,,,,,,,,,,,,,,,,,,,,,,,,,,,,,,,,,,,,,,,,,,,,,,,,,,,,,,,,,,,,,,,,,,,,,,,,,,,,,,,,,,
,,1510,001,2023-03-30_06h48.13.451,fluency,2022.2.5,Win32,58.99008966,,,,,,,,,,,,,,,,,,,,,,,,,,,,,,7,2,img/B02_07.jpg,GCNB,Press J if the face is NONBINARY and K if the face is GENDER-CONFORMING,Gender-conforming means that the face appears to be a typical example of its gender. Nonbinary means that the face does not conform to any particular gender norms.,KJ,,,,,,,,,,,,,,,,,,,,,,,,,,,,,,,,,,,,,,,8,0.6404,,,,,,,,,,,,,,,,,,,,,,,,,space,0.517,0,87,87,18,1,,,,,,,,,,,,,,,,,,,,,,,,,,,,,,,,,,,,,,,,,,,,,,,,,,,,,,,,,,,,,,,,,,,,,,,,,,,,,
,,1510,001,2023-03-30_06h48.13.451,fluency,2022.2.5,Win32,58.99008966,,,,,,,,,,,,,,,,,,,,,,,,,,,,,,,,,,,,,,,,,,,,,,,,,,,,,,,,,,,,,7,,,,,,,,,,,,,,,,,,,,,,,,,,,,k,,,,,,0,0,0,0,1,1.0447,,,,,,,,,,,,,,,,,,,,,,,,,,,,,,,,,,,,,,,,,,,,,,,,,,,,,,,,,,,,,,,,,,,,,,,,,,,,,,,,,,,,
,,1510,001,2023-03-30_06h48.13.451,fluency,2022.2.5,Win32,58.99008966,,,,,,,,,,,,,,,,,,,,,,,,,,,,,,5,2,img/B02_05.jpg,GCNB,Press J if the face is NONBINARY and K if the face is GENDER-CONFORMING,Gender-conforming means that the face appears to be a typical example of its gender. Nonbinary means that the face does not conform to any particular gender norms.,KJ,,,,,,,,,,,,,,,,,,,,,,,,,,,,,,,,,,,,,,,7,1.2297,,,,,,,,,,,,,,,,,,,,,,,,,space,2.8641,0,88,88,16,1,,,,,,,,,,,,,,,,,,,,,,,,,,,,,,,,,,,,,,,,,,,,,,,,,,,,,,,,,,,,,,,,,,,,,,,,,,,,,
,,1510,001,2023-03-30_06h48.13.451,fluency,2022.2.5,Win32,58.99008966,,,,,,,,,,,,,,,,,,,,,,,,,,,,,,,,,,,,,,,,,,,,,,,,,,,,,,,,,,,,,7,,,,,,,,,,,,,,,,,,,,,,,,,,,,j,,,,,,0,0,0,0,1,1.6098,,,,,,,,,,,,,,,,,,,,,,,,,,,,,,,,,,,,,,,,,,,,,,,,,,,,,,,,,,,,,,,,,,,,,,,,,,,,,,,,,,,,
,,1510,001,2023-03-30_06h48.13.451,fluency,2022.2.5,Win32,58.99008966,,,,,,,,,,,,,,,,,,,,,,,,,,,,,,4,2,img/B02_04.jpg,GCNB,Press J if the face is NONBINARY and K if the face is GENDER-CONFORMING,Gender-conforming means that the face appears to be a typical example of its gender. Nonbinary means that the face does not conform to any particular gender norms.,KJ,,,,,,,,,,,,,,,,,,,,,,,,,,,,,,,,,,,,,,,6,1.3012,,,,,,,,,,,,,,,,,,,,,,,,,space,0.5313,0,89,89,15,1,,,,,,,,,,,,,,,,,,,,,,,,,,,,,,,,,,,,,,,,,,,,,,,,,,,,,,,,,,,,,,,,,,,,,,,,,,,,,
,,1510,001,2023-03-30_06h48.13.451,fluency,2022.2.5,Win32,58.99008966,,,,,,,,,,,,,,,,,,,,,,,,,,,,,,,,,,,,,,,,,,,,,,,,,,,,,,,,,,,,,7,,,,,,,,,,,,,,,,,,,,,,,,,,,,k,,,,,,0,0,0,0,1,0.9183,,,,,,,,,,,,,,,,,,,,,,,,,,,,,,,,,,,,,,,,,,,,,,,,,,,,,,,,,,,,,,,,,,,,,,,,,,,,,,,,,,,,
,,1510,001,2023-03-30_06h48.13.451,fluency,2022.2.5,Win32,58.99008966,,,,,,,,,,,,,,,,,,,,,,,,,,,,,,2,9,img/B09_02.jpg,GCNB,Press J if the face is NONBINARY and K if the face is GENDER-CONFORMING,Gender-conforming means that the face appears to be a typical example of its gender. Nonbinary means that the face does not conform to any particular gender norms.,KJ,,,,,,,,,,,,,,,,,,,,,,,,,,,,,,,,,,,,,,,6,1.2459,,,,,,,,,,,,,,,,,,,,,,,,,space,2.2808,0,90,90,90,1,,,,,,,,,,,,,,,,,,,,,,,,,,,,,,,,,,,,,,,,,,,,,,,,,,,,,,,,,,,,,,,,,,,,,,,,,,,,,
,,1510,001,2023-03-30_06h48.13.451,fluency,2022.2.5,Win32,58.99008966,,,,,,,,,,,,,,,,,,,,,,,,,,,,,,,,,,,,,,,,,,,,,,,,,,,,,,,,,,,,,7,,,,,,,,,,,,,,,,,,,,,,,,,,,,k,,,,,,0,0,0,0,1,1.1622,,,,,,,,,,,,,,,,,,,,,,,,,,,,,,,,,,,,,,,,,,,,,,,,,,,,,,,,,,,,,,,,,,,,,,,,,,,,,,,,,,,,
,,1510,001,2023-03-30_06h48.13.451,fluency,2022.2.5,Win32,58.99008966,,,,,,,,,,,,,,,,,,,,,,,,,,,,,,7,3,img/B03_07.jpg,GCNB,Press J if the face is NONBINARY and K if the face is GENDER-CONFORMING,Gender-conforming means that the face appears to be a typical example of its gender. Nonbinary means that the face does not conform to any particular gender norms.,KJ,,,,,,,,,,,,,,,,,,,,,,,,,,,,,,,,,,,,,,,8,1.073,,,,,,,,,,,,,,,,,,,,,,,,,space,0.4007,0,91,91,29,1,,,,,,,,,,,,,,,,,,,,,,,,,,,,,,,,,,,,,,,,,,,,,,,,,,,,,,,,,,,,,,,,,,,,,,,,,,,,,
,,1510,001,2023-03-30_06h48.13.451,fluency,2022.2.5,Win32,58.99008966,,,,,,,,,,,,,,,,,,,,,,,,,,,,,,,,,,,,,,,,,,,,,,,,,,,,,,,,,,,,,7,,,,,,,,,,,,,,,,,,,,,,,,,,,,k,,,,,,0,0,0,0,1,0.9119,,,,,,,,,,,,,,,,,,,,,,,,,,,,,,,,,,,,,,,,,,,,,,,,,,,,,,,,,,,,,,,,,,,,,,,,,,,,,,,,,,,,
,,1510,001,2023-03-30_06h48.13.451,fluency,2022.2.5,Win32,58.99008966,,,,,,,,,,,,,,,,,,,,,,,,,,,,,,9,5,img/B05_09.jpg,GCNB,Press J if the face is NONBINARY and K if the face is GENDER-CONFORMING,Gender-conforming means that the face appears to be a typical example of its gender. Nonbinary means that the face does not conform to any particular gender norms.,KJ,,,,,,,,,,,,,,,,,,,,,,,,,,,,,,,,,,,,,,,8,0.9882,,,,,,,,,,,,,,,,,,,,,,,,,space,0.6312,0,92,92,53,1,,,,,,,,,,,,,,,,,,,,,,,,,,,,,,,,,,,,,,,,,,,,,,,,,,,,,,,,,,,,,,,,,,,,,,,,,,,,,
,,1510,001,2023-03-30_06h48.13.451,fluency,2022.2.5,Win32,58.99008966,,,,,,,,,,,,,,,,,,,,,,,,,,,,,,,,,,,,,,,,,,,,,,,,,,,,,,,,,,,,,7,,,,,,,,,,,,,,,,,,,,,,,,,,,,k,,,,,,0,0,0,0,1,1.7744,,,,,,,,,,,,,,,,,,,,,,,,,,,,,,,,,,,,,,,,,,,,,,,,,,,,,,,,,,,,,,,,,,,,,,,,,,,,,,,,,,,,
,,1510,001,2023-03-30_06h48.13.451,fluency,2022.2.5,Win32,58.99008966,,,,,,,,,,,,,,,,,,,,,,,,,,,,,,7,6,img/B06_07.jpg,GCNB,Press J if the face is NONBINARY and K if the face is GENDER-CONFORMING,Gender-conforming means that the face appears to be a typical example of its gender. Nonbinary means that the face does not conform to any particular gender norms.,KJ,,,,,,,,,,,,,,,,,,,,,,,,,,,,,,,,,,,,,,,8,1.0399,,,,,,,,,,,,,,,,,,,,,,,,,space,0.3676,0,93,93,62,1,,,,,,,,,,,,,,,,,,,,,,,,,,,,,,,,,,,,,,,,,,,,,,,,,,,,,,,,,,,,,,,,,,,,,,,,,,,,,
,,1510,001,2023-03-30_06h48.13.451,fluency,2022.2.5,Win32,58.99008966,,,,,,,,,,,,,,,,,,,,,,,,,,,,,,,,,,,,,,,,,,,,,,,,,,,,,,,,,,,,,7,,,,,,,,,,,,,,,,,,,,,,,,,,,,k,,,,,,0,0,0,0,1,1.3119,,,,,,,,,,,,,,,,,,,,,,,,,,,,,,,,,,,,,,,,,,,,,,,,,,,,,,,,,,,,,,,,,,,,,,,,,,,,,,,,,,,,
,,1510,001,2023-03-30_06h48.13.451,fluency,2022.2.5,Win32,58.99008966,,,,,,,,,,,,,,,,,,,,,,,,,,,,,,10,2,img/B02_10.jpg,GCNB,Press J if the face is NONBINARY and K if the face is GENDER-CONFORMING,Gender-conforming means that the face appears to be a typical example of its gender. Nonbinary means that the face does not conform to any particular gender norms.,KJ,,,,,,,,,,,,,,,,,,,,,,,,,,,,,,,,,,,,,,,8,0.9756,,,,,,,,,,,,,,,,,,,,,,,,,space,0.4812,0,94,94,21,1,,,,,,,,,,,,,,,,,,,,,,,,,,,,,,,,,,,,,,,,,,,,,,,,,,,,,,,,,,,,,,,,,,,,,,,,,,,,,
,,1510,001,2023-03-30_06h48.13.451,fluency,2022.2.5,Win32,58.99008966,,,,,,,,,,,,,,,,,,,,,,,,,,,,,,,,,,,,,,,,,,,,,,,,,,,,,,,,,,,,,7,,,,,,,,,,,,,,,,,,,,,,,,,,,,k,,,,,,0,0,0,0,1,0.8152,,,,,,,,,,,,,,,,,,,,,,,,,,,,,,,,,,,,,,,,,,,,,,,,,,,,,,,,,,,,,,,,,,,,,,,,,,,,,,,,,,,,
,,1510,001,2023-03-30_06h48.13.451,fluency,2022.2.5,Win32,58.99008966,,,,,,,,,,,,,,,,,,,,,,,,,,,,,,2,1,img/B01_02.jpg,GCNB,Press J if the face is NONBINARY and K if the face is GENDER-CONFORMING,Gender-conforming means that the face appears to be a typical example of its gender. Nonbinary means that the face does not conform to any particular gender norms.,KJ,,,,,,,,,,,,,,,,,,,,,,,,,,,,,,,,,,,,,,,5,0.5923,,,,,,,,,,,,,,,,,,,,,,,,,space,0.7142,0,95,95,2,1,,,,,,,,,,,,,,,,,,,,,,,,,,,,,,,,,,,,,,,,,,,,,,,,,,,,,,,,,,,,,,,,,,,,,,,,,,,,,
,,1510,001,2023-03-30_06h48.13.451,fluency,2022.2.5,Win32,58.99008966,,,,,,,,,,,,,,,,,,,,,,,,,,,,,,,,,,,,,,,,,,,,,,,,,,,,,,,,,,,,,7,,,,,,,,,,,,,,,,,,,,,,,,,,,,k,,,,,,0,0,0,0,1,1.6296,,,,,,,,,,,,,,,,,,,,,,,,,,,,,,,,,,,,,,,,,,,,,,,,,,,,,,,,,,,,,,,,,,,,,,,,,,,,,,,,,,,,
,,1510,001,2023-03-30_06h48.13.451,fluency,2022.2.5,Win32,58.99008966,,,,,,,,,,,,,,,,,,,,,,,,,,,,,,0,10,img/B10_00.jpg,GCNB,Press J if the face is NONBINARY and K if the face is GENDER-CONFORMING,Gender-conforming means that the face appears to be a typical example of its gender. Nonbinary means that the face does not conform to any particular gender norms.,KJ,,,,,,,,,,,,,,,,,,,,,,,,,,,,,,,,,,,,,,,6,1.1899,,,,,,,,,,,,,,,,,,,,,,,,,space,0.3843,0,96,96,99,1,,,,,,,,,,,,,,,,,,,,,,,,,,,,,,,,,,,,,,,,,,,,,,,,,,,,,,,,,,,,,,,,,,,,,,,,,,,,,
,,1510,001,2023-03-30_06h48.13.451,fluency,2022.2.5,Win32,58.99008966,,,,,,,,,,,,,,,,,,,,,,,,,,,,,,,,,,,,,,,,,,,,,,,,,,,,,,,,,,,,,7,,,,,,,,,,,,,,,,,,,,,,,,,,,,k,,,,,,0,0,0,0,1,0.7985,,,,,,,,,,,,,,,,,,,,,,,,,,,,,,,,,,,,,,,,,,,,,,,,,,,,,,,,,,,,,,,,,,,,,,,,,,,,,,,,,,,,
,,1510,001,2023-03-30_06h48.13.451,fluency,2022.2.5,Win32,58.99008966,,,,,,,,,,,,,,,,,,,,,,,,,,,,,,1,9,img/B09_01.jpg,GCNB,Press J if the face is NONBINARY and K if the face is GENDER-CONFORMING,Gender-conforming means that the face appears to be a typical example of its gender. Nonbinary means that the face does not conform to any particular gender norms.,KJ,,,,,,,,,,,,,,,,,,,,,,,,,,,,,,,,,,,,,,,5,0.4738,,,,,,,,,,,,,,,,,,,,,,,,,space,0.4214,0,97,97,89,1,,,,,,,,,,,,,,,,,,,,,,,,,,,,,,,,,,,,,,,,,,,,,,,,,,,,,,,,,,,,,,,,,,,,,,,,,,,,,
,,1510,001,2023-03-30_06h48.13.451,fluency,2022.2.5,Win32,58.99008966,,,,,,,,,,,,,,,,,,,,,,,,,,,,,,,,,,,,,,,,,,,,,,,,,,,,,,,,,,,,,7,,,,,,,,,,,,,,,,,,,,,,,,,,,,k,,,,,,0,0,0,0,1,0.8912,,,,,,,,,,,,,,,,,,,,,,,,,,,,,,,,,,,,,,,,,,,,,,,,,,,,,,,,,,,,,,,,,,,,,,,,,,,,,,,,,,,,
,,1510,001,2023-03-30_06h48.13.451,fluency,2022.2.5,Win32,58.99008966,,,,,,,,,,,,,,,,,,,,,,,,,,,,,,0,2,img/B02_00.jpg,GCNB,Press J if the face is NONBINARY and K if the face is GENDER-CONFORMING,Gender-conforming means that the face appears to be a typical example of its gender. Nonbinary means that the face does not conform to any particular gender norms.,KJ,,,,,,,,,,,,,,,,,,,,,,,,,,,,,,,,,,,,,,,4,0.4478,,,,,,,,,,,,,,,,,,,,,,,,,space,0.4507,0,98,98,11,1,,,,,,,,,,,,,,,,,,,,,,,,,,,,,,,,,,,,,,,,,,,,,,,,,,,,,,,,,,,,,,,,,,,,,,,,,,,,,
,,1510,001,2023-03-30_06h48.13.451,fluency,2022.2.5,Win32,58.99008966,,,,,,,,,,,,,,,,,,,,,,,,,,,,,,,,,,,,,,,,,,,,,,,,,,,,,,,,,,,,,7,,,,,,,,,,,,,,,,,,,,,,,,,,,,k,,,,,,0,0,0,0,1,1.3448,,,,,,,,,,,,,,,,,,,,,,,,,,,,,,,,,,,,,,,,,,,,,,,,,,,,,,,,,,,,,,,,,,,,,,,,,,,,,,,,,,,,
,,1510,001,2023-03-30_06h48.13.451,fluency,2022.2.5,Win32,58.99008966,,,,,,,,,,,,,,,,,,,,,,,,,,,,,,5,5,img/B05_05.jpg,GCNB,Press J if the face is NONBINARY and K if the face is GENDER-CONFORMING,Gender-conforming means that the face appears to be a typical example of its gender. Nonbinary means that the face does not conform to any particular gender norms.,KJ,,,,,,,,,,,,,,,,,,,,,,,,,,,,,,,,,,,,,,,7,1.145,,,,,,,,,,,,,,,,,,,,,,,,,space,0.4172,0,99,99,49,1,,,,,,,,,,,,,,,,,,,,,,,,,,,,,,,,,,,,,,,,,,,,,,,,,,,,,,,,,,,,,,,,,,,,,,,,,,,,,
,,1510,001,2023-03-30_06h48.13.451,fluency,2022.2.5,Win32,58.99008966,,,,,,,,,,,,,,,,,,,,,,,,,,,,,,,,,,,,,,,,,,,,,,,,,,,,,,,,,,,,,7,,,,,,,,,,,,,,,,,,,,,,,,,,,,j,,,,,,0,0,0,0,1,1.6069,,,,,,,,,,,,,,,,,,,,,,,,,,,,,,,,,,,,,,,,,,,,,,,,,,,,,,,,,,,,,,,,,,,,,,,,,,,,,,,,,,,,
,,1510,001,2023-03-30_06h48.13.451,fluency,2022.2.5,Win32,58.99008966,,,,,,,,,,,,,,,,,,,,,,,,,,,,,,4,8,img/B08_04.jpg,GCNB,Press J if the face is NONBINARY and K if the face is GENDER-CONFORMING,Gender-conforming means that the face appears to be a typical example of its gender. Nonbinary means that the face does not conform to any particular gender norms.,KJ,,,,,,,,,,,,,,,,,,,,,,,,,,,,,,,,,,,,,,,4,1.2558,,,,,,,,,,,,,,,,,,,,,,,,,space,0.5749,0,100,100,81,1,,,,,,,,,,,,,,,,,,,,,,,,,,,,,,,,,,,,,,,,,,,,,,,,,,,,,,,,,,,,,,,,,,,,,,,,,,,,,
,,1510,001,2023-03-30_06h48.13.451,fluency,2022.2.5,Win32,58.99008966,,,,,,,,,,,,,,,,,,,,,,,,,,,,,,,,,,,,,,,,,,,,,,,,,,,,,,,,,,,,,7,,,,,,,,,,,,,,,,,,,,,,,,,,,,j,,,,,,0,0,0,0,1,1.3748,,,,,,,,,,,,,,,,,,,,,,,,,,,,,,,,,,,,,,,,,,,,,,,,,,,,,,,,,,,,,,,,,,,,,,,,,,,,,,,,,,,,
,,1510,001,2023-03-30_06h48.13.451,fluency,2022.2.5,Win32,58.99008966,,,,,,,,,,,,,,,,,,,,,,,,,,,,,,3,8,img/B08_03.jpg,GCNB,Press J if the face is NONBINARY and K if the face is GENDER-CONFORMING,Gender-conforming means that the face appears to be a typical example of its gender. Nonbinary means that the face does not conform to any particular gender norms.,KJ,,,,,,,,,,,,,,,,,,,,,,,,,,,,,,,,,,,,,,,4,0.5564,,,,,,,,,,,,,,,,,,,,,,,,,space,0.4391,0,101,101,80,1,,,,,,,,,,,,,,,,,,,,,,,,,,,,,,,,,,,,,,,,,,,,,,,,,,,,,,,,,,,,,,,,,,,,,,,,,,,,,
,,1510,001,2023-03-30_06h48.13.451,fluency,2022.2.5,Win32,58.99008966,,,,,,,,,,,,,,,,,,,,,,,,,,,,,,,,,,,,,,,,,,,,,,,,,,,,,,,,,,,,,7,,,,,,,,,,,,,,,,,,,,,,,,,,,,k,,,,,,0,0,0,0,1,1.4446,,,,,,,,,,,,,,,,,,,,,,,,,,,,,,,,,,,,,,,,,,,,,,,,,,,,,,,,,,,,,,,,,,,,,,,,,,,,,,,,,,,,
,,1510,001,2023-03-30_06h48.13.451,fluency,2022.2.5,Win32,58.99008966,,,,,,,,,,,,,,,,,,,,,,,,,,,,,,10,10,img/B10_10.jpg,GCNB,Press J if the face is NONBINARY and K if the face is GENDER-CONFORMING,Gender-conforming means that the face appears to be a typical example of its gender. Nonbinary means that the face does not conform to any particular gender norms.,KJ,,,,,,,,,,,,,,,,,,,,,,,,,,,,,,,,,,,,,,,6,0.8269,,,,,,,,,,,,,,,,,,,,,,,,,space,0.4382,0,102,102,109,1,,,,,,,,,,,,,,,,,,,,,,,,,,,,,,,,,,,,,,,,,,,,,,,,,,,,,,,,,,,,,,,,,,,,,,,,,,,,,
,,1510,001,2023-03-30_06h48.13.451,fluency,2022.2.5,Win32,58.99008966,,,,,,,,,,,,,,,,,,,,,,,,,,,,,,,,,,,,,,,,,,,,,,,,,,,,,,,,,,,,,7,,,,,,,,,,,,,,,,,,,,,,,,,,,,k,,,,,,0,0,0,0,1,0.9351,,,,,,,,,,,,,,,,,,,,,,,,,,,,,,,,,,,,,,,,,,,,,,,,,,,,,,,,,,,,,,,,,,,,,,,,,,,,,,,,,,,,
,,1510,001,2023-03-30_06h48.13.451,fluency,2022.2.5,Win32,58.99008966,,,,,,,,,,,,,,,,,,,,,,,,,,,,,,3,4,img/B04_03.jpg,GCNB,Press J if the face is NONBINARY and K if the face is GENDER-CONFORMING,Gender-conforming means that the face appears to be a typical example of its gender. Nonbinary means that the face does not conform to any particular gender norms.,KJ,,,,,,,,,,,,,,,,,,,,,,,,,,,,,,,,,,,,,,,6,0.5233,,,,,,,,,,,,,,,,,,,,,,,,,space,0.517,0,103,103,36,1,,,,,,,,,,,,,,,,,,,,,,,,,,,,,,,,,,,,,,,,,,,,,,,,,,,,,,,,,,,,,,,,,,,,,,,,,,,,,
,,1510,001,2023-03-30_06h48.13.451,fluency,2022.2.5,Win32,58.99008966,,,,,,,,,,,,,,,,,,,,,,,,,,,,,,,,,,,,,,,,,,,,,,,,,,,,,,,,,,,,,7,,,,,,,,,,,,,,,,,,,,,,,,,,,,k,,,,,,0,0,0,0,1,1.2288,,,,,,,,,,,,,,,,,,,,,,,,,,,,,,,,,,,,,,,,,,,,,,,,,,,,,,,,,,,,,,,,,,,,,,,,,,,,,,,,,,,,
,,1510,001,2023-03-30_06h48.13.451,fluency,2022.2.5,Win32,58.99008966,,,,,,,,,,,,,,,,,,,,,,,,,,,,,,3,3,img/B03_03.jpg,GCNB,Press J if the face is NONBINARY and K if the face is GENDER-CONFORMING,Gender-conforming means that the face appears to be a typical example of its gender. Nonbinary means that the face does not conform to any particular gender norms.,KJ,,,,,,,,,,,,,,,,,,,,,,,,,,,,,,,,,,,,,,,5,0.6432,,,,,,,,,,,,,,,,,,,,,,,,,space,0.5841,0,104,104,25,1,,,,,,,,,,,,,,,,,,,,,,,,,,,,,,,,,,,,,,,,,,,,,,,,,,,,,,,,,,,,,,,,,,,,,,,,,,,,,
,,1510,001,2023-03-30_06h48.13.451,fluency,2022.2.5,Win32,58.99008966,,,,,,,,,,,,,,,,,,,,,,,,,,,,,,,,,,,,,,,,,,,,,,,,,,,,,,,,,,,,,7,,,,,,,,,,,,,,,,,,,,,,,,,,,,j,,,,,,0,0,0,0,1,1.0787,,,,,,,,,,,,,,,,,,,,,,,,,,,,,,,,,,,,,,,,,,,,,,,,,,,,,,,,,,,,,,,,,,,,,,,,,,,,,,,,,,,,
,,1510,001,2023-03-30_06h48.13.451,fluency,2022.2.5,Win32,58.99008966,,,,,,,,,,,,,,,,,,,,,,,,,,,,,,7,9,img/B09_07.jpg,GCNB,Press J if the face is NONBINARY and K if the face is GENDER-CONFORMING,Gender-conforming means that the face appears to be a typical example of its gender. Nonbinary means that the face does not conform to any particular gender norms.,KJ,,,,,,,,,,,,,,,,,,,,,,,,,,,,,,,,,,,,,,,6,1.5758,,,,,,,,,,,,,,,,,,,,,,,,,space,0.4439,0,105,105,95,1,,,,,,,,,,,,,,,,,,,,,,,,,,,,,,,,,,,,,,,,,,,,,,,,,,,,,,,,,,,,,,,,,,,,,,,,,,,,,
,,1510,001,2023-03-30_06h48.13.451,fluency,2022.2.5,Win32,58.99008966,,,,,,,,,,,,,,,,,,,,,,,,,,,,,,,,,,,,,,,,,,,,,,,,,,,,,,,,,,,,,7,,,,,,,,,,,,,,,,,,,,,,,,,,,,k,,,,,,0,0,0,0,1,1.1449,,,,,,,,,,,,,,,,,,,,,,,,,,,,,,,,,,,,,,,,,,,,,,,,,,,,,,,,,,,,,,,,,,,,,,,,,,,,,,,,,,,,
,,1510,001,2023-03-30_06h48.13.451,fluency,2022.2.5,Win32,58.99008966,,,,,,,,,,,,,,,,,,,,,,,,,,,,,,3,1,img/B01_03.jpg,GCNB,Press J if the face is NONBINARY and K if the face is GENDER-CONFORMING,Gender-conforming means that the face appears to be a typical example of its gender. Nonbinary means that the face does not conform to any particular gender norms.,KJ,,,,,,,,,,,,,,,,,,,,,,,,,,,,,,,,,,,,,,,6,1.5233,,,,,,,,,,,,,,,,,,,,,,,,,space,1.4142,0,106,106,3,1,,,,,,,,,,,,,,,,,,,,,,,,,,,,,,,,,,,,,,,,,,,,,,,,,,,,,,,,,,,,,,,,,,,,,,,,,,,,,
,,1510,001,2023-03-30_06h48.13.451,fluency,2022.2.5,Win32,58.99008966,,,,,,,,,,,,,,,,,,,,,,,,,,,,,,,,,,,,,,,,,,,,,,,,,,,,,,,,,,,,,7,,,,,,,,,,,,,,,,,,,,,,,,,,,,k,,,,,,0,0,0,0,1,0.7332,,,,,,,,,,,,,,,,,,,,,,,,,,,,,,,,,,,,,,,,,,,,,,,,,,,,,,,,,,,,,,,,,,,,,,,,,,,,,,,,,,,,
,,1510,001,2023-03-30_06h48.13.451,fluency,2022.2.5,Win32,58.99008966,,,,,,,,,,,,,,,,,,,,,,,,,,,,,,3,6,img/B06_03.jpg,GCNB,Press J if the face is NONBINARY and K if the face is GENDER-CONFORMING,Gender-conforming means that the face appears to be a typical example of its gender. Nonbinary means that the face does not conform to any particular gender norms.,KJ,,,,,,,,,,,,,,,,,,,,,,,,,,,,,,,,,,,,,,,6,0.5559,,,,,,,,,,,,,,,,,,,,,,,,,space,0.4873,0,107,107,58,1,,,,,,,,,,,,,,,,,,,,,,,,,,,,,,,,,,,,,,,,,,,,,,,,,,,,,,,,,,,,,,,,,,,,,,,,,,,,,
,,1510,001,2023-03-30_06h48.13.451,fluency,2022.2.5,Win32,58.99008966,,,,,,,,,,,,,,,,,,,,,,,,,,,,,,,,,,,,,,,,,,,,,,,,,,,,,,,,,,,,,7,,,,,,,,,,,,,,,,,,,,,,,,,,,,k,,,,,,0,0,0,0,1,1.0581,,,,,,,,,,,,,,,,,,,,,,,,,,,,,,,,,,,,,,,,,,,,,,,,,,,,,,,,,,,,,,,,,,,,,,,,,,,,,,,,,,,,
,,1510,001,2023-03-30_06h48.13.451,fluency,2022.2.5,Win32,58.99008966,,,,,,,,,,,,,,,,,,,,,,,,,,,,,,10,5,img/B05_10.jpg,GCNB,Press J if the face is NONBINARY and K if the face is GENDER-CONFORMING,Gender-conforming means that the face appears to be a typical example of its gender. Nonbinary means that the face does not conform to any particular gender norms.,KJ,,,,,,,,,,,,,,,,,,,,,,,,,,,,,,,,,,,,,,,7,0.7447,,,,,,,,,,,,,,,,,,,,,,,,,space,0.4204,0,108,108,54,1,,,,,,,,,,,,,,,,,,,,,,,,,,,,,,,,,,,,,,,,,,,,,,,,,,,,,,,,,,,,,,,,,,,,,,,,,,,,,
,,1510,001,2023-03-30_06h48.13.451,fluency,2022.2.5,Win32,58.99008966,,,,,,,,,,,,,,,,,,,,,,,,,,,,,,,,,,,,,,,,,,,,,,,,,,,,,,,,,,,,,7,,,,,,,,,,,,,,,,,,,,,,,,,,,,k,,,,,,0,0,0,0,1,0.7248,,,,,,,,,,,,,,,,,,,,,,,,,,,,,,,,,,,,,,,,,,,,,,,,,,,,,,,,,,,,,,,,,,,,,,,,,,,,,,,,,,,,
,,1510,001,2023-03-30_06h48.13.451,fluency,2022.2.5,Win32,58.99008966,,,,,,,,,,,,,,,,,,,,,,,,,,,,,,2,10,img/B10_02.jpg,GCNB,Press J if the face is NONBINARY and K if the face is GENDER-CONFORMING,Gender-conforming means that the face appears to be a typical example of its gender. Nonbinary means that the face does not conform to any particular gender norms.,KJ,,,,,,,,,,,,,,,,,,,,,,,,,,,,,,,,,,,,,,,6,0.4423,,,,,,,,,,,,,,,,,,,,,,,,,space,0.7336,0,109,109,101,1,,,,,,,,,,,,,,,,,,,,,,,,,,,,,,,,,,,,,,,,,,,,,,,,,,,,,,,,,,,,,,,,,,,,,,,,,,,,,
,,1510,001,2023-03-30_06h48.13.451,fluency,2022.2.5,Win32,58.99008966,,,,,,,,,,,,,,,,,,,,,,,,,,,,,,,,,,,,,,,,,,,,,,,,,,,,,,,,,,,,,,,,,,,,,,,,,,,,,,,,,,,,,,,,,,,,,,,,,,,,,,,,,,,,space,2.8636,,,,,,,,,,,,,,,,,,,,,,,,,,,,,,,,,,,,,,,,,,,,,,,,,,,,,,,,,,,,,,,,,,,,,,,,,,,
,,1510,001,2023-03-30_06h48.13.451,fluency,2022.2.5,Win32,58.99008966,,,,,,,,,,,,,,,,,,,,,,,,,,,,,,,,,,,,,,,,,,,,,,,,,,,,,,,,,,,,,,,,,,,,,,,,,,,,,,,,,,,,,,,,,,,,,,,,,,,,,,,,,,,,,,5,5.9057,4,8.7156,5,10.8158,4,13.8328,0.087037051,-0.35092594,1,0,0,nextButton1,,,,,,,,,,,,,,,,,,,,,,,,,,,,,,,,,,,,,,,,,,,,,,,,,,,,,,,,,,,,,
,,1510,001,2023-03-30_06h48.13.451,fluency,2022.2.5,Win32,58.99008966,,,,,,,,,,,,,,,,,,,,,,,,,,,,,,,,,,,,,,,,,,,,,,,,,,,,,,,,,,,,,,,,,,,,,,,,,,,,,,,,,,,,,,,,,,,,,,,,,,,,,,,,,,,,,,,,,,,,,,,,,,,,3,4.7046,5,7.1111,5,11.6538,4,18.9583,0.056481467,-0.344444487,1,0,0,nextButton2,,,,,,,,,,,,,,,,,,,,,,,,,,,,,,,,,,,,,,,,,,,,,,,
