idTextbox.text,welcomeDone.numClicks,welcomeDone.timesOn,welcomeDone.timesOff,participant,session,date,expName,psychopyVersion,OS,frameRate,consent_advance.keys,consent_advance.rt,consent_advance_2.keys,consent_advance_2.rt,consentClick.x,consentClick.y,consentClick.leftButton,consentClick.midButton,consentClick.rightButton,consentClick.time,consentClick.clicked_name,instr_advance_3.keys,instr_advance_3.rt,spec_instr_adv.keys,spec_instr_adv.rt,spec_instr_adv2.keys,spec_instr_adv2.rt,instrLoop.thisRepN,instrLoop.thisTrialN,instrLoop.thisN,instrLoop.thisIndex,instrLoop.ran,steps,fams,face_file,cond,instr,term,key_map,attnKeyResp1.keys,attnKeyResp1.rt,q1.thisRepN,q1.thisTrialN,q1.thisN,q1.thisIndex,q1.ran,attnKeyResp2.keys,attnKeyResp2.rt,q2.thisRepN,q2.thisTrialN,q2.thisN,q2.thisIndex,q2.ran,attnKeyResp3.keys,attnKeyResp3.rt,q3.thisRepN,q3.thisTrialN,q3.thisN,q3.thisIndex,q3.ran,practiceStart.keys,practiceStart.rt,practiceResp.keys,practiceResp.rt,timesRedone,practiceRepeat.thisRepN,practiceRepeat.thisTrialN,practiceRepeat.thisN,practiceRepeat.thisIndex,practiceRepeat.ran,attrRating.keys,attrRating.rt,practiceTrial.thisRepN,practiceTrial.thisTrialN,practiceTrial.thisN,practiceTrial.thisIndex,practiceTrial.ran,key_resp_3.keys,key_resp_3.rt,attnChecker.thisRepN,attnChecker.thisTrialN,attnChecker.thisN,attnChecker.thisIndex,attnChecker.ran,faceOnsetTime,trials.thisRepN,trials.thisTrialN,trials.thisN,trials.thisIndex,trials.ran,trials.order,repeat_loop.thisRepN,repeat_loop.thisTrialN,repeat_loop.thisN,repeat_loop.thisIndex,repeat_loop.ran,repeat_loop.order,catResp.keys,catResp.rt,globalTimesRedone,catAllKeys.keys,catAllKeys.rt,contResp.keys,contResp.rt,redo_keypress.keys,redo_keypress.rt,redo_feedback_loop.thisRepN,redo_feedback_loop.thisTrialN,redo_feedback_loop.thisN,redo_feedback_loop.thisIndex,redo_feedback_loop.ran,contResp_2.keys,contResp_2.rt,respQ1.response,respQ1.rt,respQ2.response,respQ2.rt,respQ3.response,respQ3.rt,respQ4.response,respQ4.rt,surveyContinue1.numClicks,surveyContinue1.timesOn,surveyContinue1.timesOff,respQ5.response,respQ5.rt,respQ6.response,respQ6.rt,respQ7.response,respQ7.rt,respQ8.response,respQ8.rt,surveyContinue2.numClicks,surveyContinue2.timesOn,surveyContinue2.timesOff,respQ9.response,respQ9.rt,respQ10.response,respQ10.rt,respQ11.response,respQ11.rt,respQ12.response,respQ12.rt,surveyContinue3.numClicks,surveyContinue3.timesOn,surveyContinue3.timesOff,respQ13.response,respQ13.rt,respQ14.response,respQ14.rt,respQ15.response,respQ15.rt,surveyContinue4.numClicks,surveyContinue4.timesOn,surveyContinue4.timesOff,respAge.response,respAge.rt,genderResp1.response,genderResp1.rt,genderResp2.text,demogexitClick.numClicks,demogexitClick.timesOn,demogexitClick.timesOff,textbox.text,openAnswerClick.numClicks,openAnswerClick.timesOn,openAnswerClick.timesOff,debriefEnd.keys,debriefEnd.rt,exitKey.keys,exitKey.rt
610b51987e8addaf0a6768b2,1,[86.76159999990463],[86.76159999990463],515930,001,2023-10-10_01h52.28.639,fluency,2022.2.4,Win32,59.50255861,,,,,,,,,,,,,,,,,,,,,,,,,,,,,,,,,,,,,,,,,,,,,,,,,,,,,,,,,,,,,,,,,,,,,,,,,,,,,,,,,,,,,,,,,,,,,,,,,,,,,,,,,,,,,,,,,,,,,,,,,,,,,,,,,,,,,,,,,,,,,,,,,,,,,,,,,,,,,,,,,
,,,,515930,001,2023-10-10_01h52.28.639,fluency,2022.2.4,Win32,59.50255861,space,40.8036,,,,,,,,,,,,,,,,,,,,,,,,,,,,,,,,,,,,,,,,,,,,,,,,,,,,,,,,,,,,,,,,,,,,,,,,,,,,,,,,,,,,,,,,,,,,,,,,,,,,,,,,,,,,,,,,,,,,,,,,,,,,,,,,,,,,,,,,,,,,,,,,,,,,,,,,,,,,,,,
,,,,515930,001,2023-10-10_01h52.28.639,fluency,2022.2.4,Win32,59.50255861,,,space,47.5855,,,,,,,,,,,,,,,,,,,,,,,,,,,,,,,,,,,,,,,,,,,,,,,,,,,,,,,,,,,,,,,,,,,,,,,,,,,,,,,,,,,,,,,,,,,,,,,,,,,,,,,,,,,,,,,,,,,,,,,,,,,,,,,,,,,,,,,,,,,,,,,,,,,,,,,,,,,,,
,,,,515930,001,2023-10-10_01h52.28.639,fluency,2022.2.4,Win32,59.50255861,,,,,0.341001353,-0.201217878,1,0,0,72.6627,iAgree,,,,,,,,,,,,,,,,,,,,,,,,,,,,,,,,,,,,,,,,,,,,,,,,,,,,,,,,,,,,,,,,,,,,,,,,,,,,,,,,,,,,,,,,,,,,,,,,,,,,,,,,,,,,,,,,,,,,,,,,,,,,,,,,,,,,,,,,,,,,,,,,,,,,,,
,,,,515930,001,2023-10-10_01h52.28.639,fluency,2022.2.4,Win32,59.50255861,,,,,,,,,,,,space,23.6207,,,,,,,,,,,,,,,,,,,,,,,,,,,,,,,,,,,,,,,,,,,,,,,,,,,,,,,,,,,,,,,,,,,,,,,,,,,,,,,,,,,,,,,,,,,,,,,,,,,,,,,,,,,,,,,,,,,,,,,,,,,,,,,,,,,,,,,,,,,,,,,,,,,,
,,,,515930,001,2023-10-10_01h52.28.639,fluency,2022.2.4,Win32,59.50255861,,,,,,,,,,,,,,space,52.8621,space,10.1417,0,0,0,28,1,6,3,img/B03_06.jpg,GCNB,Press J if the face is GENDER-CONFORMING and K if the face is NONBINARY,Gender-conforming means that the face appears to be a typical example of its gender. Nonbinary means that the face does not conform to any particular gender norms.,JK,,,,,,,,,,,,,,,,,,,,,,,,,,,,,,,,,,,,,,,,,,,,,,,,,,,,,,,,,,,,,,,,,,,,,,,,,,,,,,,,,,,,,,,,,,,,,,,,,,,,,,,,,,,,,,,,,,,,,,,,,,,,,,,,,,,,
,,,,515930,001,2023-10-10_01h52.28.639,fluency,2022.2.4,Win32,59.50255861,,,,,,,,,,,,,,,,,,,,,,,,,,,,,,c,9.6801,0,0,0,0,1,,,,,,,,,,,,,,,,,,,,,,,,,,,,,,,,,,,,,,,,,,,,,,,,,,,,,,,,,,,,,,,,,,,,,,,,,,,,,,,,,,,,,,,,,,,,,,,,,,,,,,,,,,,,,,,,,,,,,,,,,,,,,
,,,,515930,001,2023-10-10_01h52.28.639,fluency,2022.2.4,Win32,59.50255861,,,,,,,,,,,,,,,,,,,,,,,,,,,,,,,,,,,,,a,5.4328,0,0,0,0,1,,,,,,,,,,,,,,,,,,,,,,,,,,,,,,,,,,,,,,,,,,,,,,,,,,,,,,,,,,,,,,,,,,,,,,,,,,,,,,,,,,,,,,,,,,,,,,,,,,,,,,,,,,,,,,,,,,,,,,
,,,,515930,001,2023-10-10_01h52.28.639,fluency,2022.2.4,Win32,59.50255861,,,,,,,,,,,,,,,,,,,,,,,,,,,,,,,,,,,,,,,,,,,,c,8.3965,0,0,0,0,1,,,,,,,,,,,,,,,,,,,,,,,,,,,,,,,,,,,,,,,,,,,,,,,,,,,,,,,,,,,,,,,,,,,,,,,,,,,,,,,,,,,,,,,,,,,,,,,,,,,,,,,,,,,,,,,
,,,,515930,001,2023-10-10_01h52.28.639,fluency,2022.2.4,Win32,59.50255861,,,,,,,,,,,,,,,,,,,,,,,,,,,,,,,,,,,,,,,,,,,,,,,,,,,space,1.7646,j,2.0428,0,0,0,0,0,1,,,,,,,,,,,,,,,,,,,,,,,,,,,,,,,,,,,,,,,,,,,,,,,,,,,,,,,,,,,,,,,,,,,,,,,,,,,,,,,,,,,,,,,,,,,,,,,,,,,,,
,,,,515930,001,2023-10-10_01h52.28.639,fluency,2022.2.4,Win32,59.50255861,,,,,,,,,,,,,,,,,,,,,,,,,,,,,,,,,,,,,,,,,,,,,,,,,,,,,,,,,,,,,4,47.4882,0,0,0,0,1,,,,,,,,,,,,,,,,,,,,,,,,,,,,,,,,,,,,,,,,,,,,,,,,,,,,,,,,,,,,,,,,,,,,,,,,,,,,,,,,,,,,,,,,,,,,,,
,,,,515930,001,2023-10-10_01h52.28.639,fluency,2022.2.4,Win32,59.50255861,,,,,,,,,,,,,,,,,,,,,,,,,,,,,,,,,,,,,,,,,,,,,,,,,,,,,,,,,,,,,,,,,,,,space,12.0402,0,0,0,0,1,,,,,,,,,,,,,,,,,,,,,,,,,,,,,,,,,,,,,,,,,,,,,,,,,,,,,,,,,,,,,,,,,,,,,,,,,,,,,,,,,,,,,,,
,,,,515930,001,2023-10-10_01h52.28.639,fluency,2022.2.4,Win32,59.50255861,,,,,,,,,,,,,,,,,,,,,,,2,8,img/B08_02.jpg,GCNB,Press J if the face is GENDER-CONFORMING and K if the face is NONBINARY,Gender-conforming means that the face appears to be a typical example of its gender. Nonbinary means that the face does not conform to any particular gender norms.,JK,,,,,,,,,,,,,,,,,,,,,,,,,,,,,,,,,,,,,,,,,,,,,,460.0713,0,0,0,79,1,109,0,0,0,0,1,98,,,,,,,,,,,,,,,,,,,,,,,,,,,,,,,,,,,,,,,,,,,,,,,,,,,,,,,,,,,,,,,,,,,,,,,,,,
,,,,515930,001,2023-10-10_01h52.28.639,fluency,2022.2.4,Win32,59.50255861,,,,,,,,,,,,,,,,,,,,,,,,,,,,,,,,,,,,,,,,,,,,,,,,,,,,,,,,,,,,,,,,,,,,,,,,,,,,,,,,,,0,0,0,0,1,,"[""k""]",[1.8640999999046244],0,"[""k""]",[1.863999999999976],,,,,,,,,,,,,,,,,,,,,,,,,,,,,,,,,,,,,,,,,,,,,,,,,,,,,,,,,,,,,,,,,,,,,
,,,,515930,001,2023-10-10_01h52.28.639,fluency,2022.2.4,Win32,59.50255861,,,,,,,,,,,,,,,,,,,,,,,2,8,img/B08_02.jpg,GCNB,Press J if the face is GENDER-CONFORMING and K if the face is NONBINARY,Gender-conforming means that the face appears to be a typical example of its gender. Nonbinary means that the face does not conform to any particular gender norms.,JK,,,,,,,,,,,,,,,,,,,,,,,,,,,,,,,,5,3.4704,,,,,,,,,,,,,,0,0,0,79,1,,,,,,,,,,,,,space,13.1694,,,,,,,,,,,,,,,,,,,,,,,,,,,,,,,,,,,,,,,,,,,,,,,,,,,,,,,,,,,,,,,,,,,
,,,,515930,001,2023-10-10_01h52.28.639,fluency,2022.2.4,Win32,59.50255861,,,,,,,,,,,,,,,,,,,,,,,5,7,img/B07_05.jpg,GCNB,Press J if the face is GENDER-CONFORMING and K if the face is NONBINARY,Gender-conforming means that the face appears to be a typical example of its gender. Nonbinary means that the face does not conform to any particular gender norms.,JK,,,,,,,,,,,,,,,,,,,,,,,,,,,,,,,,,,,,,,,,,,,,,,481.8108,0,1,1,71,1,109,0,0,0,0,1,98,,,,,,,,,,,,,,,,,,,,,,,,,,,,,,,,,,,,,,,,,,,,,,,,,,,,,,,,,,,,,,,,,,,,,,,,,,
,,,,515930,001,2023-10-10_01h52.28.639,fluency,2022.2.4,Win32,59.50255861,,,,,,,,,,,,,,,,,,,,,,,,,,,,,,,,,,,,,,,,,,,,,,,,,,,,,,,,,,,,,,,,,,,,,,,,,,,,,,,,,,0,0,0,0,1,,"[""k""]",[1.518000000000029],0,"[""k""]",[1.518000000000029],,,,,,,,,,,,,,,,,,,,,,,,,,,,,,,,,,,,,,,,,,,,,,,,,,,,,,,,,,,,,,,,,,,,,
,,,,515930,001,2023-10-10_01h52.28.639,fluency,2022.2.4,Win32,59.50255861,,,,,,,,,,,,,,,,,,,,,,,5,7,img/B07_05.jpg,GCNB,Press J if the face is GENDER-CONFORMING and K if the face is NONBINARY,Gender-conforming means that the face appears to be a typical example of its gender. Nonbinary means that the face does not conform to any particular gender norms.,JK,,,,,,,,,,,,,,,,,,,,,,,,,,,,,,,,5,3.9997,,,,,,,,,,,,,,0,1,1,71,1,,,,,,,,,,,,,space,3.3637,,,,,,,,,,,,,,,,,,,,,,,,,,,,,,,,,,,,,,,,,,,,,,,,,,,,,,,,,,,,,,,,,,,
,,,,515930,001,2023-10-10_01h52.28.639,fluency,2022.2.4,Win32,59.50255861,,,,,,,,,,,,,,,,,,,,,,,7,7,img/B07_07.jpg,GCNB,Press J if the face is GENDER-CONFORMING and K if the face is NONBINARY,Gender-conforming means that the face appears to be a typical example of its gender. Nonbinary means that the face does not conform to any particular gender norms.,JK,,,,,,,,,,,,,,,,,,,,,,,,,,,,,,,,,,,,,,,,,,,,,,494.2551,0,2,2,73,1,109,0,0,0,0,1,98,,,,,,,,,,,,,,,,,,,,,,,,,,,,,,,,,,,,,,,,,,,,,,,,,,,,,,,,,,,,,,,,,,,,,,,,,,
,,,,515930,001,2023-10-10_01h52.28.639,fluency,2022.2.4,Win32,59.50255861,,,,,,,,,,,,,,,,,,,,,,,,,,,,,,,,,,,,,,,,,,,,,,,,,,,,,,,,,,,,,,,,,,,,,,,,,,,,,,,,,,0,0,0,0,1,,"[""k""]",[1.1379000000953852],0,"[""k""]",[1.1379000000953852],,,,,,,,,,,,,,,,,,,,,,,,,,,,,,,,,,,,,,,,,,,,,,,,,,,,,,,,,,,,,,,,,,,,,
,,,,515930,001,2023-10-10_01h52.28.639,fluency,2022.2.4,Win32,59.50255861,,,,,,,,,,,,,,,,,,,,,,,7,7,img/B07_07.jpg,GCNB,Press J if the face is GENDER-CONFORMING and K if the face is NONBINARY,Gender-conforming means that the face appears to be a typical example of its gender. Nonbinary means that the face does not conform to any particular gender norms.,JK,,,,,,,,,,,,,,,,,,,,,,,,,,,,,,,,5,3.1418,,,,,,,,,,,,,,0,2,2,73,1,,,,,,,,,,,,,space,3.0151,,,,,,,,,,,,,,,,,,,,,,,,,,,,,,,,,,,,,,,,,,,,,,,,,,,,,,,,,,,,,,,,,,,
,,,,515930,001,2023-10-10_01h52.28.639,fluency,2022.2.4,Win32,59.50255861,,,,,,,,,,,,,,,,,,,,,,,3,8,img/B08_03.jpg,GCNB,Press J if the face is GENDER-CONFORMING and K if the face is NONBINARY,Gender-conforming means that the face appears to be a typical example of its gender. Nonbinary means that the face does not conform to any particular gender norms.,JK,,,,,,,,,,,,,,,,,,,,,,,,,,,,,,,,,,,,,,,,,,,,,,504.5006,0,3,3,80,1,109,0,0,0,0,1,98,,,,,,,,,,,,,,,,,,,,,,,,,,,,,,,,,,,,,,,,,,,,,,,,,,,,,,,,,,,,,,,,,,,,,,,,,,
,,,,515930,001,2023-10-10_01h52.28.639,fluency,2022.2.4,Win32,59.50255861,,,,,,,,,,,,,,,,,,,,,,,,,,,,,,,,,,,,,,,,,,,,,,,,,,,,,,,,,,,,,,,,,,,,,,,,,,,,,,,,,,,,,,,,,,1,,,,,space,3.4196,0,0,0,0,1,,,,,,,,,,,,,,,,,,,,,,,,,,,,,,,,,,,,,,,,,,,,,,,,,,,,,,,,,,,,
,,,,515930,001,2023-10-10_01h52.28.639,fluency,2022.2.4,Win32,59.50255861,,,,,,,,,,,,,,,,,,,,,,,,,,,,,,,,,,,,,,,,,,,,,,,,,,,,,,,,,,,,,,,,,,,,,,,,,,,,,,,,,,0,0,0,0,1,,,,,,,,,,,,,,,,,,,,,,,,,,,,,,,,,,,,,,,,,,,,,,,,,,,,,,,,,,,,,,,,,,,,,,,,,,,
,,,,515930,001,2023-10-10_01h52.28.639,fluency,2022.2.4,Win32,59.50255861,,,,,,,,,,,,,,,,,,,,,,,3,8,img/B08_03.jpg,GCNB,Press J if the face is GENDER-CONFORMING and K if the face is NONBINARY,Gender-conforming means that the face appears to be a typical example of its gender. Nonbinary means that the face does not conform to any particular gender norms.,JK,,,,,,,,,,,,,,,,,,,,,,,,,,,,,,,,,,,,,,,,,,,,,,512.98,0,3,3,80,1,109,1,0,1,0,1,98,,,,,,,,,,,,,,,,,,,,,,,,,,,,,,,,,,,,,,,,,,,,,,,,,,,,,,,,,,,,,,,,,,,,,,,,,,
,,,,515930,001,2023-10-10_01h52.28.639,fluency,2022.2.4,Win32,59.50255861,,,,,,,,,,,,,,,,,,,,,,,,,,,,,,,,,,,,,,,,,,,,,,,,,,,,,,,,,,,,,,,,,,,,,,,,,,,,,,,,,,1,0,1,0,1,,"[""k""]",[0.857699999809256],1,"[""k""]",[0.857699999809256],,,,,,,,,,,,,,,,,,,,,,,,,,,,,,,,,,,,,,,,,,,,,,,,,,,,,,,,,,,,,,,,,,,,,
,,,,515930,001,2023-10-10_01h52.28.639,fluency,2022.2.4,Win32,59.50255861,,,,,,,,,,,,,,,,,,,,,,,3,8,img/B08_03.jpg,GCNB,Press J if the face is GENDER-CONFORMING and K if the face is NONBINARY,Gender-conforming means that the face appears to be a typical example of its gender. Nonbinary means that the face does not conform to any particular gender norms.,JK,,,,,,,,,,,,,,,,,,,,,,,,,,,,,,,,5,2.7479,,,,,,,,,,,,,,0,3,3,80,1,,,,,,,,,,,,,space,2.0669,,,,,,,,,,,,,,,,,,,,,,,,,,,,,,,,,,,,,,,,,,,,,,,,,,,,,,,,,,,,,,,,,,,
,,,,515930,001,2023-10-10_01h52.28.639,fluency,2022.2.4,Win32,59.50255861,,,,,,,,,,,,,,,,,,,,,,,8,10,img/B10_08.jpg,GCNB,Press J if the face is GENDER-CONFORMING and K if the face is NONBINARY,Gender-conforming means that the face appears to be a typical example of its gender. Nonbinary means that the face does not conform to any particular gender norms.,JK,,,,,,,,,,,,,,,,,,,,,,,,,,,,,,,,,,,,,,,,,,,,,,521.8759,0,4,4,107,1,109,0,0,0,0,1,98,,,,,,,,,,,,,,,,,,,,,,,,,,,,,,,,,,,,,,,,,,,,,,,,,,,,,,,,,,,,,,,,,,,,,,,,,,
,,,,515930,001,2023-10-10_01h52.28.639,fluency,2022.2.4,Win32,59.50255861,,,,,,,,,,,,,,,,,,,,,,,,,,,,,,,,,,,,,,,,,,,,,,,,,,,,,,,,,,,,,,,,,,,,,,,,,,,,,,,,,,0,0,0,0,1,,"[""j""]",[2.8257999997139223],1,"[""j""]",[2.825800000190725],,,,,,,,,,,,,,,,,,,,,,,,,,,,,,,,,,,,,,,,,,,,,,,,,,,,,,,,,,,,,,,,,,,,,
,,,,515930,001,2023-10-10_01h52.28.639,fluency,2022.2.4,Win32,59.50255861,,,,,,,,,,,,,,,,,,,,,,,8,10,img/B10_08.jpg,GCNB,Press J if the face is GENDER-CONFORMING and K if the face is NONBINARY,Gender-conforming means that the face appears to be a typical example of its gender. Nonbinary means that the face does not conform to any particular gender norms.,JK,,,,,,,,,,,,,,,,,,,,,,,,,,,,,,,,6,4,,,,,,,,,,,,,,0,4,4,107,1,,,,,,,,,,,,,space,1.5057,,,,,,,,,,,,,,,,,,,,,,,,,,,,,,,,,,,,,,,,,,,,,,,,,,,,,,,,,,,,,,,,,,,
,,,,515930,001,2023-10-10_01h52.28.639,fluency,2022.2.4,Win32,59.50255861,,,,,,,,,,,,,,,,,,,,,,,10,4,img/B04_10.jpg,GCNB,Press J if the face is GENDER-CONFORMING and K if the face is NONBINARY,Gender-conforming means that the face appears to be a typical example of its gender. Nonbinary means that the face does not conform to any particular gender norms.,JK,,,,,,,,,,,,,,,,,,,,,,,,,,,,,,,,,,,,,,,,,,,,,,532.4717,0,5,5,43,1,109,0,0,0,0,1,98,,,,,,,,,,,,,,,,,,,,,,,,,,,,,,,,,,,,,,,,,,,,,,,,,,,,,,,,,,,,,,,,,,,,,,,,,,
,,,,515930,001,2023-10-10_01h52.28.639,fluency,2022.2.4,Win32,59.50255861,,,,,,,,,,,,,,,,,,,,,,,,,,,,,,,,,,,,,,,,,,,,,,,,,,,,,,,,,,,,,,,,,,,,,,,,,,,,,,,,,,0,0,0,0,1,,"[""j""]",[2.1380999999046253],1,"[""j""]",[2.1380000000000337],,,,,,,,,,,,,,,,,,,,,,,,,,,,,,,,,,,,,,,,,,,,,,,,,,,,,,,,,,,,,,,,,,,,,
,,,,515930,001,2023-10-10_01h52.28.639,fluency,2022.2.4,Win32,59.50255861,,,,,,,,,,,,,,,,,,,,,,,10,4,img/B04_10.jpg,GCNB,Press J if the face is GENDER-CONFORMING and K if the face is NONBINARY,Gender-conforming means that the face appears to be a typical example of its gender. Nonbinary means that the face does not conform to any particular gender norms.,JK,,,,,,,,,,,,,,,,,,,,,,,,,,,,,,,,4,4.6381,,,,,,,,,,,,,,0,5,5,43,1,,,,,,,,,,,,,space,2.4001,,,,,,,,,,,,,,,,,,,,,,,,,,,,,,,,,,,,,,,,,,,,,,,,,,,,,,,,,,,,,,,,,,,
,,,,515930,001,2023-10-10_01h52.28.639,fluency,2022.2.4,Win32,59.50255861,,,,,,,,,,,,,,,,,,,,,,,3,7,img/B07_03.jpg,GCNB,Press J if the face is GENDER-CONFORMING and K if the face is NONBINARY,Gender-conforming means that the face appears to be a typical example of its gender. Nonbinary means that the face does not conform to any particular gender norms.,JK,,,,,,,,,,,,,,,,,,,,,,,,,,,,,,,,,,,,,,,,,,,,,,544.5829,0,6,6,69,1,109,0,0,0,0,1,98,,,,,,,,,,,,,,,,,,,,,,,,,,,,,,,,,,,,,,,,,,,,,,,,,,,,,,,,,,,,,,,,,,,,,,,,,,
,,,,515930,001,2023-10-10_01h52.28.639,fluency,2022.2.4,Win32,59.50255861,,,,,,,,,,,,,,,,,,,,,,,,,,,,,,,,,,,,,,,,,,,,,,,,,,,,,,,,,,,,,,,,,,,,,,,,,,,,,,,,,,0,0,0,0,1,,"[""j""]",[1.1050000000000182],1,"[""j""]",[1.1050999999046098],,,,,,,,,,,,,,,,,,,,,,,,,,,,,,,,,,,,,,,,,,,,,,,,,,,,,,,,,,,,,,,,,,,,,
,,,,515930,001,2023-10-10_01h52.28.639,fluency,2022.2.4,Win32,59.50255861,,,,,,,,,,,,,,,,,,,,,,,3,7,img/B07_03.jpg,GCNB,Press J if the face is GENDER-CONFORMING and K if the face is NONBINARY,Gender-conforming means that the face appears to be a typical example of its gender. Nonbinary means that the face does not conform to any particular gender norms.,JK,,,,,,,,,,,,,,,,,,,,,,,,,,,,,,,,6,3.7826,,,,,,,,,,,,,,0,6,6,69,1,,,,,,,,,,,,,space,1.8486,,,,,,,,,,,,,,,,,,,,,,,,,,,,,,,,,,,,,,,,,,,,,,,,,,,,,,,,,,,,,,,,,,,
,,,,515930,001,2023-10-10_01h52.28.639,fluency,2022.2.4,Win32,59.50255861,,,,,,,,,,,,,,,,,,,,,,,3,6,img/B06_03.jpg,GCNB,Press J if the face is GENDER-CONFORMING and K if the face is NONBINARY,Gender-conforming means that the face appears to be a typical example of its gender. Nonbinary means that the face does not conform to any particular gender norms.,JK,,,,,,,,,,,,,,,,,,,,,,,,,,,,,,,,,,,,,,,,,,,,,,555.278,0,7,7,58,1,109,0,0,0,0,1,98,,,,,,,,,,,,,,,,,,,,,,,,,,,,,,,,,,,,,,,,,,,,,,,,,,,,,,,,,,,,,,,,,,,,,,,,,,
,,,,515930,001,2023-10-10_01h52.28.639,fluency,2022.2.4,Win32,59.50255861,,,,,,,,,,,,,,,,,,,,,,,,,,,,,,,,,,,,,,,,,,,,,,,,,,,,,,,,,,,,,,,,,,,,,,,,,,,,,,,,,,0,0,0,0,1,,"[""j""]",[0.9888000001907358],1,"[""j""]",[0.9887000002861441],,,,,,,,,,,,,,,,,,,,,,,,,,,,,,,,,,,,,,,,,,,,,,,,,,,,,,,,,,,,,,,,,,,,,
,,,,515930,001,2023-10-10_01h52.28.639,fluency,2022.2.4,Win32,59.50255861,,,,,,,,,,,,,,,,,,,,,,,3,6,img/B06_03.jpg,GCNB,Press J if the face is GENDER-CONFORMING and K if the face is NONBINARY,Gender-conforming means that the face appears to be a typical example of its gender. Nonbinary means that the face does not conform to any particular gender norms.,JK,,,,,,,,,,,,,,,,,,,,,,,,,,,,,,,,4,6.0699,,,,,,,,,,,,,,0,7,7,58,1,,,,,,,,,,,,,space,1.0501,,,,,,,,,,,,,,,,,,,,,,,,,,,,,,,,,,,,,,,,,,,,,,,,,,,,,,,,,,,,,,,,,,,
,,,,515930,001,2023-10-10_01h52.28.639,fluency,2022.2.4,Win32,59.50255861,,,,,,,,,,,,,,,,,,,,,,,3,10,img/B10_03.jpg,GCNB,Press J if the face is GENDER-CONFORMING and K if the face is NONBINARY,Gender-conforming means that the face appears to be a typical example of its gender. Nonbinary means that the face does not conform to any particular gender norms.,JK,,,,,,,,,,,,,,,,,,,,,,,,,,,,,,,,,,,,,,,,,,,,,,567.4724,0,8,8,102,1,109,0,0,0,0,1,98,,,,,,,,,,,,,,,,,,,,,,,,,,,,,,,,,,,,,,,,,,,,,,,,,,,,,,,,,,,,,,,,,,,,,,,,,,
,,,,515930,001,2023-10-10_01h52.28.639,fluency,2022.2.4,Win32,59.50255861,,,,,,,,,,,,,,,,,,,,,,,,,,,,,,,,,,,,,,,,,,,,,,,,,,,,,,,,,,,,,,,,,,,,,,,,,,,,,,,,,,0,0,0,0,1,,"[""j""]",[1.2054000000954375],1,"[""j""]",[1.2053000001907321],,,,,,,,,,,,,,,,,,,,,,,,,,,,,,,,,,,,,,,,,,,,,,,,,,,,,,,,,,,,,,,,,,,,,
,,,,515930,001,2023-10-10_01h52.28.639,fluency,2022.2.4,Win32,59.50255861,,,,,,,,,,,,,,,,,,,,,,,3,10,img/B10_03.jpg,GCNB,Press J if the face is GENDER-CONFORMING and K if the face is NONBINARY,Gender-conforming means that the face appears to be a typical example of its gender. Nonbinary means that the face does not conform to any particular gender norms.,JK,,,,,,,,,,,,,,,,,,,,,,,,,,,,,,,,4,5.3322,,,,,,,,,,,,,,0,8,8,102,1,,,,,,,,,,,,,space,1.1844,,,,,,,,,,,,,,,,,,,,,,,,,,,,,,,,,,,,,,,,,,,,,,,,,,,,,,,,,,,,,,,,,,,
,,,,515930,001,2023-10-10_01h52.28.639,fluency,2022.2.4,Win32,59.50255861,,,,,,,,,,,,,,,,,,,,,,,9,5,img/B05_09.jpg,GCNB,Press J if the face is GENDER-CONFORMING and K if the face is NONBINARY,Gender-conforming means that the face appears to be a typical example of its gender. Nonbinary means that the face does not conform to any particular gender norms.,JK,,,,,,,,,,,,,,,,,,,,,,,,,,,,,,,,,,,,,,,,,,,,,,578.0845,0,9,9,53,1,109,0,0,0,0,1,98,,,,,,,,,,,,,,,,,,,,,,,,,,,,,,,,,,,,,,,,,,,,,,,,,,,,,,,,,,,,,,,,,,,,,,,,,,
,,,,515930,001,2023-10-10_01h52.28.639,fluency,2022.2.4,Win32,59.50255861,,,,,,,,,,,,,,,,,,,,,,,,,,,,,,,,,,,,,,,,,,,,,,,,,,,,,,,,,,,,,,,,,,,,,,,,,,,,,,,,,,0,0,0,0,1,,"[""j""]",[0.8682999997139405],1,"[""j""]",[0.8681999998092351],,,,,,,,,,,,,,,,,,,,,,,,,,,,,,,,,,,,,,,,,,,,,,,,,,,,,,,,,,,,,,,,,,,,,
,,,,515930,001,2023-10-10_01h52.28.639,fluency,2022.2.4,Win32,59.50255861,,,,,,,,,,,,,,,,,,,,,,,9,5,img/B05_09.jpg,GCNB,Press J if the face is GENDER-CONFORMING and K if the face is NONBINARY,Gender-conforming means that the face appears to be a typical example of its gender. Nonbinary means that the face does not conform to any particular gender norms.,JK,,,,,,,,,,,,,,,,,,,,,,,,,,,,,,,,6,5.504,,,,,,,,,,,,,,0,9,9,53,1,,,,,,,,,,,,,space,1.0921,,,,,,,,,,,,,,,,,,,,,,,,,,,,,,,,,,,,,,,,,,,,,,,,,,,,,,,,,,,,,,,,,,,
,,,,515930,001,2023-10-10_01h52.28.639,fluency,2022.2.4,Win32,59.50255861,,,,,,,,,,,,,,,,,,,,,,,5,3,img/B03_05.jpg,GCNB,Press J if the face is GENDER-CONFORMING and K if the face is NONBINARY,Gender-conforming means that the face appears to be a typical example of its gender. Nonbinary means that the face does not conform to any particular gender norms.,JK,,,,,,,,,,,,,,,,,,,,,,,,,,,,,,,,,,,,,,,,,,,,,,588.763,0,10,10,27,1,109,0,0,0,0,1,98,,,,,,,,,,,,,,,,,,,,,,,,,,,,,,,,,,,,,,,,,,,,,,,,,,,,,,,,,,,,,,,,,,,,,,,,,,
,,,,515930,001,2023-10-10_01h52.28.639,fluency,2022.2.4,Win32,59.50255861,,,,,,,,,,,,,,,,,,,,,,,,,,,,,,,,,,,,,,,,,,,,,,,,,,,,,,,,,,,,,,,,,,,,,,,,,,,,,,,,,,0,0,0,0,1,,"[""k""]",[1.1737999997138786],1,"[""k""]",[1.1739000000953865],,,,,,,,,,,,,,,,,,,,,,,,,,,,,,,,,,,,,,,,,,,,,,,,,,,,,,,,,,,,,,,,,,,,,
,,,,515930,001,2023-10-10_01h52.28.639,fluency,2022.2.4,Win32,59.50255861,,,,,,,,,,,,,,,,,,,,,,,5,3,img/B03_05.jpg,GCNB,Press J if the face is GENDER-CONFORMING and K if the face is NONBINARY,Gender-conforming means that the face appears to be a typical example of its gender. Nonbinary means that the face does not conform to any particular gender norms.,JK,,,,,,,,,,,,,,,,,,,,,,,,,,,,,,,,5,3.2985,,,,,,,,,,,,,,0,10,10,27,1,,,,,,,,,,,,,space,5.4485,,,,,,,,,,,,,,,,,,,,,,,,,,,,,,,,,,,,,,,,,,,,,,,,,,,,,,,,,,,,,,,,,,,
,,,,515930,001,2023-10-10_01h52.28.639,fluency,2022.2.4,Win32,59.50255861,,,,,,,,,,,,,,,,,,,,,,,7,6,img/B06_07.jpg,GCNB,Press J if the face is GENDER-CONFORMING and K if the face is NONBINARY,Gender-conforming means that the face appears to be a typical example of its gender. Nonbinary means that the face does not conform to any particular gender norms.,JK,,,,,,,,,,,,,,,,,,,,,,,,,,,,,,,,,,,,,,,,,,,,,,602.5902,0,11,11,62,1,109,0,0,0,0,1,98,,,,,,,,,,,,,,,,,,,,,,,,,,,,,,,,,,,,,,,,,,,,,,,,,,,,,,,,,,,,,,,,,,,,,,,,,,
,,,,515930,001,2023-10-10_01h52.28.639,fluency,2022.2.4,Win32,59.50255861,,,,,,,,,,,,,,,,,,,,,,,,,,,,,,,,,,,,,,,,,,,,,,,,,,,,,,,,,,,,,,,,,,,,,,,,,,,,,,,,,,0,0,0,0,1,,"[""k""]",[1.7397000002861205],1,"[""k""]",[1.7397000002861205],,,,,,,,,,,,,,,,,,,,,,,,,,,,,,,,,,,,,,,,,,,,,,,,,,,,,,,,,,,,,,,,,,,,,
,,,,515930,001,2023-10-10_01h52.28.639,fluency,2022.2.4,Win32,59.50255861,,,,,,,,,,,,,,,,,,,,,,,7,6,img/B06_07.jpg,GCNB,Press J if the face is GENDER-CONFORMING and K if the face is NONBINARY,Gender-conforming means that the face appears to be a typical example of its gender. Nonbinary means that the face does not conform to any particular gender norms.,JK,,,,,,,,,,,,,,,,,,,,,,,,,,,,,,,,4,3.2265,,,,,,,,,,,,,,0,11,11,62,1,,,,,,,,,,,,,space,0.9864,,,,,,,,,,,,,,,,,,,,,,,,,,,,,,,,,,,,,,,,,,,,,,,,,,,,,,,,,,,,,,,,,,,
,,,,515930,001,2023-10-10_01h52.28.639,fluency,2022.2.4,Win32,59.50255861,,,,,,,,,,,,,,,,,,,,,,,8,4,img/B04_08.jpg,GCNB,Press J if the face is GENDER-CONFORMING and K if the face is NONBINARY,Gender-conforming means that the face appears to be a typical example of its gender. Nonbinary means that the face does not conform to any particular gender norms.,JK,,,,,,,,,,,,,,,,,,,,,,,,,,,,,,,,,,,,,,,,,,,,,,611.8861,0,12,12,41,1,109,0,0,0,0,1,98,,,,,,,,,,,,,,,,,,,,,,,,,,,,,,,,,,,,,,,,,,,,,,,,,,,,,,,,,,,,,,,,,,,,,,,,,,
,,,,515930,001,2023-10-10_01h52.28.639,fluency,2022.2.4,Win32,59.50255861,,,,,,,,,,,,,,,,,,,,,,,,,,,,,,,,,,,,,,,,,,,,,,,,,,,,,,,,,,,,,,,,,,,,,,,,,,,,,,,,,,0,0,0,0,1,,"[""k""]",[2.0397000002861887],1,"[""k""]",[2.0397000002861887],,,,,,,,,,,,,,,,,,,,,,,,,,,,,,,,,,,,,,,,,,,,,,,,,,,,,,,,,,,,,,,,,,,,,
,,,,515930,001,2023-10-10_01h52.28.639,fluency,2022.2.4,Win32,59.50255861,,,,,,,,,,,,,,,,,,,,,,,8,4,img/B04_08.jpg,GCNB,Press J if the face is GENDER-CONFORMING and K if the face is NONBINARY,Gender-conforming means that the face appears to be a typical example of its gender. Nonbinary means that the face does not conform to any particular gender norms.,JK,,,,,,,,,,,,,,,,,,,,,,,,,,,,,,,,5,2.7328,,,,,,,,,,,,,,0,12,12,41,1,,,,,,,,,,,,,space,1.8143,,,,,,,,,,,,,,,,,,,,,,,,,,,,,,,,,,,,,,,,,,,,,,,,,,,,,,,,,,,,,,,,,,,
,,,,515930,001,2023-10-10_01h52.28.639,fluency,2022.2.4,Win32,59.50255861,,,,,,,,,,,,,,,,,,,,,,,4,6,img/B06_04.jpg,GCNB,Press J if the face is GENDER-CONFORMING and K if the face is NONBINARY,Gender-conforming means that the face appears to be a typical example of its gender. Nonbinary means that the face does not conform to any particular gender norms.,JK,,,,,,,,,,,,,,,,,,,,,,,,,,,,,,,,,,,,,,,,,,,,,,620.5323,0,13,13,59,1,109,0,0,0,0,1,98,,,,,,,,,,,,,,,,,,,,,,,,,,,,,,,,,,,,,,,,,,,,,,,,,,,,,,,,,,,,,,,,,,,,,,,,,,
,,,,515930,001,2023-10-10_01h52.28.639,fluency,2022.2.4,Win32,59.50255861,,,,,,,,,,,,,,,,,,,,,,,,,,,,,,,,,,,,,,,,,,,,,,,,,,,,,,,,,,,,,,,,,,,,,,,,,,,,,,,,,,0,0,0,0,1,,"[""j""]",[0.9219999999999118],1,"[""j""]",[0.9219000000953201],,,,,,,,,,,,,,,,,,,,,,,,,,,,,,,,,,,,,,,,,,,,,,,,,,,,,,,,,,,,,,,,,,,,,
,,,,515930,001,2023-10-10_01h52.28.639,fluency,2022.2.4,Win32,59.50255861,,,,,,,,,,,,,,,,,,,,,,,4,6,img/B06_04.jpg,GCNB,Press J if the face is GENDER-CONFORMING and K if the face is NONBINARY,Gender-conforming means that the face appears to be a typical example of its gender. Nonbinary means that the face does not conform to any particular gender norms.,JK,,,,,,,,,,,,,,,,,,,,,,,,,,,,,,,,5,3.2974,,,,,,,,,,,,,,0,13,13,59,1,,,,,,,,,,,,,space,1.3002,,,,,,,,,,,,,,,,,,,,,,,,,,,,,,,,,,,,,,,,,,,,,,,,,,,,,,,,,,,,,,,,,,,
,,,,515930,001,2023-10-10_01h52.28.639,fluency,2022.2.4,Win32,59.50255861,,,,,,,,,,,,,,,,,,,,,,,1,8,img/B08_01.jpg,GCNB,Press J if the face is GENDER-CONFORMING and K if the face is NONBINARY,Gender-conforming means that the face appears to be a typical example of its gender. Nonbinary means that the face does not conform to any particular gender norms.,JK,,,,,,,,,,,,,,,,,,,,,,,,,,,,,,,,,,,,,,,,,,,,,,630.2114,0,14,14,78,1,109,0,0,0,0,1,98,,,,,,,,,,,,,,,,,,,,,,,,,,,,,,,,,,,,,,,,,,,,,,,,,,,,,,,,,,,,,,,,,,,,,,,,,,
,,,,515930,001,2023-10-10_01h52.28.639,fluency,2022.2.4,Win32,59.50255861,,,,,,,,,,,,,,,,,,,,,,,,,,,,,,,,,,,,,,,,,,,,,,,,,,,,,,,,,,,,,,,,,,,,,,,,,,,,,,,,,,0,0,0,0,1,,"[""k""]",[0.8230999999046844],1,"[""k""]",[0.8230000000000928],,,,,,,,,,,,,,,,,,,,,,,,,,,,,,,,,,,,,,,,,,,,,,,,,,,,,,,,,,,,,,,,,,,,,
,,,,515930,001,2023-10-10_01h52.28.639,fluency,2022.2.4,Win32,59.50255861,,,,,,,,,,,,,,,,,,,,,,,1,8,img/B08_01.jpg,GCNB,Press J if the face is GENDER-CONFORMING and K if the face is NONBINARY,Gender-conforming means that the face appears to be a typical example of its gender. Nonbinary means that the face does not conform to any particular gender norms.,JK,,,,,,,,,,,,,,,,,,,,,,,,,,,,,,,,5,1.5987,,,,,,,,,,,,,,0,14,14,78,1,,,,,,,,,,,,,space,0.8491,,,,,,,,,,,,,,,,,,,,,,,,,,,,,,,,,,,,,,,,,,,,,,,,,,,,,,,,,,,,,,,,,,,
,,,,515930,001,2023-10-10_01h52.28.639,fluency,2022.2.4,Win32,59.50255861,,,,,,,,,,,,,,,,,,,,,,,0,9,img/B09_00.jpg,GCNB,Press J if the face is GENDER-CONFORMING and K if the face is NONBINARY,Gender-conforming means that the face appears to be a typical example of its gender. Nonbinary means that the face does not conform to any particular gender norms.,JK,,,,,,,,,,,,,,,,,,,,,,,,,,,,,,,,,,,,,,,,,,,,,,636.7415,0,15,15,88,1,109,0,0,0,0,1,98,,,,,,,,,,,,,,,,,,,,,,,,,,,,,,,,,,,,,,,,,,,,,,,,,,,,,,,,,,,,,,,,,,,,,,,,,,
,,,,515930,001,2023-10-10_01h52.28.639,fluency,2022.2.4,Win32,59.50255861,,,,,,,,,,,,,,,,,,,,,,,,,,,,,,,,,,,,,,,,,,,,,,,,,,,,,,,,,,,,,,,,,,,,,,,,,,,,,,,,,,0,0,0,0,1,,"[""j""]",[1.119799999713905],1,"[""j""]",[1.1198000001907076],,,,,,,,,,,,,,,,,,,,,,,,,,,,,,,,,,,,,,,,,,,,,,,,,,,,,,,,,,,,,,,,,,,,,
,,,,515930,001,2023-10-10_01h52.28.639,fluency,2022.2.4,Win32,59.50255861,,,,,,,,,,,,,,,,,,,,,,,0,9,img/B09_00.jpg,GCNB,Press J if the face is GENDER-CONFORMING and K if the face is NONBINARY,Gender-conforming means that the face appears to be a typical example of its gender. Nonbinary means that the face does not conform to any particular gender norms.,JK,,,,,,,,,,,,,,,,,,,,,,,,,,,,,,,,3,3.5684,,,,,,,,,,,,,,0,15,15,88,1,,,,,,,,,,,,,space,0.8691,,,,,,,,,,,,,,,,,,,,,,,,,,,,,,,,,,,,,,,,,,,,,,,,,,,,,,,,,,,,,,,,,,,
,,,,515930,001,2023-10-10_01h52.28.639,fluency,2022.2.4,Win32,59.50255861,,,,,,,,,,,,,,,,,,,,,,,4,10,img/B10_04.jpg,GCNB,Press J if the face is GENDER-CONFORMING and K if the face is NONBINARY,Gender-conforming means that the face appears to be a typical example of its gender. Nonbinary means that the face does not conform to any particular gender norms.,JK,,,,,,,,,,,,,,,,,,,,,,,,,,,,,,,,,,,,,,,,,,,,,,646.2541,0,16,16,103,1,109,0,0,0,0,1,98,,,,,,,,,,,,,,,,,,,,,,,,,,,,,,,,,,,,,,,,,,,,,,,,,,,,,,,,,,,,,,,,,,,,,,,,,,
,,,,515930,001,2023-10-10_01h52.28.639,fluency,2022.2.4,Win32,59.50255861,,,,,,,,,,,,,,,,,,,,,,,,,,,,,,,,,,,,,,,,,,,,,,,,,,,,,,,,,,,,,,,,,,,,,,,,,,,,,,,,,,0,0,0,0,1,,"[""j""]",[1.4075000000000273],1,"[""j""]",[1.407400000095322],,,,,,,,,,,,,,,,,,,,,,,,,,,,,,,,,,,,,,,,,,,,,,,,,,,,,,,,,,,,,,,,,,,,,
,,,,515930,001,2023-10-10_01h52.28.639,fluency,2022.2.4,Win32,59.50255861,,,,,,,,,,,,,,,,,,,,,,,4,10,img/B10_04.jpg,GCNB,Press J if the face is GENDER-CONFORMING and K if the face is NONBINARY,Gender-conforming means that the face appears to be a typical example of its gender. Nonbinary means that the face does not conform to any particular gender norms.,JK,,,,,,,,,,,,,,,,,,,,,,,,,,,,,,,,4,3.2104,,,,,,,,,,,,,,0,16,16,103,1,,,,,,,,,,,,,space,4.9321,,,,,,,,,,,,,,,,,,,,,,,,,,,,,,,,,,,,,,,,,,,,,,,,,,,,,,,,,,,,,,,,,,,
,,,,515930,001,2023-10-10_01h52.28.639,fluency,2022.2.4,Win32,59.50255861,,,,,,,,,,,,,,,,,,,,,,,6,8,img/B08_06.jpg,GCNB,Press J if the face is GENDER-CONFORMING and K if the face is NONBINARY,Gender-conforming means that the face appears to be a typical example of its gender. Nonbinary means that the face does not conform to any particular gender norms.,JK,,,,,,,,,,,,,,,,,,,,,,,,,,,,,,,,,,,,,,,,,,,,,,658.4822,0,17,17,83,1,109,0,0,0,0,1,98,,,,,,,,,,,,,,,,,,,,,,,,,,,,,,,,,,,,,,,,,,,,,,,,,,,,,,,,,,,,,,,,,,,,,,,,,,
,,,,515930,001,2023-10-10_01h52.28.639,fluency,2022.2.4,Win32,59.50255861,,,,,,,,,,,,,,,,,,,,,,,,,,,,,,,,,,,,,,,,,,,,,,,,,,,,,,,,,,,,,,,,,,,,,,,,,,,,,,,,,,0,0,0,0,1,,"[""k""]",[2.220299999713802],1,"[""k""]",[2.2203000001907185],,,,,,,,,,,,,,,,,,,,,,,,,,,,,,,,,,,,,,,,,,,,,,,,,,,,,,,,,,,,,,,,,,,,,
,,,,515930,001,2023-10-10_01h52.28.639,fluency,2022.2.4,Win32,59.50255861,,,,,,,,,,,,,,,,,,,,,,,6,8,img/B08_06.jpg,GCNB,Press J if the face is GENDER-CONFORMING and K if the face is NONBINARY,Gender-conforming means that the face appears to be a typical example of its gender. Nonbinary means that the face does not conform to any particular gender norms.,JK,,,,,,,,,,,,,,,,,,,,,,,,,,,,,,,,5,4.4348,,,,,,,,,,,,,,0,17,17,83,1,,,,,,,,,,,,,space,1.3152,,,,,,,,,,,,,,,,,,,,,,,,,,,,,,,,,,,,,,,,,,,,,,,,,,,,,,,,,,,,,,,,,,,
,,,,515930,001,2023-10-10_01h52.28.639,fluency,2022.2.4,Win32,59.50255861,,,,,,,,,,,,,,,,,,,,,,,0,8,img/B08_00.jpg,GCNB,Press J if the face is GENDER-CONFORMING and K if the face is NONBINARY,Gender-conforming means that the face appears to be a typical example of its gender. Nonbinary means that the face does not conform to any particular gender norms.,JK,,,,,,,,,,,,,,,,,,,,,,,,,,,,,,,,,,,,,,,,,,,,,,669.3274,0,18,18,77,1,109,0,0,0,0,1,98,,,,,,,,,,,,,,,,,,,,,,,,,,,,,,,,,,,,,,,,,,,,,,,,,,,,,,,,,,,,,,,,,,,,,,,,,,
,,,,515930,001,2023-10-10_01h52.28.639,fluency,2022.2.4,Win32,59.50255861,,,,,,,,,,,,,,,,,,,,,,,,,,,,,,,,,,,,,,,,,,,,,,,,,,,,,,,,,,,,,,,,,,,,,,,,,,,,,,,,,,0,0,0,0,1,,"[""k""]",[2.4921999998092588],1,"[""k""]",[2.4922999997138504],,,,,,,,,,,,,,,,,,,,,,,,,,,,,,,,,,,,,,,,,,,,,,,,,,,,,,,,,,,,,,,,,,,,,
,,,,515930,001,2023-10-10_01h52.28.639,fluency,2022.2.4,Win32,59.50255861,,,,,,,,,,,,,,,,,,,,,,,0,8,img/B08_00.jpg,GCNB,Press J if the face is GENDER-CONFORMING and K if the face is NONBINARY,Gender-conforming means that the face appears to be a typical example of its gender. Nonbinary means that the face does not conform to any particular gender norms.,JK,,,,,,,,,,,,,,,,,,,,,,,,,,,,,,,,5,3.3306,,,,,,,,,,,,,,0,18,18,77,1,,,,,,,,,,,,,space,1.1987,,,,,,,,,,,,,,,,,,,,,,,,,,,,,,,,,,,,,,,,,,,,,,,,,,,,,,,,,,,,,,,,,,,
,,,,515930,001,2023-10-10_01h52.28.639,fluency,2022.2.4,Win32,59.50255861,,,,,,,,,,,,,,,,,,,,,,,10,10,img/B10_10.jpg,GCNB,Press J if the face is GENDER-CONFORMING and K if the face is NONBINARY,Gender-conforming means that the face appears to be a typical example of its gender. Nonbinary means that the face does not conform to any particular gender norms.,JK,,,,,,,,,,,,,,,,,,,,,,,,,,,,,,,,,,,,,,,,,,,,,,677.9403,0,19,19,109,1,109,0,0,0,0,1,98,,,,,,,,,,,,,,,,,,,,,,,,,,,,,,,,,,,,,,,,,,,,,,,,,,,,,,,,,,,,,,,,,,,,,,,,,,
,,,,515930,001,2023-10-10_01h52.28.639,fluency,2022.2.4,Win32,59.50255861,,,,,,,,,,,,,,,,,,,,,,,,,,,,,,,,,,,,,,,,,,,,,,,,,,,,,,,,,,,,,,,,,,,,,,,,,,,,,,,,,,0,0,0,0,1,,"[""k""]",[2.3530000000000655],1,"[""k""]",[2.353099999904657],,,,,,,,,,,,,,,,,,,,,,,,,,,,,,,,,,,,,,,,,,,,,,,,,,,,,,,,,,,,,,,,,,,,,
,,,,515930,001,2023-10-10_01h52.28.639,fluency,2022.2.4,Win32,59.50255861,,,,,,,,,,,,,,,,,,,,,,,10,10,img/B10_10.jpg,GCNB,Press J if the face is GENDER-CONFORMING and K if the face is NONBINARY,Gender-conforming means that the face appears to be a typical example of its gender. Nonbinary means that the face does not conform to any particular gender norms.,JK,,,,,,,,,,,,,,,,,,,,,,,,,,,,,,,,4,2.9539,,,,,,,,,,,,,,0,19,19,109,1,,,,,,,,,,,,,space,1.4644,,,,,,,,,,,,,,,,,,,,,,,,,,,,,,,,,,,,,,,,,,,,,,,,,,,,,,,,,,,,,,,,,,,
,,,,515930,001,2023-10-10_01h52.28.639,fluency,2022.2.4,Win32,59.50255861,,,,,,,,,,,,,,,,,,,,,,,10,9,img/B09_10.jpg,GCNB,Press J if the face is GENDER-CONFORMING and K if the face is NONBINARY,Gender-conforming means that the face appears to be a typical example of its gender. Nonbinary means that the face does not conform to any particular gender norms.,JK,,,,,,,,,,,,,,,,,,,,,,,,,,,,,,,,,,,,,,,,,,,,,,687.4525,0,20,20,98,1,109,0,0,0,0,1,98,,,,,,,,,,,,,,,,,,,,,,,,,,,,,,,,,,,,,,,,,,,,,,,,,,,,,,,,,,,,,,,,,,,,,,,,,,
,,,,515930,001,2023-10-10_01h52.28.639,fluency,2022.2.4,Win32,59.50255861,,,,,,,,,,,,,,,,,,,,,,,,,,,,,,,,,,,,,,,,,,,,,,,,,,,,,,,,,,,,,,,,,,,,,,,,,,,,,,,,,,0,0,0,0,1,,"[""j""]",[1.1699000000953674],1,"[""j""]",[1.1699000000953674],,,,,,,,,,,,,,,,,,,,,,,,,,,,,,,,,,,,,,,,,,,,,,,,,,,,,,,,,,,,,,,,,,,,,
,,,,515930,001,2023-10-10_01h52.28.639,fluency,2022.2.4,Win32,59.50255861,,,,,,,,,,,,,,,,,,,,,,,10,9,img/B09_10.jpg,GCNB,Press J if the face is GENDER-CONFORMING and K if the face is NONBINARY,Gender-conforming means that the face appears to be a typical example of its gender. Nonbinary means that the face does not conform to any particular gender norms.,JK,,,,,,,,,,,,,,,,,,,,,,,,,,,,,,,,6,1.3712,,,,,,,,,,,,,,0,20,20,98,1,,,,,,,,,,,,,space,3.5811,,,,,,,,,,,,,,,,,,,,,,,,,,,,,,,,,,,,,,,,,,,,,,,,,,,,,,,,,,,,,,,,,,,
,,,,515930,001,2023-10-10_01h52.28.639,fluency,2022.2.4,Win32,59.50255861,,,,,,,,,,,,,,,,,,,,,,,4,2,img/B02_04.jpg,GCNB,Press J if the face is GENDER-CONFORMING and K if the face is NONBINARY,Gender-conforming means that the face appears to be a typical example of its gender. Nonbinary means that the face does not conform to any particular gender norms.,JK,,,,,,,,,,,,,,,,,,,,,,,,,,,,,,,,,,,,,,,,,,,,,,696.4816,0,21,21,15,1,109,0,0,0,0,1,98,,,,,,,,,,,,,,,,,,,,,,,,,,,,,,,,,,,,,,,,,,,,,,,,,,,,,,,,,,,,,,,,,,,,,,,,,,
,,,,515930,001,2023-10-10_01h52.28.639,fluency,2022.2.4,Win32,59.50255861,,,,,,,,,,,,,,,,,,,,,,,,,,,,,,,,,,,,,,,,,,,,,,,,,,,,,,,,,,,,,,,,,,,,,,,,,,,,,,,,,,0,0,0,0,1,,"[""k""]",[2.2854000000953647],1,"[""k""]",[2.2854000000953647],,,,,,,,,,,,,,,,,,,,,,,,,,,,,,,,,,,,,,,,,,,,,,,,,,,,,,,,,,,,,,,,,,,,,
,,,,515930,001,2023-10-10_01h52.28.639,fluency,2022.2.4,Win32,59.50255861,,,,,,,,,,,,,,,,,,,,,,,4,2,img/B02_04.jpg,GCNB,Press J if the face is GENDER-CONFORMING and K if the face is NONBINARY,Gender-conforming means that the face appears to be a typical example of its gender. Nonbinary means that the face does not conform to any particular gender norms.,JK,,,,,,,,,,,,,,,,,,,,,,,,,,,,,,,,5,2.4523,,,,,,,,,,,,,,0,21,21,15,1,,,,,,,,,,,,,space,0.5506,,,,,,,,,,,,,,,,,,,,,,,,,,,,,,,,,,,,,,,,,,,,,,,,,,,,,,,,,,,,,,,,,,,
,,,,515930,001,2023-10-10_01h52.28.639,fluency,2022.2.4,Win32,59.50255861,,,,,,,,,,,,,,,,,,,,,,,6,3,img/B03_06.jpg,GCNB,Press J if the face is GENDER-CONFORMING and K if the face is NONBINARY,Gender-conforming means that the face appears to be a typical example of its gender. Nonbinary means that the face does not conform to any particular gender norms.,JK,,,,,,,,,,,,,,,,,,,,,,,,,,,,,,,,,,,,,,,,,,,,,,703.5621,0,22,22,28,1,109,0,0,0,0,1,98,,,,,,,,,,,,,,,,,,,,,,,,,,,,,,,,,,,,,,,,,,,,,,,,,,,,,,,,,,,,,,,,,,,,,,,,,,
,,,,515930,001,2023-10-10_01h52.28.639,fluency,2022.2.4,Win32,59.50255861,,,,,,,,,,,,,,,,,,,,,,,,,,,,,,,,,,,,,,,,,,,,,,,,,,,,,,,,,,,,,,,,,,,,,,,,,,,,,,,,,,0,0,0,0,1,,"[""j""]",[1.9339000000952637],1,"[""j""]",[1.933800000190672],,,,,,,,,,,,,,,,,,,,,,,,,,,,,,,,,,,,,,,,,,,,,,,,,,,,,,,,,,,,,,,,,,,,,
,,,,515930,001,2023-10-10_01h52.28.639,fluency,2022.2.4,Win32,59.50255861,,,,,,,,,,,,,,,,,,,,,,,6,3,img/B03_06.jpg,GCNB,Press J if the face is GENDER-CONFORMING and K if the face is NONBINARY,Gender-conforming means that the face appears to be a typical example of its gender. Nonbinary means that the face does not conform to any particular gender norms.,JK,,,,,,,,,,,,,,,,,,,,,,,,,,,,,,,,5,4.7551,,,,,,,,,,,,,,0,22,22,28,1,,,,,,,,,,,,,space,0.6675,,,,,,,,,,,,,,,,,,,,,,,,,,,,,,,,,,,,,,,,,,,,,,,,,,,,,,,,,,,,,,,,,,,
,,,,515930,001,2023-10-10_01h52.28.639,fluency,2022.2.4,Win32,59.50255861,,,,,,,,,,,,,,,,,,,,,,,4,4,img/B04_04.jpg,GCNB,Press J if the face is GENDER-CONFORMING and K if the face is NONBINARY,Gender-conforming means that the face appears to be a typical example of its gender. Nonbinary means that the face does not conform to any particular gender norms.,JK,,,,,,,,,,,,,,,,,,,,,,,,,,,,,,,,,,,,,,,,,,,,,,713.0415,0,23,23,37,1,109,0,0,0,0,1,98,,,,,,,,,,,,,,,,,,,,,,,,,,,,,,,,,,,,,,,,,,,,,,,,,,,,,,,,,,,,,,,,,,,,,,,,,,
,,,,515930,001,2023-10-10_01h52.28.639,fluency,2022.2.4,Win32,59.50255861,,,,,,,,,,,,,,,,,,,,,,,,,,,,,,,,,,,,,,,,,,,,,,,,,,,,,,,,,,,,,,,,,,,,,,,,,,,,,,,,,,0,0,0,0,1,,"[""k""]",[2.051599999904738],1,"[""k""]",[2.0515000000000327],,,,,,,,,,,,,,,,,,,,,,,,,,,,,,,,,,,,,,,,,,,,,,,,,,,,,,,,,,,,,,,,,,,,,
,,,,515930,001,2023-10-10_01h52.28.639,fluency,2022.2.4,Win32,59.50255861,,,,,,,,,,,,,,,,,,,,,,,4,4,img/B04_04.jpg,GCNB,Press J if the face is GENDER-CONFORMING and K if the face is NONBINARY,Gender-conforming means that the face appears to be a typical example of its gender. Nonbinary means that the face does not conform to any particular gender norms.,JK,,,,,,,,,,,,,,,,,,,,,,,,,,,,,,,,5,1.9494,,,,,,,,,,,,,,0,23,23,37,1,,,,,,,,,,,,,space,0.6049,,,,,,,,,,,,,,,,,,,,,,,,,,,,,,,,,,,,,,,,,,,,,,,,,,,,,,,,,,,,,,,,,,,
,,,,515930,001,2023-10-10_01h52.28.639,fluency,2022.2.4,Win32,59.50255861,,,,,,,,,,,,,,,,,,,,,,,1,5,img/B05_01.jpg,GCNB,Press J if the face is GENDER-CONFORMING and K if the face is NONBINARY,Gender-conforming means that the face appears to be a typical example of its gender. Nonbinary means that the face does not conform to any particular gender norms.,JK,,,,,,,,,,,,,,,,,,,,,,,,,,,,,,,,,,,,,,,,,,,,,,719.655,0,24,24,45,1,109,0,0,0,0,1,98,,,,,,,,,,,,,,,,,,,,,,,,,,,,,,,,,,,,,,,,,,,,,,,,,,,,,,,,,,,,,,,,,,,,,,,,,,
,,,,515930,001,2023-10-10_01h52.28.639,fluency,2022.2.4,Win32,59.50255861,,,,,,,,,,,,,,,,,,,,,,,,,,,,,,,,,,,,,,,,,,,,,,,,,,,,,,,,,,,,,,,,,,,,,,,,,,,,,,,,,,0,0,0,0,1,,"[""j""]",[1.2513999996185703],1,"[""j""]",[1.2513999996185703],,,,,,,,,,,,,,,,,,,,,,,,,,,,,,,,,,,,,,,,,,,,,,,,,,,,,,,,,,,,,,,,,,,,,
,,,,515930,001,2023-10-10_01h52.28.639,fluency,2022.2.4,Win32,59.50255861,,,,,,,,,,,,,,,,,,,,,,,1,5,img/B05_01.jpg,GCNB,Press J if the face is GENDER-CONFORMING and K if the face is NONBINARY,Gender-conforming means that the face appears to be a typical example of its gender. Nonbinary means that the face does not conform to any particular gender norms.,JK,,,,,,,,,,,,,,,,,,,,,,,,,,,,,,,,5,0.7501,,,,,,,,,,,,,,0,24,24,45,1,,,,,,,,,,,,,space,0.8222,,,,,,,,,,,,,,,,,,,,,,,,,,,,,,,,,,,,,,,,,,,,,,,,,,,,,,,,,,,,,,,,,,,
,,,,515930,001,2023-10-10_01h52.28.639,fluency,2022.2.4,Win32,59.50255861,,,,,,,,,,,,,,,,,,,,,,,2,5,img/B05_02.jpg,GCNB,Press J if the face is GENDER-CONFORMING and K if the face is NONBINARY,Gender-conforming means that the face appears to be a typical example of its gender. Nonbinary means that the face does not conform to any particular gender norms.,JK,,,,,,,,,,,,,,,,,,,,,,,,,,,,,,,,,,,,,,,,,,,,,,726.285,0,25,25,46,1,109,0,0,0,0,1,98,,,,,,,,,,,,,,,,,,,,,,,,,,,,,,,,,,,,,,,,,,,,,,,,,,,,,,,,,,,,,,,,,,,,,,,,,,
,,,,515930,001,2023-10-10_01h52.28.639,fluency,2022.2.4,Win32,59.50255861,,,,,,,,,,,,,,,,,,,,,,,,,,,,,,,,,,,,,,,,,,,,,,,,,,,,,,,,,,,,,,,,,,,,,,,,,,,,,,,,,,0,0,0,0,1,,"[""j""]",[0.984900000095422],1,"[""j""]",[0.9848999996185057],,,,,,,,,,,,,,,,,,,,,,,,,,,,,,,,,,,,,,,,,,,,,,,,,,,,,,,,,,,,,,,,,,,,,
,,,,515930,001,2023-10-10_01h52.28.639,fluency,2022.2.4,Win32,59.50255861,,,,,,,,,,,,,,,,,,,,,,,2,5,img/B05_02.jpg,GCNB,Press J if the face is GENDER-CONFORMING and K if the face is NONBINARY,Gender-conforming means that the face appears to be a typical example of its gender. Nonbinary means that the face does not conform to any particular gender norms.,JK,,,,,,,,,,,,,,,,,,,,,,,,,,,,,,,,5,0.6414,,,,,,,,,,,,,,0,25,25,46,1,,,,,,,,,,,,,space,0.6401,,,,,,,,,,,,,,,,,,,,,,,,,,,,,,,,,,,,,,,,,,,,,,,,,,,,,,,,,,,,,,,,,,,
,,,,515930,001,2023-10-10_01h52.28.639,fluency,2022.2.4,Win32,59.50255861,,,,,,,,,,,,,,,,,,,,,,,1,7,img/B07_01.jpg,GCNB,Press J if the face is GENDER-CONFORMING and K if the face is NONBINARY,Gender-conforming means that the face appears to be a typical example of its gender. Nonbinary means that the face does not conform to any particular gender norms.,JK,,,,,,,,,,,,,,,,,,,,,,,,,,,,,,,,,,,,,,,,,,,,,,732.6326,0,26,26,67,1,109,0,0,0,0,1,98,,,,,,,,,,,,,,,,,,,,,,,,,,,,,,,,,,,,,,,,,,,,,,,,,,,,,,,,,,,,,,,,,,,,,,,,,,
,,,,515930,001,2023-10-10_01h52.28.639,fluency,2022.2.4,Win32,59.50255861,,,,,,,,,,,,,,,,,,,,,,,,,,,,,,,,,,,,,,,,,,,,,,,,,,,,,,,,,,,,,,,,,,,,,,,,,,,,,,,,,,0,0,0,0,1,,"[""j""]",[0.7266999998092842],1,"[""j""]",[0.7266999998092842],,,,,,,,,,,,,,,,,,,,,,,,,,,,,,,,,,,,,,,,,,,,,,,,,,,,,,,,,,,,,,,,,,,,,
,,,,515930,001,2023-10-10_01h52.28.639,fluency,2022.2.4,Win32,59.50255861,,,,,,,,,,,,,,,,,,,,,,,1,7,img/B07_01.jpg,GCNB,Press J if the face is GENDER-CONFORMING and K if the face is NONBINARY,Gender-conforming means that the face appears to be a typical example of its gender. Nonbinary means that the face does not conform to any particular gender norms.,JK,,,,,,,,,,,,,,,,,,,,,,,,,,,,,,,,4,0.5753,,,,,,,,,,,,,,0,26,26,67,1,,,,,,,,,,,,,space,0.6504,,,,,,,,,,,,,,,,,,,,,,,,,,,,,,,,,,,,,,,,,,,,,,,,,,,,,,,,,,,,,,,,,,,
,,,,515930,001,2023-10-10_01h52.28.639,fluency,2022.2.4,Win32,59.50255861,,,,,,,,,,,,,,,,,,,,,,,9,3,img/B03_09.jpg,GCNB,Press J if the face is GENDER-CONFORMING and K if the face is NONBINARY,Gender-conforming means that the face appears to be a typical example of its gender. Nonbinary means that the face does not conform to any particular gender norms.,JK,,,,,,,,,,,,,,,,,,,,,,,,,,,,,,,,,,,,,,,,,,,,,,737.9126,0,27,27,31,1,109,0,0,0,0,1,98,,,,,,,,,,,,,,,,,,,,,,,,,,,,,,,,,,,,,,,,,,,,,,,,,,,,,,,,,,,,,,,,,,,,,,,,,,
,,,,515930,001,2023-10-10_01h52.28.639,fluency,2022.2.4,Win32,59.50255861,,,,,,,,,,,,,,,,,,,,,,,,,,,,,,,,,,,,,,,,,,,,,,,,,,,,,,,,,,,,,,,,,,,,,,,,,,,,,,,,,,0,0,0,0,1,,"[""k"",""j""]","[1.1549000000952674,2.0509000000953392]",1,"[""k"",""j""]","[1.1549000000952674,2.0509000000953392]",,,,,,,,,,,,,,,,,,,,,,,,,,,,,,,,,,,,,,,,,,,,,,,,,,,,,,,,,,,,,,,,,,,,,
,,,,515930,001,2023-10-10_01h52.28.639,fluency,2022.2.4,Win32,59.50255861,,,,,,,,,,,,,,,,,,,,,,,9,3,img/B03_09.jpg,GCNB,Press J if the face is GENDER-CONFORMING and K if the face is NONBINARY,Gender-conforming means that the face appears to be a typical example of its gender. Nonbinary means that the face does not conform to any particular gender norms.,JK,,,,,,,,,,,,,,,,,,,,,,,,,,,,,,,,5,1.4078,,,,,,,,,,,,,,0,27,27,31,1,,,,,,,,,,,,,space,0.5592,,,,,,,,,,,,,,,,,,,,,,,,,,,,,,,,,,,,,,,,,,,,,,,,,,,,,,,,,,,,,,,,,,,
,,,,515930,001,2023-10-10_01h52.28.639,fluency,2022.2.4,Win32,59.50255861,,,,,,,,,,,,,,,,,,,,,,,6,10,img/B10_06.jpg,GCNB,Press J if the face is GENDER-CONFORMING and K if the face is NONBINARY,Gender-conforming means that the face appears to be a typical example of its gender. Nonbinary means that the face does not conform to any particular gender norms.,JK,,,,,,,,,,,,,,,,,,,,,,,,,,,,,,,,,,,,,,,,,,,,,,744.9262,0,28,28,105,1,109,0,0,0,0,1,98,,,,,,,,,,,,,,,,,,,,,,,,,,,,,,,,,,,,,,,,,,,,,,,,,,,,,,,,,,,,,,,,,,,,,,,,,,
,,,,515930,001,2023-10-10_01h52.28.639,fluency,2022.2.4,Win32,59.50255861,,,,,,,,,,,,,,,,,,,,,,,,,,,,,,,,,,,,,,,,,,,,,,,,,,,,,,,,,,,,,,,,,,,,,,,,,,,,,,,,,,0,0,0,0,1,,"[""k""]",[2.5914999999999964],1,"[""k""]",[2.5914999999999964],,,,,,,,,,,,,,,,,,,,,,,,,,,,,,,,,,,,,,,,,,,,,,,,,,,,,,,,,,,,,,,,,,,,,
,,,,515930,001,2023-10-10_01h52.28.639,fluency,2022.2.4,Win32,59.50255861,,,,,,,,,,,,,,,,,,,,,,,6,10,img/B10_06.jpg,GCNB,Press J if the face is GENDER-CONFORMING and K if the face is NONBINARY,Gender-conforming means that the face appears to be a typical example of its gender. Nonbinary means that the face does not conform to any particular gender norms.,JK,,,,,,,,,,,,,,,,,,,,,,,,,,,,,,,,4,2.0882,,,,,,,,,,,,,,0,28,28,105,1,,,,,,,,,,,,,space,0.4903,,,,,,,,,,,,,,,,,,,,,,,,,,,,,,,,,,,,,,,,,,,,,,,,,,,,,,,,,,,,,,,,,,,
,,,,515930,001,2023-10-10_01h52.28.639,fluency,2022.2.4,Win32,59.50255861,,,,,,,,,,,,,,,,,,,,,,,7,8,img/B08_07.jpg,GCNB,Press J if the face is GENDER-CONFORMING and K if the face is NONBINARY,Gender-conforming means that the face appears to be a typical example of its gender. Nonbinary means that the face does not conform to any particular gender norms.,JK,,,,,,,,,,,,,,,,,,,,,,,,,,,,,,,,,,,,,,,,,,,,,,751.5405,0,29,29,84,1,109,0,0,0,0,1,98,,,,,,,,,,,,,,,,,,,,,,,,,,,,,,,,,,,,,,,,,,,,,,,,,,,,,,,,,,,,,,,,,,,,,,,,,,
,,,,515930,001,2023-10-10_01h52.28.639,fluency,2022.2.4,Win32,59.50255861,,,,,,,,,,,,,,,,,,,,,,,,,,,,,,,,,,,,,,,,,,,,,,,,,,,,,,,,,,,,,,,,,,,,,,,,,,,,,,,,,,0,0,0,0,1,,"[""j""]",[1.521300000190763],1,"[""j""]",[1.5211999998092551],,,,,,,,,,,,,,,,,,,,,,,,,,,,,,,,,,,,,,,,,,,,,,,,,,,,,,,,,,,,,,,,,,,,,
,,,,515930,001,2023-10-10_01h52.28.639,fluency,2022.2.4,Win32,59.50255861,,,,,,,,,,,,,,,,,,,,,,,7,8,img/B08_07.jpg,GCNB,Press J if the face is GENDER-CONFORMING and K if the face is NONBINARY,Gender-conforming means that the face appears to be a typical example of its gender. Nonbinary means that the face does not conform to any particular gender norms.,JK,,,,,,,,,,,,,,,,,,,,,,,,,,,,,,,,4,3.2847,,,,,,,,,,,,,,0,29,29,84,1,,,,,,,,,,,,,space,0.9191,,,,,,,,,,,,,,,,,,,,,,,,,,,,,,,,,,,,,,,,,,,,,,,,,,,,,,,,,,,,,,,,,,,
,,,,515930,001,2023-10-10_01h52.28.639,fluency,2022.2.4,Win32,59.50255861,,,,,,,,,,,,,,,,,,,,,,,9,7,img/B07_09.jpg,GCNB,Press J if the face is GENDER-CONFORMING and K if the face is NONBINARY,Gender-conforming means that the face appears to be a typical example of its gender. Nonbinary means that the face does not conform to any particular gender norms.,JK,,,,,,,,,,,,,,,,,,,,,,,,,,,,,,,,,,,,,,,,,,,,,,760.803,0,30,30,75,1,109,0,0,0,0,1,98,,,,,,,,,,,,,,,,,,,,,,,,,,,,,,,,,,,,,,,,,,,,,,,,,,,,,,,,,,,,,,,,,,,,,,,,,,
,,,,515930,001,2023-10-10_01h52.28.639,fluency,2022.2.4,Win32,59.50255861,,,,,,,,,,,,,,,,,,,,,,,,,,,,,,,,,,,,,,,,,,,,,,,,,,,,,,,,,,,,,,,,,,,,,,,,,,,,,,,,,,0,0,0,0,1,,"[""j""]",[1.5727999997139932],1,"[""j""]",[1.5727999997139932],,,,,,,,,,,,,,,,,,,,,,,,,,,,,,,,,,,,,,,,,,,,,,,,,,,,,,,,,,,,,,,,,,,,,
,,,,515930,001,2023-10-10_01h52.28.639,fluency,2022.2.4,Win32,59.50255861,,,,,,,,,,,,,,,,,,,,,,,9,7,img/B07_09.jpg,GCNB,Press J if the face is GENDER-CONFORMING and K if the face is NONBINARY,Gender-conforming means that the face appears to be a typical example of its gender. Nonbinary means that the face does not conform to any particular gender norms.,JK,,,,,,,,,,,,,,,,,,,,,,,,,,,,,,,,5,1.7865,,,,,,,,,,,,,,0,30,30,75,1,,,,,,,,,,,,,space,2.7081,,,,,,,,,,,,,,,,,,,,,,,,,,,,,,,,,,,,,,,,,,,,,,,,,,,,,,,,,,,,,,,,,,,
,,,,515930,001,2023-10-10_01h52.28.639,fluency,2022.2.4,Win32,59.50255861,,,,,,,,,,,,,,,,,,,,,,,10,1,img/B01_10.jpg,GCNB,Press J if the face is GENDER-CONFORMING and K if the face is NONBINARY,Gender-conforming means that the face appears to be a typical example of its gender. Nonbinary means that the face does not conform to any particular gender norms.,JK,,,,,,,,,,,,,,,,,,,,,,,,,,,,,,,,,,,,,,,,,,,,,,769.3654,0,31,31,10,1,109,0,0,0,0,1,98,,,,,,,,,,,,,,,,,,,,,,,,,,,,,,,,,,,,,,,,,,,,,,,,,,,,,,,,,,,,,,,,,,,,,,,,,,
,,,,515930,001,2023-10-10_01h52.28.639,fluency,2022.2.4,Win32,59.50255861,,,,,,,,,,,,,,,,,,,,,,,,,,,,,,,,,,,,,,,,,,,,,,,,,,,,,,,,,,,,,,,,,,,,,,,,,,,,,,,,,,0,0,0,0,1,,"[""k""]",[2.4493999996184357],1,"[""k""]",[2.4493999996184357],,,,,,,,,,,,,,,,,,,,,,,,,,,,,,,,,,,,,,,,,,,,,,,,,,,,,,,,,,,,,,,,,,,,,
,,,,515930,001,2023-10-10_01h52.28.639,fluency,2022.2.4,Win32,59.50255861,,,,,,,,,,,,,,,,,,,,,,,10,1,img/B01_10.jpg,GCNB,Press J if the face is GENDER-CONFORMING and K if the face is NONBINARY,Gender-conforming means that the face appears to be a typical example of its gender. Nonbinary means that the face does not conform to any particular gender norms.,JK,,,,,,,,,,,,,,,,,,,,,,,,,,,,,,,,5,1.4421,,,,,,,,,,,,,,0,31,31,10,1,,,,,,,,,,,,,space,0.4703,,,,,,,,,,,,,,,,,,,,,,,,,,,,,,,,,,,,,,,,,,,,,,,,,,,,,,,,,,,,,,,,,,,
,,,,515930,001,2023-10-10_01h52.28.639,fluency,2022.2.4,Win32,59.50255861,,,,,,,,,,,,,,,,,,,,,,,3,2,img/B02_03.jpg,GCNB,Press J if the face is GENDER-CONFORMING and K if the face is NONBINARY,Gender-conforming means that the face appears to be a typical example of its gender. Nonbinary means that the face does not conform to any particular gender norms.,JK,,,,,,,,,,,,,,,,,,,,,,,,,,,,,,,,,,,,,,,,,,,,,,775.3298,0,32,32,14,1,109,0,0,0,0,1,98,,,,,,,,,,,,,,,,,,,,,,,,,,,,,,,,,,,,,,,,,,,,,,,,,,,,,,,,,,,,,,,,,,,,,,,,,,
,,,,515930,001,2023-10-10_01h52.28.639,fluency,2022.2.4,Win32,59.50255861,,,,,,,,,,,,,,,,,,,,,,,,,,,,,,,,,,,,,,,,,,,,,,,,,,,,,,,,,,,,,,,,,,,,,,,,,,,,,,,,,,0,0,0,0,1,,"[""k""]",[1.9394999999999527],1,"[""k""]",[1.939599999904658],,,,,,,,,,,,,,,,,,,,,,,,,,,,,,,,,,,,,,,,,,,,,,,,,,,,,,,,,,,,,,,,,,,,,
,,,,515930,001,2023-10-10_01h52.28.639,fluency,2022.2.4,Win32,59.50255861,,,,,,,,,,,,,,,,,,,,,,,3,2,img/B02_03.jpg,GCNB,Press J if the face is GENDER-CONFORMING and K if the face is NONBINARY,Gender-conforming means that the face appears to be a typical example of its gender. Nonbinary means that the face does not conform to any particular gender norms.,JK,,,,,,,,,,,,,,,,,,,,,,,,,,,,,,,,4,3.2111,,,,,,,,,,,,,,0,32,32,14,1,,,,,,,,,,,,,space,0.5808,,,,,,,,,,,,,,,,,,,,,,,,,,,,,,,,,,,,,,,,,,,,,,,,,,,,,,,,,,,,,,,,,,,
,,,,515930,001,2023-10-10_01h52.28.639,fluency,2022.2.4,Win32,59.50255861,,,,,,,,,,,,,,,,,,,,,,,5,10,img/B10_05.jpg,GCNB,Press J if the face is GENDER-CONFORMING and K if the face is NONBINARY,Gender-conforming means that the face appears to be a typical example of its gender. Nonbinary means that the face does not conform to any particular gender norms.,JK,,,,,,,,,,,,,,,,,,,,,,,,,,,,,,,,,,,,,,,,,,,,,,784.1754,0,33,33,104,1,109,0,0,0,0,1,98,,,,,,,,,,,,,,,,,,,,,,,,,,,,,,,,,,,,,,,,,,,,,,,,,,,,,,,,,,,,,,,,,,,,,,,,,,
,,,,515930,001,2023-10-10_01h52.28.639,fluency,2022.2.4,Win32,59.50255861,,,,,,,,,,,,,,,,,,,,,,,,,,,,,,,,,,,,,,,,,,,,,,,,,,,,,,,,,,,,,,,,,,,,,,,,,,,,,,,,,,0,0,0,0,1,,"[""k""]",[1.977599999904669],1,"[""k""]",[1.9774999999999636],,,,,,,,,,,,,,,,,,,,,,,,,,,,,,,,,,,,,,,,,,,,,,,,,,,,,,,,,,,,,,,,,,,,,
,,,,515930,001,2023-10-10_01h52.28.639,fluency,2022.2.4,Win32,59.50255861,,,,,,,,,,,,,,,,,,,,,,,5,10,img/B10_05.jpg,GCNB,Press J if the face is GENDER-CONFORMING and K if the face is NONBINARY,Gender-conforming means that the face appears to be a typical example of its gender. Nonbinary means that the face does not conform to any particular gender norms.,JK,,,,,,,,,,,,,,,,,,,,,,,,,,,,,,,,5,1.238,,,,,,,,,,,,,,0,33,33,104,1,,,,,,,,,,,,,space,1.2359,,,,,,,,,,,,,,,,,,,,,,,,,,,,,,,,,,,,,,,,,,,,,,,,,,,,,,,,,,,,,,,,,,,
,,,,515930,001,2023-10-10_01h52.28.639,fluency,2022.2.4,Win32,59.50255861,,,,,,,,,,,,,,,,,,,,,,,5,9,img/B09_05.jpg,GCNB,Press J if the face is GENDER-CONFORMING and K if the face is NONBINARY,Gender-conforming means that the face appears to be a typical example of its gender. Nonbinary means that the face does not conform to any particular gender norms.,JK,,,,,,,,,,,,,,,,,,,,,,,,,,,,,,,,,,,,,,,,,,,,,,791.7054,0,34,34,93,1,109,0,0,0,0,1,98,,,,,,,,,,,,,,,,,,,,,,,,,,,,,,,,,,,,,,,,,,,,,,,,,,,,,,,,,,,,,,,,,,,,,,,,,,
,,,,515930,001,2023-10-10_01h52.28.639,fluency,2022.2.4,Win32,59.50255861,,,,,,,,,,,,,,,,,,,,,,,,,,,,,,,,,,,,,,,,,,,,,,,,,,,,,,,,,,,,,,,,,,,,,,,,,,,,,,,,,,0,0,0,0,1,,"[""k""]",[1.5287999997138968],1,"[""k""]",[1.5286999998093052],,,,,,,,,,,,,,,,,,,,,,,,,,,,,,,,,,,,,,,,,,,,,,,,,,,,,,,,,,,,,,,,,,,,,
,,,,515930,001,2023-10-10_01h52.28.639,fluency,2022.2.4,Win32,59.50255861,,,,,,,,,,,,,,,,,,,,,,,5,9,img/B09_05.jpg,GCNB,Press J if the face is GENDER-CONFORMING and K if the face is NONBINARY,Gender-conforming means that the face appears to be a typical example of its gender. Nonbinary means that the face does not conform to any particular gender norms.,JK,,,,,,,,,,,,,,,,,,,,,,,,,,,,,,,,6,2.8606,,,,,,,,,,,,,,0,34,34,93,1,,,,,,,,,,,,,space,2.0231,,,,,,,,,,,,,,,,,,,,,,,,,,,,,,,,,,,,,,,,,,,,,,,,,,,,,,,,,,,,,,,,,,,
,,,,515930,001,2023-10-10_01h52.28.639,fluency,2022.2.4,Win32,59.50255861,,,,,,,,,,,,,,,,,,,,,,,7,4,img/B04_07.jpg,GCNB,Press J if the face is GENDER-CONFORMING and K if the face is NONBINARY,Gender-conforming means that the face appears to be a typical example of its gender. Nonbinary means that the face does not conform to any particular gender norms.,JK,,,,,,,,,,,,,,,,,,,,,,,,,,,,,,,,,,,,,,,,,,,,,,801.6509,0,35,35,40,1,109,0,0,0,0,1,98,,,,,,,,,,,,,,,,,,,,,,,,,,,,,,,,,,,,,,,,,,,,,,,,,,,,,,,,,,,,,,,,,,,,,,,,,,
,,,,515930,001,2023-10-10_01h52.28.639,fluency,2022.2.4,Win32,59.50255861,,,,,,,,,,,,,,,,,,,,,,,,,,,,,,,,,,,,,,,,,,,,,,,,,,,,,,,,,,,,,,,,,,,,,,,,,,,,,,,,,,0,0,0,0,1,,"[""k""]",[2.1334000000954347],1,"[""k""]",[2.1334000000954347],,,,,,,,,,,,,,,,,,,,,,,,,,,,,,,,,,,,,,,,,,,,,,,,,,,,,,,,,,,,,,,,,,,,,
,,,,515930,001,2023-10-10_01h52.28.639,fluency,2022.2.4,Win32,59.50255861,,,,,,,,,,,,,,,,,,,,,,,7,4,img/B04_07.jpg,GCNB,Press J if the face is GENDER-CONFORMING and K if the face is NONBINARY,Gender-conforming means that the face appears to be a typical example of its gender. Nonbinary means that the face does not conform to any particular gender norms.,JK,,,,,,,,,,,,,,,,,,,,,,,,,,,,,,,,5,1.4774,,,,,,,,,,,,,,0,35,35,40,1,,,,,,,,,,,,,space,0.8346,,,,,,,,,,,,,,,,,,,,,,,,,,,,,,,,,,,,,,,,,,,,,,,,,,,,,,,,,,,,,,,,,,,
,,,,515930,001,2023-10-10_01h52.28.639,fluency,2022.2.4,Win32,59.50255861,,,,,,,,,,,,,,,,,,,,,,,2,4,img/B04_02.jpg,GCNB,Press J if the face is GENDER-CONFORMING and K if the face is NONBINARY,Gender-conforming means that the face appears to be a typical example of its gender. Nonbinary means that the face does not conform to any particular gender norms.,JK,,,,,,,,,,,,,,,,,,,,,,,,,,,,,,,,,,,,,,,,,,,,,,808.0148,0,36,36,35,1,109,0,0,0,0,1,98,,,,,,,,,,,,,,,,,,,,,,,,,,,,,,,,,,,,,,,,,,,,,,,,,,,,,,,,,,,,,,,,,,,,,,,,,,
,,,,515930,001,2023-10-10_01h52.28.639,fluency,2022.2.4,Win32,59.50255861,,,,,,,,,,,,,,,,,,,,,,,,,,,,,,,,,,,,,,,,,,,,,,,,,,,,,,,,,,,,,,,,,,,,,,,,,,,,,,,,,,0,0,0,0,1,,"[""j""]",[1.9181999998093033],1,"[""j""]",[1.9183000001908113],,,,,,,,,,,,,,,,,,,,,,,,,,,,,,,,,,,,,,,,,,,,,,,,,,,,,,,,,,,,,,,,,,,,,
,,,,515930,001,2023-10-10_01h52.28.639,fluency,2022.2.4,Win32,59.50255861,,,,,,,,,,,,,,,,,,,,,,,2,4,img/B04_02.jpg,GCNB,Press J if the face is GENDER-CONFORMING and K if the face is NONBINARY,Gender-conforming means that the face appears to be a typical example of its gender. Nonbinary means that the face does not conform to any particular gender norms.,JK,,,,,,,,,,,,,,,,,,,,,,,,,,,,,,,,5,2.1867,,,,,,,,,,,,,,0,36,36,35,1,,,,,,,,,,,,,space,0.6059,,,,,,,,,,,,,,,,,,,,,,,,,,,,,,,,,,,,,,,,,,,,,,,,,,,,,,,,,,,,,,,,,,,
,,,,515930,001,2023-10-10_01h52.28.639,fluency,2022.2.4,Win32,59.50255861,,,,,,,,,,,,,,,,,,,,,,,8,7,img/B07_08.jpg,GCNB,Press J if the face is GENDER-CONFORMING and K if the face is NONBINARY,Gender-conforming means that the face appears to be a typical example of its gender. Nonbinary means that the face does not conform to any particular gender norms.,JK,,,,,,,,,,,,,,,,,,,,,,,,,,,,,,,,,,,,,,,,,,,,,,814.8786,0,37,37,74,1,109,0,0,0,0,1,98,,,,,,,,,,,,,,,,,,,,,,,,,,,,,,,,,,,,,,,,,,,,,,,,,,,,,,,,,,,,,,,,,,,,,,,,,,
,,,,515930,001,2023-10-10_01h52.28.639,fluency,2022.2.4,Win32,59.50255861,,,,,,,,,,,,,,,,,,,,,,,,,,,,,,,,,,,,,,,,,,,,,,,,,,,,,,,,,,,,,,,,,,,,,,,,,,,,,,,,,,0,0,0,0,1,,"[""j""]",[2.7268000001906785],1,"[""j""]",[2.7268000001906785],,,,,,,,,,,,,,,,,,,,,,,,,,,,,,,,,,,,,,,,,,,,,,,,,,,,,,,,,,,,,,,,,,,,,
,,,,515930,001,2023-10-10_01h52.28.639,fluency,2022.2.4,Win32,59.50255861,,,,,,,,,,,,,,,,,,,,,,,8,7,img/B07_08.jpg,GCNB,Press J if the face is GENDER-CONFORMING and K if the face is NONBINARY,Gender-conforming means that the face appears to be a typical example of its gender. Nonbinary means that the face does not conform to any particular gender norms.,JK,,,,,,,,,,,,,,,,,,,,,,,,,,,,,,,,5,2.2192,,,,,,,,,,,,,,0,37,37,74,1,,,,,,,,,,,,,space,1.1513,,,,,,,,,,,,,,,,,,,,,,,,,,,,,,,,,,,,,,,,,,,,,,,,,,,,,,,,,,,,,,,,,,,
,,,,515930,001,2023-10-10_01h52.28.639,fluency,2022.2.4,Win32,59.50255861,,,,,,,,,,,,,,,,,,,,,,,5,8,img/B08_05.jpg,GCNB,Press J if the face is GENDER-CONFORMING and K if the face is NONBINARY,Gender-conforming means that the face appears to be a typical example of its gender. Nonbinary means that the face does not conform to any particular gender norms.,JK,,,,,,,,,,,,,,,,,,,,,,,,,,,,,,,,,,,,,,,,,,,,,,822.3262,0,38,38,82,1,109,0,0,0,0,1,98,,,,,,,,,,,,,,,,,,,,,,,,,,,,,,,,,,,,,,,,,,,,,,,,,,,,,,,,,,,,,,,,,,,,,,,,,,
,,,,515930,001,2023-10-10_01h52.28.639,fluency,2022.2.4,Win32,59.50255861,,,,,,,,,,,,,,,,,,,,,,,,,,,,,,,,,,,,,,,,,,,,,,,,,,,,,,,,,,,,,,,,,,,,,,,,,,,,,,,,,,0,0,0,0,1,,"[""j""]",[1.801699999809216],1,"[""j""]",[1.8015999999046244],,,,,,,,,,,,,,,,,,,,,,,,,,,,,,,,,,,,,,,,,,,,,,,,,,,,,,,,,,,,,,,,,,,,,
,,,,515930,001,2023-10-10_01h52.28.639,fluency,2022.2.4,Win32,59.50255861,,,,,,,,,,,,,,,,,,,,,,,5,8,img/B08_05.jpg,GCNB,Press J if the face is GENDER-CONFORMING and K if the face is NONBINARY,Gender-conforming means that the face appears to be a typical example of its gender. Nonbinary means that the face does not conform to any particular gender norms.,JK,,,,,,,,,,,,,,,,,,,,,,,,,,,,,,,,5,1.921,,,,,,,,,,,,,,0,38,38,82,1,,,,,,,,,,,,,space,0.9218,,,,,,,,,,,,,,,,,,,,,,,,,,,,,,,,,,,,,,,,,,,,,,,,,,,,,,,,,,,,,,,,,,,
,,,,515930,001,2023-10-10_01h52.28.639,fluency,2022.2.4,Win32,59.50255861,,,,,,,,,,,,,,,,,,,,,,,8,2,img/B02_08.jpg,GCNB,Press J if the face is GENDER-CONFORMING and K if the face is NONBINARY,Gender-conforming means that the face appears to be a typical example of its gender. Nonbinary means that the face does not conform to any particular gender norms.,JK,,,,,,,,,,,,,,,,,,,,,,,,,,,,,,,,,,,,,,,,,,,,,,830.2215,0,39,39,19,1,109,0,0,0,0,1,98,,,,,,,,,,,,,,,,,,,,,,,,,,,,,,,,,,,,,,,,,,,,,,,,,,,,,,,,,,,,,,,,,,,,,,,,,,
,,,,515930,001,2023-10-10_01h52.28.639,fluency,2022.2.4,Win32,59.50255861,,,,,,,,,,,,,,,,,,,,,,,,,,,,,,,,,,,,,,,,,,,,,,,,,,,,,,,,,,,,,,,,,,,,,,,,,,,,,,,,,,0,0,0,0,1,,"[""k""]",[2.263200000286133],1,"[""k""]",[2.263100000381428],,,,,,,,,,,,,,,,,,,,,,,,,,,,,,,,,,,,,,,,,,,,,,,,,,,,,,,,,,,,,,,,,,,,,
,,,,515930,001,2023-10-10_01h52.28.639,fluency,2022.2.4,Win32,59.50255861,,,,,,,,,,,,,,,,,,,,,,,8,2,img/B02_08.jpg,GCNB,Press J if the face is GENDER-CONFORMING and K if the face is NONBINARY,Gender-conforming means that the face appears to be a typical example of its gender. Nonbinary means that the face does not conform to any particular gender norms.,JK,,,,,,,,,,,,,,,,,,,,,,,,,,,,,,,,4,0.9382,,,,,,,,,,,,,,0,39,39,19,1,,,,,,,,,,,,,space,0.574,,,,,,,,,,,,,,,,,,,,,,,,,,,,,,,,,,,,,,,,,,,,,,,,,,,,,,,,,,,,,,,,,,,
,,,,515930,001,2023-10-10_01h52.28.639,fluency,2022.2.4,Win32,59.50255861,,,,,,,,,,,,,,,,,,,,,,,8,8,img/B08_08.jpg,GCNB,Press J if the face is GENDER-CONFORMING and K if the face is NONBINARY,Gender-conforming means that the face appears to be a typical example of its gender. Nonbinary means that the face does not conform to any particular gender norms.,JK,,,,,,,,,,,,,,,,,,,,,,,,,,,,,,,,,,,,,,,,,,,,,,835.7857,0,40,40,85,1,109,0,0,0,0,1,98,,,,,,,,,,,,,,,,,,,,,,,,,,,,,,,,,,,,,,,,,,,,,,,,,,,,,,,,,,,,,,,,,,,,,,,,,,
,,,,515930,001,2023-10-10_01h52.28.639,fluency,2022.2.4,Win32,59.50255861,,,,,,,,,,,,,,,,,,,,,,,,,,,,,,,,,,,,,,,,,,,,,,,,,,,,,,,,,,,,,,,,,,,,,,,,,,,,,,,,,,0,0,0,0,1,,"[""j""]",[1.6644999999999754],1,"[""j""]",[1.6644000000952701],,,,,,,,,,,,,,,,,,,,,,,,,,,,,,,,,,,,,,,,,,,,,,,,,,,,,,,,,,,,,,,,,,,,,
,,,,515930,001,2023-10-10_01h52.28.639,fluency,2022.2.4,Win32,59.50255861,,,,,,,,,,,,,,,,,,,,,,,8,8,img/B08_08.jpg,GCNB,Press J if the face is GENDER-CONFORMING and K if the face is NONBINARY,Gender-conforming means that the face appears to be a typical example of its gender. Nonbinary means that the face does not conform to any particular gender norms.,JK,,,,,,,,,,,,,,,,,,,,,,,,,,,,,,,,4,0.4264,,,,,,,,,,,,,,0,40,40,85,1,,,,,,,,,,,,,space,0.7339,,,,,,,,,,,,,,,,,,,,,,,,,,,,,,,,,,,,,,,,,,,,,,,,,,,,,,,,,,,,,,,,,,,
,,,,515930,001,2023-10-10_01h52.28.639,fluency,2022.2.4,Win32,59.50255861,,,,,,,,,,,,,,,,,,,,,,,9,1,img/B01_09.jpg,GCNB,Press J if the face is GENDER-CONFORMING and K if the face is NONBINARY,Gender-conforming means that the face appears to be a typical example of its gender. Nonbinary means that the face does not conform to any particular gender norms.,JK,,,,,,,,,,,,,,,,,,,,,,,,,,,,,,,,,,,,,,,,,,,,,,842.0008,0,41,41,9,1,109,0,0,0,0,1,98,,,,,,,,,,,,,,,,,,,,,,,,,,,,,,,,,,,,,,,,,,,,,,,,,,,,,,,,,,,,,,,,,,,,,,,,,,
,,,,515930,001,2023-10-10_01h52.28.639,fluency,2022.2.4,Win32,59.50255861,,,,,,,,,,,,,,,,,,,,,,,,,,,,,,,,,,,,,,,,,,,,,,,,,,,,,,,,,,,,,,,,,,,,,,,,,,,,,,,,,,0,0,0,0,1,,"[""k""]",[2.707699999809279],1,"[""k""]",[2.7075999999045735],,,,,,,,,,,,,,,,,,,,,,,,,,,,,,,,,,,,,,,,,,,,,,,,,,,,,,,,,,,,,,,,,,,,,
,,,,515930,001,2023-10-10_01h52.28.639,fluency,2022.2.4,Win32,59.50255861,,,,,,,,,,,,,,,,,,,,,,,9,1,img/B01_09.jpg,GCNB,Press J if the face is GENDER-CONFORMING and K if the face is NONBINARY,Gender-conforming means that the face appears to be a typical example of its gender. Nonbinary means that the face does not conform to any particular gender norms.,JK,,,,,,,,,,,,,,,,,,,,,,,,,,,,,,,,5,1.6993,,,,,,,,,,,,,,0,41,41,9,1,,,,,,,,,,,,,space,0.601,,,,,,,,,,,,,,,,,,,,,,,,,,,,,,,,,,,,,,,,,,,,,,,,,,,,,,,,,,,,,,,,,,,
,,,,515930,001,2023-10-10_01h52.28.639,fluency,2022.2.4,Win32,59.50255861,,,,,,,,,,,,,,,,,,,,,,,9,8,img/B08_09.jpg,GCNB,Press J if the face is GENDER-CONFORMING and K if the face is NONBINARY,Gender-conforming means that the face appears to be a typical example of its gender. Nonbinary means that the face does not conform to any particular gender norms.,JK,,,,,,,,,,,,,,,,,,,,,,,,,,,,,,,,,,,,,,,,,,,,,,849.3809,0,42,42,86,1,109,0,0,0,0,1,98,,,,,,,,,,,,,,,,,,,,,,,,,,,,,,,,,,,,,,,,,,,,,,,,,,,,,,,,,,,,,,,,,,,,,,,,,,
,,,,515930,001,2023-10-10_01h52.28.639,fluency,2022.2.4,Win32,59.50255861,,,,,,,,,,,,,,,,,,,,,,,,,,,,,,,,,,,,,,,,,,,,,,,,,,,,,,,,,,,,,,,,,,,,,,,,,,,,,,,,,,0,0,0,0,1,,"[""j""]",[0.9940999999046198],1,"[""j"",""4""]","[0.9940000000000282,2.016599999904656]",,,,,,,,,,,,,,,,,,,,,,,,,,,,,,,,,,,,,,,,,,,,,,,,,,,,,,,,,,,,,,,,,,,,,
,,,,515930,001,2023-10-10_01h52.28.639,fluency,2022.2.4,Win32,59.50255861,,,,,,,,,,,,,,,,,,,,,,,9,8,img/B08_09.jpg,GCNB,Press J if the face is GENDER-CONFORMING and K if the face is NONBINARY,Gender-conforming means that the face appears to be a typical example of its gender. Nonbinary means that the face does not conform to any particular gender norms.,JK,,,,,,,,,,,,,,,,,,,,,,,,,,,,,,,,4,0.3654,,,,,,,,,,,,,,0,42,42,86,1,,,,,,,,,,,,,space,0.5007,,,,,,,,,,,,,,,,,,,,,,,,,,,,,,,,,,,,,,,,,,,,,,,,,,,,,,,,,,,,,,,,,,,
,,,,515930,001,2023-10-10_01h52.28.639,fluency,2022.2.4,Win32,59.50255861,,,,,,,,,,,,,,,,,,,,,,,2,1,img/B01_02.jpg,GCNB,Press J if the face is GENDER-CONFORMING and K if the face is NONBINARY,Gender-conforming means that the face appears to be a typical example of its gender. Nonbinary means that the face does not conform to any particular gender norms.,JK,,,,,,,,,,,,,,,,,,,,,,,,,,,,,,,,,,,,,,,,,,,,,,854.3118,0,43,43,2,1,109,0,0,0,0,1,98,,,,,,,,,,,,,,,,,,,,,,,,,,,,,,,,,,,,,,,,,,,,,,,,,,,,,,,,,,,,,,,,,,,,,,,,,,
,,,,515930,001,2023-10-10_01h52.28.639,fluency,2022.2.4,Win32,59.50255861,,,,,,,,,,,,,,,,,,,,,,,,,,,,,,,,,,,,,,,,,,,,,,,,,,,,,,,,,,,,,,,,,,,,,,,,,,,,,,,,,,0,0,0,0,1,,"[""j""]",[1.2732000002861241],1,"[""j""]",[1.2730999999046162],,,,,,,,,,,,,,,,,,,,,,,,,,,,,,,,,,,,,,,,,,,,,,,,,,,,,,,,,,,,,,,,,,,,,
,,,,515930,001,2023-10-10_01h52.28.639,fluency,2022.2.4,Win32,59.50255861,,,,,,,,,,,,,,,,,,,,,,,2,1,img/B01_02.jpg,GCNB,Press J if the face is GENDER-CONFORMING and K if the face is NONBINARY,Gender-conforming means that the face appears to be a typical example of its gender. Nonbinary means that the face does not conform to any particular gender norms.,JK,,,,,,,,,,,,,,,,,,,,,,,,,,,,,,,,3,1.1162,,,,,,,,,,,,,,0,43,43,2,1,,,,,,,,,,,,,space,0.5846,,,,,,,,,,,,,,,,,,,,,,,,,,,,,,,,,,,,,,,,,,,,,,,,,,,,,,,,,,,,,,,,,,,
,,,,515930,001,2023-10-10_01h52.28.639,fluency,2022.2.4,Win32,59.50255861,,,,,,,,,,,,,,,,,,,,,,,3,5,img/B05_03.jpg,GCNB,Press J if the face is GENDER-CONFORMING and K if the face is NONBINARY,Gender-conforming means that the face appears to be a typical example of its gender. Nonbinary means that the face does not conform to any particular gender norms.,JK,,,,,,,,,,,,,,,,,,,,,,,,,,,,,,,,,,,,,,,,,,,,,,860.0925,0,44,44,47,1,109,0,0,0,0,1,98,,,,,,,,,,,,,,,,,,,,,,,,,,,,,,,,,,,,,,,,,,,,,,,,,,,,,,,,,,,,,,,,,,,,,,,,,,
,,,,515930,001,2023-10-10_01h52.28.639,fluency,2022.2.4,Win32,59.50255861,,,,,,,,,,,,,,,,,,,,,,,,,,,,,,,,,,,,,,,,,,,,,,,,,,,,,,,,,,,,,,,,,,,,,,,,,,,,,,,,,,0,0,0,0,1,,"[""k""]",[2.7574000000953447],1,"[""k""]",[2.75750000000005],,,,,,,,,,,,,,,,,,,,,,,,,,,,,,,,,,,,,,,,,,,,,,,,,,,,,,,,,,,,,,,,,,,,,
,,,,515930,001,2023-10-10_01h52.28.639,fluency,2022.2.4,Win32,59.50255861,,,,,,,,,,,,,,,,,,,,,,,3,5,img/B05_03.jpg,GCNB,Press J if the face is GENDER-CONFORMING and K if the face is NONBINARY,Gender-conforming means that the face appears to be a typical example of its gender. Nonbinary means that the face does not conform to any particular gender norms.,JK,,,,,,,,,,,,,,,,,,,,,,,,,,,,,,,,4,4.4193,,,,,,,,,,,,,,0,44,44,47,1,,,,,,,,,,,,,space,0.5162,,,,,,,,,,,,,,,,,,,,,,,,,,,,,,,,,,,,,,,,,,,,,,,,,,,,,,,,,,,,,,,,,,,
,,,,515930,001,2023-10-10_01h52.28.639,fluency,2022.2.4,Win32,59.50255861,,,,,,,,,,,,,,,,,,,,,,,6,2,img/B02_06.jpg,GCNB,Press J if the face is GENDER-CONFORMING and K if the face is NONBINARY,Gender-conforming means that the face appears to be a typical example of its gender. Nonbinary means that the face does not conform to any particular gender norms.,JK,,,,,,,,,,,,,,,,,,,,,,,,,,,,,,,,,,,,,,,,,,,,,,870.1214,0,45,45,17,1,109,0,0,0,0,1,98,,,,,,,,,,,,,,,,,,,,,,,,,,,,,,,,,,,,,,,,,,,,,,,,,,,,,,,,,,,,,,,,,,,,,,,,,,
,,,,515930,001,2023-10-10_01h52.28.639,fluency,2022.2.4,Win32,59.50255861,,,,,,,,,,,,,,,,,,,,,,,,,,,,,,,,,,,,,,,,,,,,,,,,,,,,,,,,,,,,,,,,,,,,,,,,,,,,,,,,,,0,0,0,0,1,,"[""k""]",[1.70799999999997],1,"[""k""]",[1.7079000000953783],,,,,,,,,,,,,,,,,,,,,,,,,,,,,,,,,,,,,,,,,,,,,,,,,,,,,,,,,,,,,,,,,,,,,
,,,,515930,001,2023-10-10_01h52.28.639,fluency,2022.2.4,Win32,59.50255861,,,,,,,,,,,,,,,,,,,,,,,6,2,img/B02_06.jpg,GCNB,Press J if the face is GENDER-CONFORMING and K if the face is NONBINARY,Gender-conforming means that the face appears to be a typical example of its gender. Nonbinary means that the face does not conform to any particular gender norms.,JK,,,,,,,,,,,,,,,,,,,,,,,,,,,,,,,,4,2.7003,,,,,,,,,,,,,,0,45,45,17,1,,,,,,,,,,,,,space,0.5337,,,,,,,,,,,,,,,,,,,,,,,,,,,,,,,,,,,,,,,,,,,,,,,,,,,,,,,,,,,,,,,,,,,
,,,,515930,001,2023-10-10_01h52.28.639,fluency,2022.2.4,Win32,59.50255861,,,,,,,,,,,,,,,,,,,,,,,5,6,img/B06_05.jpg,GCNB,Press J if the face is GENDER-CONFORMING and K if the face is NONBINARY,Gender-conforming means that the face appears to be a typical example of its gender. Nonbinary means that the face does not conform to any particular gender norms.,JK,,,,,,,,,,,,,,,,,,,,,,,,,,,,,,,,,,,,,,,,,,,,,,877.4349,0,46,46,60,1,109,0,0,0,0,1,98,,,,,,,,,,,,,,,,,,,,,,,,,,,,,,,,,,,,,,,,,,,,,,,,,,,,,,,,,,,,,,,,,,,,,,,,,,
,,,,515930,001,2023-10-10_01h52.28.639,fluency,2022.2.4,Win32,59.50255861,,,,,,,,,,,,,,,,,,,,,,,,,,,,,,,,,,,,,,,,,,,,,,,,,,,,,,,,,,,,,,,,,,,,,,,,,,,,,,,,,,0,0,0,0,1,,"[""j""]",[1.2871999998092178],1,"[""j""]",[1.2870999999046262],,,,,,,,,,,,,,,,,,,,,,,,,,,,,,,,,,,,,,,,,,,,,,,,,,,,,,,,,,,,,,,,,,,,,
,,,,515930,001,2023-10-10_01h52.28.639,fluency,2022.2.4,Win32,59.50255861,,,,,,,,,,,,,,,,,,,,,,,5,6,img/B06_05.jpg,GCNB,Press J if the face is GENDER-CONFORMING and K if the face is NONBINARY,Gender-conforming means that the face appears to be a typical example of its gender. Nonbinary means that the face does not conform to any particular gender norms.,JK,,,,,,,,,,,,,,,,,,,,,,,,,,,,,,,,4,1.2653,,,,,,,,,,,,,,0,46,46,60,1,,,,,,,,,,,,,space,0.5744,,,,,,,,,,,,,,,,,,,,,,,,,,,,,,,,,,,,,,,,,,,,,,,,,,,,,,,,,,,,,,,,,,,
,,,,515930,001,2023-10-10_01h52.28.639,fluency,2022.2.4,Win32,59.50255861,,,,,,,,,,,,,,,,,,,,,,,6,1,img/B01_06.jpg,GCNB,Press J if the face is GENDER-CONFORMING and K if the face is NONBINARY,Gender-conforming means that the face appears to be a typical example of its gender. Nonbinary means that the face does not conform to any particular gender norms.,JK,,,,,,,,,,,,,,,,,,,,,,,,,,,,,,,,,,,,,,,,,,,,,,883.3323,0,47,47,6,1,109,0,0,0,0,1,98,,,,,,,,,,,,,,,,,,,,,,,,,,,,,,,,,,,,,,,,,,,,,,,,,,,,,,,,,,,,,,,,,,,,,,,,,,
,,,,515930,001,2023-10-10_01h52.28.639,fluency,2022.2.4,Win32,59.50255861,,,,,,,,,,,,,,,,,,,,,,,,,,,,,,,,,,,,,,,,,,,,,,,,,,,,,,,,,,,,,,,,,,,,,,,,,,,,,,,,,,0,0,0,0,1,,"[""j""]",[2.626700000286064],1,"[""j""]",[2.6264999999999645],,,,,,,,,,,,,,,,,,,,,,,,,,,,,,,,,,,,,,,,,,,,,,,,,,,,,,,,,,,,,,,,,,,,,
,,,,515930,001,2023-10-10_01h52.28.639,fluency,2022.2.4,Win32,59.50255861,,,,,,,,,,,,,,,,,,,,,,,6,1,img/B01_06.jpg,GCNB,Press J if the face is GENDER-CONFORMING and K if the face is NONBINARY,Gender-conforming means that the face appears to be a typical example of its gender. Nonbinary means that the face does not conform to any particular gender norms.,JK,,,,,,,,,,,,,,,,,,,,,,,,,,,,,,,,4,1.6231,,,,,,,,,,,,,,0,47,47,6,1,,,,,,,,,,,,,space,0.4723,,,,,,,,,,,,,,,,,,,,,,,,,,,,,,,,,,,,,,,,,,,,,,,,,,,,,,,,,,,,,,,,,,,
,,,,515930,001,2023-10-10_01h52.28.639,fluency,2022.2.4,Win32,59.50255861,,,,,,,,,,,,,,,,,,,,,,,7,10,img/B10_07.jpg,GCNB,Press J if the face is GENDER-CONFORMING and K if the face is NONBINARY,Gender-conforming means that the face appears to be a typical example of its gender. Nonbinary means that the face does not conform to any particular gender norms.,JK,,,,,,,,,,,,,,,,,,,,,,,,,,,,,,,,,,,,,,,,,,,,,,890.4792,0,48,48,106,1,109,0,0,0,0,1,98,,,,,,,,,,,,,,,,,,,,,,,,,,,,,,,,,,,,,,,,,,,,,,,,,,,,,,,,,,,,,,,,,,,,,,,,,,
,,,,515930,001,2023-10-10_01h52.28.639,fluency,2022.2.4,Win32,59.50255861,,,,,,,,,,,,,,,,,,,,,,,,,,,,,,,,,,,,,,,,,,,,,,,,,,,,,,,,,,,,,,,,,,,,,,,,,,,,,,,,,,0,0,0,0,1,,"[""k""]",[2.592399999618465],1,"[""k""]",[2.592399999618465],,,,,,,,,,,,,,,,,,,,,,,,,,,,,,,,,,,,,,,,,,,,,,,,,,,,,,,,,,,,,,,,,,,,,
,,,,515930,001,2023-10-10_01h52.28.639,fluency,2022.2.4,Win32,59.50255861,,,,,,,,,,,,,,,,,,,,,,,7,10,img/B10_07.jpg,GCNB,Press J if the face is GENDER-CONFORMING and K if the face is NONBINARY,Gender-conforming means that the face appears to be a typical example of its gender. Nonbinary means that the face does not conform to any particular gender norms.,JK,,,,,,,,,,,,,,,,,,,,,,,,,,,,,,,,4,2.4668,,,,,,,,,,,,,,0,48,48,106,1,,,,,,,,,,,,,space,0.5645,,,,,,,,,,,,,,,,,,,,,,,,,,,,,,,,,,,,,,,,,,,,,,,,,,,,,,,,,,,,,,,,,,,
,,,,515930,001,2023-10-10_01h52.28.639,fluency,2022.2.4,Win32,59.50255861,,,,,,,,,,,,,,,,,,,,,,,6,6,img/B06_06.jpg,GCNB,Press J if the face is GENDER-CONFORMING and K if the face is NONBINARY,Gender-conforming means that the face appears to be a typical example of its gender. Nonbinary means that the face does not conform to any particular gender norms.,JK,,,,,,,,,,,,,,,,,,,,,,,,,,,,,,,,,,,,,,,,,,,,,,897.5922,0,49,49,61,1,109,0,0,0,0,1,98,,,,,,,,,,,,,,,,,,,,,,,,,,,,,,,,,,,,,,,,,,,,,,,,,,,,,,,,,,,,,,,,,,,,,,,,,,
,,,,515930,001,2023-10-10_01h52.28.639,fluency,2022.2.4,Win32,59.50255861,,,,,,,,,,,,,,,,,,,,,,,,,,,,,,,,,,,,,,,,,,,,,,,,,,,,,,,,,,,,,,,,,,,,,,,,,,,,,,,,,,0,0,0,0,1,,"[""k""]",[2.085599999904616],1,"[""k""]",[2.0854000000953192],,,,,,,,,,,,,,,,,,,,,,,,,,,,,,,,,,,,,,,,,,,,,,,,,,,,,,,,,,,,,,,,,,,,,
,,,,515930,001,2023-10-10_01h52.28.639,fluency,2022.2.4,Win32,59.50255861,,,,,,,,,,,,,,,,,,,,,,,6,6,img/B06_06.jpg,GCNB,Press J if the face is GENDER-CONFORMING and K if the face is NONBINARY,Gender-conforming means that the face appears to be a typical example of its gender. Nonbinary means that the face does not conform to any particular gender norms.,JK,,,,,,,,,,,,,,,,,,,,,,,,,,,,,,,,4,1.1839,,,,,,,,,,,,,,0,49,49,61,1,,,,,,,,,,,,,space,0.6208,,,,,,,,,,,,,,,,,,,,,,,,,,,,,,,,,,,,,,,,,,,,,,,,,,,,,,,,,,,,,,,,,,,
,,,,515930,001,2023-10-10_01h52.28.639,fluency,2022.2.4,Win32,59.50255861,,,,,,,,,,,,,,,,,,,,,,,9,9,img/B09_09.jpg,GCNB,Press J if the face is GENDER-CONFORMING and K if the face is NONBINARY,Gender-conforming means that the face appears to be a typical example of its gender. Nonbinary means that the face does not conform to any particular gender norms.,JK,,,,,,,,,,,,,,,,,,,,,,,,,,,,,,,,,,,,,,,,,,,,,,903.4565,0,50,50,97,1,109,0,0,0,0,1,98,,,,,,,,,,,,,,,,,,,,,,,,,,,,,,,,,,,,,,,,,,,,,,,,,,,,,,,,,,,,,,,,,,,,,,,,,,
,,,,515930,001,2023-10-10_01h52.28.639,fluency,2022.2.4,Win32,59.50255861,,,,,,,,,,,,,,,,,,,,,,,,,,,,,,,,,,,,,,,,,,,,,,,,,,,,,,,,,,,,,,,,,,,,,,,,,,,,,,,,,,0,0,0,0,1,,"[""j""]",[2.9372999997137867],1,"[""j""]",[2.9372999997137867],,,,,,,,,,,,,,,,,,,,,,,,,,,,,,,,,,,,,,,,,,,,,,,,,,,,,,,,,,,,,,,,,,,,,
,,,,515930,001,2023-10-10_01h52.28.639,fluency,2022.2.4,Win32,59.50255861,,,,,,,,,,,,,,,,,,,,,,,9,9,img/B09_09.jpg,GCNB,Press J if the face is GENDER-CONFORMING and K if the face is NONBINARY,Gender-conforming means that the face appears to be a typical example of its gender. Nonbinary means that the face does not conform to any particular gender norms.,JK,,,,,,,,,,,,,,,,,,,,,,,,,,,,,,,,5,3.3043,,,,,,,,,,,,,,0,50,50,97,1,,,,,,,,,,,,,space,0.5486,,,,,,,,,,,,,,,,,,,,,,,,,,,,,,,,,,,,,,,,,,,,,,,,,,,,,,,,,,,,,,,,,,,
,,,,515930,001,2023-10-10_01h52.28.639,fluency,2022.2.4,Win32,59.50255861,,,,,,,,,,,,,,,,,,,,,,,3,1,img/B01_03.jpg,GCNB,Press J if the face is GENDER-CONFORMING and K if the face is NONBINARY,Gender-conforming means that the face appears to be a typical example of its gender. Nonbinary means that the face does not conform to any particular gender norms.,JK,,,,,,,,,,,,,,,,,,,,,,,,,,,,,,,,,,,,,,,,,,,,,,912.3859,0,51,51,3,1,109,0,0,0,0,1,98,,,,,,,,,,,,,,,,,,,,,,,,,,,,,,,,,,,,,,,,,,,,,,,,,,,,,,,,,,,,,,,,,,,,,,,,,,
,,,,515930,001,2023-10-10_01h52.28.639,fluency,2022.2.4,Win32,59.50255861,,,,,,,,,,,,,,,,,,,,,,,,,,,,,,,,,,,,,,,,,,,,,,,,,,,,,,,,,,,,,,,,,,,,,,,,,,,,,,,,,,0,0,0,0,1,,"[""j""]",[1.6710999999046408],1,"[""j""]",[1.671199999809346],,,,,,,,,,,,,,,,,,,,,,,,,,,,,,,,,,,,,,,,,,,,,,,,,,,,,,,,,,,,,,,,,,,,,
,,,,515930,001,2023-10-10_01h52.28.639,fluency,2022.2.4,Win32,59.50255861,,,,,,,,,,,,,,,,,,,,,,,3,1,img/B01_03.jpg,GCNB,Press J if the face is GENDER-CONFORMING and K if the face is NONBINARY,Gender-conforming means that the face appears to be a typical example of its gender. Nonbinary means that the face does not conform to any particular gender norms.,JK,,,,,,,,,,,,,,,,,,,,,,,,,,,,,,,,5,0.7445,,,,,,,,,,,,,,0,51,51,3,1,,,,,,,,,,,,,space,0.5352,,,,,,,,,,,,,,,,,,,,,,,,,,,,,,,,,,,,,,,,,,,,,,,,,,,,,,,,,,,,,,,,,,,
,,,,515930,001,2023-10-10_01h52.28.639,fluency,2022.2.4,Win32,59.50255861,,,,,,,,,,,,,,,,,,,,,,,6,4,img/B04_06.jpg,GCNB,Press J if the face is GENDER-CONFORMING and K if the face is NONBINARY,Gender-conforming means that the face appears to be a typical example of its gender. Nonbinary means that the face does not conform to any particular gender norms.,JK,,,,,,,,,,,,,,,,,,,,,,,,,,,,,,,,,,,,,,,,,,,,,,917.7337,0,52,52,39,1,109,0,0,0,0,1,98,,,,,,,,,,,,,,,,,,,,,,,,,,,,,,,,,,,,,,,,,,,,,,,,,,,,,,,,,,,,,,,,,,,,,,,,,,
,,,,515930,001,2023-10-10_01h52.28.639,fluency,2022.2.4,Win32,59.50255861,,,,,,,,,,,,,,,,,,,,,,,,,,,,,,,,,,,,,,,,,,,,,,,,,,,,,,,,,,,,,,,,,,,,,,,,,,,,,,,,,,0,0,0,0,1,,"[""k""]",[2.4507000002860195],1,"[""k""]",[2.450600000381428],,,,,,,,,,,,,,,,,,,,,,,,,,,,,,,,,,,,,,,,,,,,,,,,,,,,,,,,,,,,,,,,,,,,,
,,,,515930,001,2023-10-10_01h52.28.639,fluency,2022.2.4,Win32,59.50255861,,,,,,,,,,,,,,,,,,,,,,,6,4,img/B04_06.jpg,GCNB,Press J if the face is GENDER-CONFORMING and K if the face is NONBINARY,Gender-conforming means that the face appears to be a typical example of its gender. Nonbinary means that the face does not conform to any particular gender norms.,JK,,,,,,,,,,,,,,,,,,,,,,,,,,,,,,,,5,1.7941,,,,,,,,,,,,,,0,52,52,39,1,,,,,,,,,,,,,space,1.1726,,,,,,,,,,,,,,,,,,,,,,,,,,,,,,,,,,,,,,,,,,,,,,,,,,,,,,,,,,,,,,,,,,,
,,,,515930,001,2023-10-10_01h52.28.639,fluency,2022.2.4,Win32,59.50255861,,,,,,,,,,,,,,,,,,,,,,,6,7,img/B07_06.jpg,GCNB,Press J if the face is GENDER-CONFORMING and K if the face is NONBINARY,Gender-conforming means that the face appears to be a typical example of its gender. Nonbinary means that the face does not conform to any particular gender norms.,JK,,,,,,,,,,,,,,,,,,,,,,,,,,,,,,,,,,,,,,,,,,,,,,924.764,0,53,53,72,1,109,0,0,0,0,1,98,,,,,,,,,,,,,,,,,,,,,,,,,,,,,,,,,,,,,,,,,,,,,,,,,,,,,,,,,,,,,,,,,,,,,,,,,,
,,,,515930,001,2023-10-10_01h52.28.639,fluency,2022.2.4,Win32,59.50255861,,,,,,,,,,,,,,,,,,,,,,,,,,,,,,,,,,,,,,,,,,,,,,,,,,,,,,,,,,,,,,,,,,,,,,,,,,,,,,,,,,0,0,0,0,1,,"[""k""]",[2.134099999904606],1,"[""k""]",[2.134099999904606],,,,,,,,,,,,,,,,,,,,,,,,,,,,,,,,,,,,,,,,,,,,,,,,,,,,,,,,,,,,,,,,,,,,,
,,,,515930,001,2023-10-10_01h52.28.639,fluency,2022.2.4,Win32,59.50255861,,,,,,,,,,,,,,,,,,,,,,,6,7,img/B07_06.jpg,GCNB,Press J if the face is GENDER-CONFORMING and K if the face is NONBINARY,Gender-conforming means that the face appears to be a typical example of its gender. Nonbinary means that the face does not conform to any particular gender norms.,JK,,,,,,,,,,,,,,,,,,,,,,,,,,,,,,,,5,1.6226,,,,,,,,,,,,,,0,53,53,72,1,,,,,,,,,,,,,space,0.7548,,,,,,,,,,,,,,,,,,,,,,,,,,,,,,,,,,,,,,,,,,,,,,,,,,,,,,,,,,,,,,,,,,,
,,,,515930,001,2023-10-10_01h52.28.639,fluency,2022.2.4,Win32,59.50255861,,,,,,,,,,,,,,,,,,,,,,,5,5,img/B05_05.jpg,GCNB,Press J if the face is GENDER-CONFORMING and K if the face is NONBINARY,Gender-conforming means that the face appears to be a typical example of its gender. Nonbinary means that the face does not conform to any particular gender norms.,JK,,,,,,,,,,,,,,,,,,,,,,,,,,,,,,,,,,,,,,,,,,,,,,932.2107,0,54,54,49,1,109,0,0,0,0,1,98,,,,,,,,,,,,,,,,,,,,,,,,,,,,,,,,,,,,,,,,,,,,,,,,,,,,,,,,,,,,,,,,,,,,,,,,,,
,,,,515930,001,2023-10-10_01h52.28.639,fluency,2022.2.4,Win32,59.50255861,,,,,,,,,,,,,,,,,,,,,,,,,,,,,,,,,,,,,,,,,,,,,,,,,,,,,,,,,,,,,,,,,,,,,,,,,,,,,,,,,,0,0,0,0,1,,"[""j""]",[1.1861999998092188],1,"[""j""]",[1.1861999998092188],,,,,,,,,,,,,,,,,,,,,,,,,,,,,,,,,,,,,,,,,,,,,,,,,,,,,,,,,,,,,,,,,,,,,
,,,,515930,001,2023-10-10_01h52.28.639,fluency,2022.2.4,Win32,59.50255861,,,,,,,,,,,,,,,,,,,,,,,5,5,img/B05_05.jpg,GCNB,Press J if the face is GENDER-CONFORMING and K if the face is NONBINARY,Gender-conforming means that the face appears to be a typical example of its gender. Nonbinary means that the face does not conform to any particular gender norms.,JK,,,,,,,,,,,,,,,,,,,,,,,,,,,,,,,,4,0.5988,,,,,,,,,,,,,,0,54,54,49,1,,,,,,,,,,,,,space,0.6176,,,,,,,,,,,,,,,,,,,,,,,,,,,,,,,,,,,,,,,,,,,,,,,,,,,,,,,,,,,,,,,,,,,
,,,,515930,001,2023-10-10_01h52.28.639,fluency,2022.2.4,Win32,59.50255861,,,,,,,,,,,,,,,,,,,,,,,4,9,img/B09_04.jpg,GCNB,Press J if the face is GENDER-CONFORMING and K if the face is NONBINARY,Gender-conforming means that the face appears to be a typical example of its gender. Nonbinary means that the face does not conform to any particular gender norms.,JK,,,,,,,,,,,,,,,,,,,,,,,,,,,,,,,,,,,,,,,,,,,,,,937.4916,0,55,55,92,1,109,0,0,0,0,1,98,,,,,,,,,,,,,,,,,,,,,,,,,,,,,,,,,,,,,,,,,,,,,,,,,,,,,,,,,,,,,,,,,,,,,,,,,,
,,,,515930,001,2023-10-10_01h52.28.639,fluency,2022.2.4,Win32,59.50255861,,,,,,,,,,,,,,,,,,,,,,,,,,,,,,,,,,,,,,,,,,,,,,,,,,,,,,,,,,,,,,,,,,,,,,,,,,,,,,,,,,0,0,0,0,1,,"[""j""]",[2.0678000001906867],1,"[""j""]",[2.0679000000952783],,,,,,,,,,,,,,,,,,,,,,,,,,,,,,,,,,,,,,,,,,,,,,,,,,,,,,,,,,,,,,,,,,,,,
,,,,515930,001,2023-10-10_01h52.28.639,fluency,2022.2.4,Win32,59.50255861,,,,,,,,,,,,,,,,,,,,,,,4,9,img/B09_04.jpg,GCNB,Press J if the face is GENDER-CONFORMING and K if the face is NONBINARY,Gender-conforming means that the face appears to be a typical example of its gender. Nonbinary means that the face does not conform to any particular gender norms.,JK,,,,,,,,,,,,,,,,,,,,,,,,,,,,,,,,5,2.497,,,,,,,,,,,,,,0,55,55,92,1,,,,,,,,,,,,,space,0.4674,,,,,,,,,,,,,,,,,,,,,,,,,,,,,,,,,,,,,,,,,,,,,,,,,,,,,,,,,,,,,,,,,,,
,,,,515930,001,2023-10-10_01h52.28.639,fluency,2022.2.4,Win32,59.50255861,,,,,,,,,,,,,,,,,,,,,,,0,4,img/B04_00.jpg,GCNB,Press J if the face is GENDER-CONFORMING and K if the face is NONBINARY,Gender-conforming means that the face appears to be a typical example of its gender. Nonbinary means that the face does not conform to any particular gender norms.,JK,,,,,,,,,,,,,,,,,,,,,,,,,,,,,,,,,,,,,,,,,,,,,,945.5383,0,56,56,33,1,109,0,0,0,0,1,98,,,,,,,,,,,,,,,,,,,,,,,,,,,,,,,,,,,,,,,,,,,,,,,,,,,,,,,,,,,,,,,,,,,,,,,,,,
,,,,515930,001,2023-10-10_01h52.28.639,fluency,2022.2.4,Win32,59.50255861,,,,,,,,,,,,,,,,,,,,,,,,,,,,,,,,,,,,,,,,,,,,,,,,,,,,,,,,,,,,,,,,,,,,,,,,,,,,,,,,,,0,0,0,0,1,,"[""j""]",[1.2775000000000318],1,"[""j""]",[1.277399999618524],,,,,,,,,,,,,,,,,,,,,,,,,,,,,,,,,,,,,,,,,,,,,,,,,,,,,,,,,,,,,,,,,,,,,
,,,,515930,001,2023-10-10_01h52.28.639,fluency,2022.2.4,Win32,59.50255861,,,,,,,,,,,,,,,,,,,,,,,0,4,img/B04_00.jpg,GCNB,Press J if the face is GENDER-CONFORMING and K if the face is NONBINARY,Gender-conforming means that the face appears to be a typical example of its gender. Nonbinary means that the face does not conform to any particular gender norms.,JK,,,,,,,,,,,,,,,,,,,,,,,,,,,,,,,,4,0.3075,,,,,,,,,,,,,,0,56,56,33,1,,,,,,,,,,,,,space,0.5671,,,,,,,,,,,,,,,,,,,,,,,,,,,,,,,,,,,,,,,,,,,,,,,,,,,,,,,,,,,,,,,,,,,
,,,,515930,001,2023-10-10_01h52.28.639,fluency,2022.2.4,Win32,59.50255861,,,,,,,,,,,,,,,,,,,,,,,4,5,img/B05_04.jpg,GCNB,Press J if the face is GENDER-CONFORMING and K if the face is NONBINARY,Gender-conforming means that the face appears to be a typical example of its gender. Nonbinary means that the face does not conform to any particular gender norms.,JK,,,,,,,,,,,,,,,,,,,,,,,,,,,,,,,,,,,,,,,,,,,,,,950.4692,0,57,57,48,1,109,0,0,0,0,1,98,,,,,,,,,,,,,,,,,,,,,,,,,,,,,,,,,,,,,,,,,,,,,,,,,,,,,,,,,,,,,,,,,,,,,,,,,,
,,,,515930,001,2023-10-10_01h52.28.639,fluency,2022.2.4,Win32,59.50255861,,,,,,,,,,,,,,,,,,,,,,,,,,,,,,,,,,,,,,,,,,,,,,,,,,,,,,,,,,,,,,,,,,,,,,,,,,,,,,,,,,0,0,0,0,1,,"[""j""]",[1.8590000000000373],1,"[""j""]",[1.8590000000000373],,,,,,,,,,,,,,,,,,,,,,,,,,,,,,,,,,,,,,,,,,,,,,,,,,,,,,,,,,,,,,,,,,,,,
,,,,515930,001,2023-10-10_01h52.28.639,fluency,2022.2.4,Win32,59.50255861,,,,,,,,,,,,,,,,,,,,,,,4,5,img/B05_04.jpg,GCNB,Press J if the face is GENDER-CONFORMING and K if the face is NONBINARY,Gender-conforming means that the face appears to be a typical example of its gender. Nonbinary means that the face does not conform to any particular gender norms.,JK,,,,,,,,,,,,,,,,,,,,,,,,,,,,,,,,4,1.6663,,,,,,,,,,,,,,0,57,57,48,1,,,,,,,,,,,,,space,0.5516,,,,,,,,,,,,,,,,,,,,,,,,,,,,,,,,,,,,,,,,,,,,,,,,,,,,,,,,,,,,,,,,,,,
,,,,515930,001,2023-10-10_01h52.28.639,fluency,2022.2.4,Win32,59.50255861,,,,,,,,,,,,,,,,,,,,,,,0,5,img/B05_00.jpg,GCNB,Press J if the face is GENDER-CONFORMING and K if the face is NONBINARY,Gender-conforming means that the face appears to be a typical example of its gender. Nonbinary means that the face does not conform to any particular gender norms.,JK,,,,,,,,,,,,,,,,,,,,,,,,,,,,,,,,,,,,,,,,,,,,,,957.7658,0,58,58,44,1,109,0,0,0,0,1,98,,,,,,,,,,,,,,,,,,,,,,,,,,,,,,,,,,,,,,,,,,,,,,,,,,,,,,,,,,,,,,,,,,,,,,,,,,
,,,,515930,001,2023-10-10_01h52.28.639,fluency,2022.2.4,Win32,59.50255861,,,,,,,,,,,,,,,,,,,,,,,,,,,,,,,,,,,,,,,,,,,,,,,,,,,,,,,,,,,,,,,,,,,,,,,,,,,,,,,,,,0,0,0,0,1,,"[""j""]",[1.217800000190664],1,"[""j""]",[1.217800000190664],,,,,,,,,,,,,,,,,,,,,,,,,,,,,,,,,,,,,,,,,,,,,,,,,,,,,,,,,,,,,,,,,,,,,
,,,,515930,001,2023-10-10_01h52.28.639,fluency,2022.2.4,Win32,59.50255861,,,,,,,,,,,,,,,,,,,,,,,0,5,img/B05_00.jpg,GCNB,Press J if the face is GENDER-CONFORMING and K if the face is NONBINARY,Gender-conforming means that the face appears to be a typical example of its gender. Nonbinary means that the face does not conform to any particular gender norms.,JK,,,,,,,,,,,,,,,,,,,,,,,,,,,,,,,,3,0.6345,,,,,,,,,,,,,,0,58,58,44,1,,,,,,,,,,,,,space,0.8531,,,,,,,,,,,,,,,,,,,,,,,,,,,,,,,,,,,,,,,,,,,,,,,,,,,,,,,,,,,,,,,,,,,
,,,,515930,001,2023-10-10_01h52.28.639,fluency,2022.2.4,Win32,59.50255861,,,,,,,,,,,,,,,,,,,,,,,1,10,img/B10_01.jpg,GCNB,Press J if the face is GENDER-CONFORMING and K if the face is NONBINARY,Gender-conforming means that the face appears to be a typical example of its gender. Nonbinary means that the face does not conform to any particular gender norms.,JK,,,,,,,,,,,,,,,,,,,,,,,,,,,,,,,,,,,,,,,,,,,,,,964.313,0,59,59,100,1,109,0,0,0,0,1,98,,,,,,,,,,,,,,,,,,,,,,,,,,,,,,,,,,,,,,,,,,,,,,,,,,,,,,,,,,,,,,,,,,,,,,,,,,
,,,,515930,001,2023-10-10_01h52.28.639,fluency,2022.2.4,Win32,59.50255861,,,,,,,,,,,,,,,,,,,,,,,,,,,,,,,,,,,,,,,,,,,,,,,,,,,,,,,,,,,,,,,,,,,,,,,,,,,,,,,,,,0,0,0,0,1,,"[""j""]",[1.3002000002861678],1,"[""j""]",[1.3000999999046599],,,,,,,,,,,,,,,,,,,,,,,,,,,,,,,,,,,,,,,,,,,,,,,,,,,,,,,,,,,,,,,,,,,,,
,,,,515930,001,2023-10-10_01h52.28.639,fluency,2022.2.4,Win32,59.50255861,,,,,,,,,,,,,,,,,,,,,,,1,10,img/B10_01.jpg,GCNB,Press J if the face is GENDER-CONFORMING and K if the face is NONBINARY,Gender-conforming means that the face appears to be a typical example of its gender. Nonbinary means that the face does not conform to any particular gender norms.,JK,,,,,,,,,,,,,,,,,,,,,,,,,,,,,,,,5,0.5887,,,,,,,,,,,,,,0,59,59,100,1,,,,,,,,,,,,,space,0.4507,,,,,,,,,,,,,,,,,,,,,,,,,,,,,,,,,,,,,,,,,,,,,,,,,,,,,,,,,,,,,,,,,,,
,,,,515930,001,2023-10-10_01h52.28.639,fluency,2022.2.4,Win32,59.50255861,,,,,,,,,,,,,,,,,,,,,,,8,6,img/B06_08.jpg,GCNB,Press J if the face is GENDER-CONFORMING and K if the face is NONBINARY,Gender-conforming means that the face appears to be a typical example of its gender. Nonbinary means that the face does not conform to any particular gender norms.,JK,,,,,,,,,,,,,,,,,,,,,,,,,,,,,,,,,,,,,,,,,,,,,,970.4268,0,60,60,63,1,109,0,0,0,0,1,98,,,,,,,,,,,,,,,,,,,,,,,,,,,,,,,,,,,,,,,,,,,,,,,,,,,,,,,,,,,,,,,,,,,,,,,,,,
,,,,515930,001,2023-10-10_01h52.28.639,fluency,2022.2.4,Win32,59.50255861,,,,,,,,,,,,,,,,,,,,,,,,,,,,,,,,,,,,,,,,,,,,,,,,,,,,,,,,,,,,,,,,,,,,,,,,,,,,,,,,,,0,0,0,0,1,,"[""k""]",[2.185299999713834],1,"[""k""]",[2.185299999713834],,,,,,,,,,,,,,,,,,,,,,,,,,,,,,,,,,,,,,,,,,,,,,,,,,,,,,,,,,,,,,,,,,,,,
,,,,515930,001,2023-10-10_01h52.28.639,fluency,2022.2.4,Win32,59.50255861,,,,,,,,,,,,,,,,,,,,,,,8,6,img/B06_08.jpg,GCNB,Press J if the face is GENDER-CONFORMING and K if the face is NONBINARY,Gender-conforming means that the face appears to be a typical example of its gender. Nonbinary means that the face does not conform to any particular gender norms.,JK,,,,,,,,,,,,,,,,,,,,,,,,,,,,,,,,5,1.9237,,,,,,,,,,,,,,0,60,60,63,1,,,,,,,,,,,,,space,0.3912,,,,,,,,,,,,,,,,,,,,,,,,,,,,,,,,,,,,,,,,,,,,,,,,,,,,,,,,,,,,,,,,,,,
,,,,515930,001,2023-10-10_01h52.28.639,fluency,2022.2.4,Win32,59.50255861,,,,,,,,,,,,,,,,,,,,,,,7,2,img/B02_07.jpg,GCNB,Press J if the face is GENDER-CONFORMING and K if the face is NONBINARY,Gender-conforming means that the face appears to be a typical example of its gender. Nonbinary means that the face does not conform to any particular gender norms.,JK,,,,,,,,,,,,,,,,,,,,,,,,,,,,,,,,,,,,,,,,,,,,,,976.8073,0,61,61,18,1,109,0,0,0,0,1,98,,,,,,,,,,,,,,,,,,,,,,,,,,,,,,,,,,,,,,,,,,,,,,,,,,,,,,,,,,,,,,,,,,,,,,,,,,
,,,,515930,001,2023-10-10_01h52.28.639,fluency,2022.2.4,Win32,59.50255861,,,,,,,,,,,,,,,,,,,,,,,,,,,,,,,,,,,,,,,,,,,,,,,,,,,,,,,,,,,,,,,,,,,,,,,,,,,,,,,,,,0,0,0,0,1,,"[""k""]",[2.1326999998092333],1,"[""k""]",[2.1325999999046417],,,,,,,,,,,,,,,,,,,,,,,,,,,,,,,,,,,,,,,,,,,,,,,,,,,,,,,,,,,,,,,,,,,,,
,,,,515930,001,2023-10-10_01h52.28.639,fluency,2022.2.4,Win32,59.50255861,,,,,,,,,,,,,,,,,,,,,,,7,2,img/B02_07.jpg,GCNB,Press J if the face is GENDER-CONFORMING and K if the face is NONBINARY,Gender-conforming means that the face appears to be a typical example of its gender. Nonbinary means that the face does not conform to any particular gender norms.,JK,,,,,,,,,,,,,,,,,,,,,,,,,,,,,,,,4,1.7679,,,,,,,,,,,,,,0,61,61,18,1,,,,,,,,,,,,,space,0.6527,,,,,,,,,,,,,,,,,,,,,,,,,,,,,,,,,,,,,,,,,,,,,,,,,,,,,,,,,,,,,,,,,,,
,,,,515930,001,2023-10-10_01h52.28.639,fluency,2022.2.4,Win32,59.50255861,,,,,,,,,,,,,,,,,,,,,,,8,3,img/B03_08.jpg,GCNB,Press J if the face is GENDER-CONFORMING and K if the face is NONBINARY,Gender-conforming means that the face appears to be a typical example of its gender. Nonbinary means that the face does not conform to any particular gender norms.,JK,,,,,,,,,,,,,,,,,,,,,,,,,,,,,,,,,,,,,,,,,,,,,,983.3045,0,62,62,30,1,109,0,0,0,0,1,98,,,,,,,,,,,,,,,,,,,,,,,,,,,,,,,,,,,,,,,,,,,,,,,,,,,,,,,,,,,,,,,,,,,,,,,,,,
,,,,515930,001,2023-10-10_01h52.28.639,fluency,2022.2.4,Win32,59.50255861,,,,,,,,,,,,,,,,,,,,,,,,,,,,,,,,,,,,,,,,,,,,,,,,,,,,,,,,,,,,,,,,,,,,,,,,,,,,,,,,,,0,0,0,0,1,,"[""j""]",[1.3075999999045962],1,"[""j""]",[1.3075999999045962],,,,,,,,,,,,,,,,,,,,,,,,,,,,,,,,,,,,,,,,,,,,,,,,,,,,,,,,,,,,,,,,,,,,,
,,,,515930,001,2023-10-10_01h52.28.639,fluency,2022.2.4,Win32,59.50255861,,,,,,,,,,,,,,,,,,,,,,,8,3,img/B03_08.jpg,GCNB,Press J if the face is GENDER-CONFORMING and K if the face is NONBINARY,Gender-conforming means that the face appears to be a typical example of its gender. Nonbinary means that the face does not conform to any particular gender norms.,JK,,,,,,,,,,,,,,,,,,,,,,,,,,,,,,,,6,0.712,,,,,,,,,,,,,,0,62,62,30,1,,,,,,,,,,,,,space,0.5508,,,,,,,,,,,,,,,,,,,,,,,,,,,,,,,,,,,,,,,,,,,,,,,,,,,,,,,,,,,,,,,,,,,
,,,,515930,001,2023-10-10_01h52.28.639,fluency,2022.2.4,Win32,59.50255861,,,,,,,,,,,,,,,,,,,,,,,3,4,img/B04_03.jpg,GCNB,Press J if the face is GENDER-CONFORMING and K if the face is NONBINARY,Gender-conforming means that the face appears to be a typical example of its gender. Nonbinary means that the face does not conform to any particular gender norms.,JK,,,,,,,,,,,,,,,,,,,,,,,,,,,,,,,,,,,,,,,,,,,,,,988.6353,0,63,63,36,1,109,0,0,0,0,1,98,,,,,,,,,,,,,,,,,,,,,,,,,,,,,,,,,,,,,,,,,,,,,,,,,,,,,,,,,,,,,,,,,,,,,,,,,,
,,,,515930,001,2023-10-10_01h52.28.639,fluency,2022.2.4,Win32,59.50255861,,,,,,,,,,,,,,,,,,,,,,,,,,,,,,,,,,,,,,,,,,,,,,,,,,,,,,,,,,,,,,,,,,,,,,,,,,,,,,,,,,0,0,0,0,1,,"[""j""]",[2.3173000001906985],1,"[""j""]",[2.3173000001906985],,,,,,,,,,,,,,,,,,,,,,,,,,,,,,,,,,,,,,,,,,,,,,,,,,,,,,,,,,,,,,,,,,,,,
,,,,515930,001,2023-10-10_01h52.28.639,fluency,2022.2.4,Win32,59.50255861,,,,,,,,,,,,,,,,,,,,,,,3,4,img/B04_03.jpg,GCNB,Press J if the face is GENDER-CONFORMING and K if the face is NONBINARY,Gender-conforming means that the face appears to be a typical example of its gender. Nonbinary means that the face does not conform to any particular gender norms.,JK,,,,,,,,,,,,,,,,,,,,,,,,,,,,,,,,5,0.8503,,,,,,,,,,,,,,0,63,63,36,1,,,,,,,,,,,,,space,0.5825,,,,,,,,,,,,,,,,,,,,,,,,,,,,,,,,,,,,,,,,,,,,,,,,,,,,,,,,,,,,,,,,,,,
,,,,515930,001,2023-10-10_01h52.28.639,fluency,2022.2.4,Win32,59.50255861,,,,,,,,,,,,,,,,,,,,,,,4,8,img/B08_04.jpg,GCNB,Press J if the face is GENDER-CONFORMING and K if the face is NONBINARY,Gender-conforming means that the face appears to be a typical example of its gender. Nonbinary means that the face does not conform to any particular gender norms.,JK,,,,,,,,,,,,,,,,,,,,,,,,,,,,,,,,,,,,,,,,,,,,,,994.15,0,64,64,81,1,109,0,0,0,0,1,98,,,,,,,,,,,,,,,,,,,,,,,,,,,,,,,,,,,,,,,,,,,,,,,,,,,,,,,,,,,,,,,,,,,,,,,,,,
,,,,515930,001,2023-10-10_01h52.28.639,fluency,2022.2.4,Win32,59.50255861,,,,,,,,,,,,,,,,,,,,,,,,,,,,,,,,,,,,,,,,,,,,,,,,,,,,,,,,,,,,,,,,,,,,,,,,,,,,,,,,,,0,0,0,0,1,,"[""j""]",[2.3845000000000027],1,"[""j""]",[2.384400000095411],,,,,,,,,,,,,,,,,,,,,,,,,,,,,,,,,,,,,,,,,,,,,,,,,,,,,,,,,,,,,,,,,,,,,
,,,,515930,001,2023-10-10_01h52.28.639,fluency,2022.2.4,Win32,59.50255861,,,,,,,,,,,,,,,,,,,,,,,4,8,img/B08_04.jpg,GCNB,Press J if the face is GENDER-CONFORMING and K if the face is NONBINARY,Gender-conforming means that the face appears to be a typical example of its gender. Nonbinary means that the face does not conform to any particular gender norms.,JK,,,,,,,,,,,,,,,,,,,,,,,,,,,,,,,,5,1.4486,,,,,,,,,,,,,,0,64,64,81,1,,,,,,,,,,,,,space,0.539,,,,,,,,,,,,,,,,,,,,,,,,,,,,,,,,,,,,,,,,,,,,,,,,,,,,,,,,,,,,,,,,,,,
,,,,515930,001,2023-10-10_01h52.28.639,fluency,2022.2.4,Win32,59.50255861,,,,,,,,,,,,,,,,,,,,,,,5,2,img/B02_05.jpg,GCNB,Press J if the face is GENDER-CONFORMING and K if the face is NONBINARY,Gender-conforming means that the face appears to be a typical example of its gender. Nonbinary means that the face does not conform to any particular gender norms.,JK,,,,,,,,,,,,,,,,,,,,,,,,,,,,,,,,,,,,,,,,,,,,,,1000.1971,0,65,65,16,1,109,0,0,0,0,1,98,,,,,,,,,,,,,,,,,,,,,,,,,,,,,,,,,,,,,,,,,,,,,,,,,,,,,,,,,,,,,,,,,,,,,,,,,,
,,,,515930,001,2023-10-10_01h52.28.639,fluency,2022.2.4,Win32,59.50255861,,,,,,,,,,,,,,,,,,,,,,,,,,,,,,,,,,,,,,,,,,,,,,,,,,,,,,,,,,,,,,,,,,,,,,,,,,,,,,,,,,0,0,0,0,1,,"[""j""]",[1.1235999999046271],1,"[""j""]",[1.1235999999046271],,,,,,,,,,,,,,,,,,,,,,,,,,,,,,,,,,,,,,,,,,,,,,,,,,,,,,,,,,,,,,,,,,,,,
,,,,515930,001,2023-10-10_01h52.28.639,fluency,2022.2.4,Win32,59.50255861,,,,,,,,,,,,,,,,,,,,,,,5,2,img/B02_05.jpg,GCNB,Press J if the face is GENDER-CONFORMING and K if the face is NONBINARY,Gender-conforming means that the face appears to be a typical example of its gender. Nonbinary means that the face does not conform to any particular gender norms.,JK,,,,,,,,,,,,,,,,,,,,,,,,,,,,,,,,5,0.4413,,,,,,,,,,,,,,0,65,65,16,1,,,,,,,,,,,,,space,0.525,,,,,,,,,,,,,,,,,,,,,,,,,,,,,,,,,,,,,,,,,,,,,,,,,,,,,,,,,,,,,,,,,,,
,,,,515930,001,2023-10-10_01h52.28.639,fluency,2022.2.4,Win32,59.50255861,,,,,,,,,,,,,,,,,,,,,,,1,2,img/B02_01.jpg,GCNB,Press J if the face is GENDER-CONFORMING and K if the face is NONBINARY,Gender-conforming means that the face appears to be a typical example of its gender. Nonbinary means that the face does not conform to any particular gender norms.,JK,,,,,,,,,,,,,,,,,,,,,,,,,,,,,,,,,,,,,,,,,,,,,,1005.2115,0,66,66,12,1,109,0,0,0,0,1,98,,,,,,,,,,,,,,,,,,,,,,,,,,,,,,,,,,,,,,,,,,,,,,,,,,,,,,,,,,,,,,,,,,,,,,,,,,
,,,,515930,001,2023-10-10_01h52.28.639,fluency,2022.2.4,Win32,59.50255861,,,,,,,,,,,,,,,,,,,,,,,,,,,,,,,,,,,,,,,,,,,,,,,,,,,,,,,,,,,,,,,,,,,,,,,,,,,,,,,,,,,,,,,,,,2,,,,,space,1.5278,0,0,0,0,1,,,,,,,,,,,,,,,,,,,,,,,,,,,,,,,,,,,,,,,,,,,,,,,,,,,,,,,,,,,,
,,,,515930,001,2023-10-10_01h52.28.639,fluency,2022.2.4,Win32,59.50255861,,,,,,,,,,,,,,,,,,,,,,,,,,,,,,,,,,,,,,,,,,,,,,,,,,,,,,,,,,,,,,,,,,,,,,,,,,,,,,,,,,0,0,0,0,1,,,,,,,,,,,,,,,,,,,,,,,,,,,,,,,,,,,,,,,,,,,,,,,,,,,,,,,,,,,,,,,,,,,,,,,,,,,
,,,,515930,001,2023-10-10_01h52.28.639,fluency,2022.2.4,Win32,59.50255861,,,,,,,,,,,,,,,,,,,,,,,1,2,img/B02_01.jpg,GCNB,Press J if the face is GENDER-CONFORMING and K if the face is NONBINARY,Gender-conforming means that the face appears to be a typical example of its gender. Nonbinary means that the face does not conform to any particular gender norms.,JK,,,,,,,,,,,,,,,,,,,,,,,,,,,,,,,,,,,,,,,,,,,,,,1010.7921,0,66,66,12,1,109,1,0,1,0,1,98,,,,,,,,,,,,,,,,,,,,,,,,,,,,,,,,,,,,,,,,,,,,,,,,,,,,,,,,,,,,,,,,,,,,,,,,,,
,,,,515930,001,2023-10-10_01h52.28.639,fluency,2022.2.4,Win32,59.50255861,,,,,,,,,,,,,,,,,,,,,,,,,,,,,,,,,,,,,,,,,,,,,,,,,,,,,,,,,,,,,,,,,,,,,,,,,,,,,,,,,,1,0,1,0,1,,"[""j""]",[0.7839000000952865],2,"[""j""]",[0.7838000001906948],,,,,,,,,,,,,,,,,,,,,,,,,,,,,,,,,,,,,,,,,,,,,,,,,,,,,,,,,,,,,,,,,,,,,
,,,,515930,001,2023-10-10_01h52.28.639,fluency,2022.2.4,Win32,59.50255861,,,,,,,,,,,,,,,,,,,,,,,1,2,img/B02_01.jpg,GCNB,Press J if the face is GENDER-CONFORMING and K if the face is NONBINARY,Gender-conforming means that the face appears to be a typical example of its gender. Nonbinary means that the face does not conform to any particular gender norms.,JK,,,,,,,,,,,,,,,,,,,,,,,,,,,,,,,,3,0.4994,,,,,,,,,,,,,,0,66,66,12,1,,,,,,,,,,,,,space,0.57,,,,,,,,,,,,,,,,,,,,,,,,,,,,,,,,,,,,,,,,,,,,,,,,,,,,,,,,,,,,,,,,,,,
,,,,515930,001,2023-10-10_01h52.28.639,fluency,2022.2.4,Win32,59.50255861,,,,,,,,,,,,,,,,,,,,,,,9,10,img/B10_09.jpg,GCNB,Press J if the face is GENDER-CONFORMING and K if the face is NONBINARY,Gender-conforming means that the face appears to be a typical example of its gender. Nonbinary means that the face does not conform to any particular gender norms.,JK,,,,,,,,,,,,,,,,,,,,,,,,,,,,,,,,,,,,,,,,,,,,,,1015.94,0,67,67,108,1,109,0,0,0,0,1,98,,,,,,,,,,,,,,,,,,,,,,,,,,,,,,,,,,,,,,,,,,,,,,,,,,,,,,,,,,,,,,,,,,,,,,,,,,
,,,,515930,001,2023-10-10_01h52.28.639,fluency,2022.2.4,Win32,59.50255861,,,,,,,,,,,,,,,,,,,,,,,,,,,,,,,,,,,,,,,,,,,,,,,,,,,,,,,,,,,,,,,,,,,,,,,,,,,,,,,,,,0,0,0,0,1,,"[""k""]",[1.6660999999046453],2,"[""k""]",[1.6660000000000537],,,,,,,,,,,,,,,,,,,,,,,,,,,,,,,,,,,,,,,,,,,,,,,,,,,,,,,,,,,,,,,,,,,,,
,,,,515930,001,2023-10-10_01h52.28.639,fluency,2022.2.4,Win32,59.50255861,,,,,,,,,,,,,,,,,,,,,,,9,10,img/B10_09.jpg,GCNB,Press J if the face is GENDER-CONFORMING and K if the face is NONBINARY,Gender-conforming means that the face appears to be a typical example of its gender. Nonbinary means that the face does not conform to any particular gender norms.,JK,,,,,,,,,,,,,,,,,,,,,,,,,,,,,,,,5,0.4525,,,,,,,,,,,,,,0,67,67,108,1,,,,,,,,,,,,,space,0.4176,,,,,,,,,,,,,,,,,,,,,,,,,,,,,,,,,,,,,,,,,,,,,,,,,,,,,,,,,,,,,,,,,,,
,,,,515930,001,2023-10-10_01h52.28.639,fluency,2022.2.4,Win32,59.50255861,,,,,,,,,,,,,,,,,,,,,,,0,3,img/B03_00.jpg,GCNB,Press J if the face is GENDER-CONFORMING and K if the face is NONBINARY,Gender-conforming means that the face appears to be a typical example of its gender. Nonbinary means that the face does not conform to any particular gender norms.,JK,,,,,,,,,,,,,,,,,,,,,,,,,,,,,,,,,,,,,,,,,,,,,,1020.8711,0,68,68,22,1,109,0,0,0,0,1,98,,,,,,,,,,,,,,,,,,,,,,,,,,,,,,,,,,,,,,,,,,,,,,,,,,,,,,,,,,,,,,,,,,,,,,,,,,
,,,,515930,001,2023-10-10_01h52.28.639,fluency,2022.2.4,Win32,59.50255861,,,,,,,,,,,,,,,,,,,,,,,,,,,,,,,,,,,,,,,,,,,,,,,,,,,,,,,,,,,,,,,,,,,,,,,,,,,,,,,,,,0,0,0,0,1,,"[""j""]",[0.2677999997140432],2,"[""j""]",[0.2676999998093379],,,,,,,,,,,,,,,,,,,,,,,,,,,,,,,,,,,,,,,,,,,,,,,,,,,,,,,,,,,,,,,,,,,,,
