idTextbox.text,welcomeDone.numClicks,welcomeDone.timesOn,welcomeDone.timesOff,participant,session,date,expName,psychopyVersion,OS,frameRate,consent_advance.keys,consent_advance.rt,consent_advance_2.keys,consent_advance_2.rt,consentClick.x,consentClick.y,consentClick.leftButton,consentClick.midButton,consentClick.rightButton,consentClick.time,consentClick.clicked_name,instr_advance_3.keys,instr_advance_3.rt,spec_instr_adv.keys,spec_instr_adv.rt,spec_instr_adv2.keys,spec_instr_adv2.rt,instrLoop.thisRepN,instrLoop.thisTrialN,instrLoop.thisN,instrLoop.thisIndex,instrLoop.ran,steps,fams,face_file,cond,instr,term,key_map,attnKeyResp1.keys,attnKeyResp1.rt,q1.thisRepN,q1.thisTrialN,q1.thisN,q1.thisIndex,q1.ran,attnKeyResp2.keys,attnKeyResp2.rt,q2.thisRepN,q2.thisTrialN,q2.thisN,q2.thisIndex,q2.ran,attnKeyResp3.keys,attnKeyResp3.rt,q3.thisRepN,q3.thisTrialN,q3.thisN,q3.thisIndex,q3.ran,practiceStart.keys,practiceStart.rt,practiceResp.keys,practiceResp.rt,timesRedone,practiceRepeat.thisRepN,practiceRepeat.thisTrialN,practiceRepeat.thisN,practiceRepeat.thisIndex,practiceRepeat.ran,attrRating.keys,attrRating.rt,practiceTrial.thisRepN,practiceTrial.thisTrialN,practiceTrial.thisN,practiceTrial.thisIndex,practiceTrial.ran,key_resp_3.keys,key_resp_3.rt,attnChecker.thisRepN,attnChecker.thisTrialN,attnChecker.thisN,attnChecker.thisIndex,attnChecker.ran,faceOnsetTime,trials.thisRepN,trials.thisTrialN,trials.thisN,trials.thisIndex,trials.ran,trials.order,repeat_loop.thisRepN,repeat_loop.thisTrialN,repeat_loop.thisN,repeat_loop.thisIndex,repeat_loop.ran,repeat_loop.order,catResp.keys,catResp.rt,globalTimesRedone,catAllKeys.keys,catAllKeys.rt,contResp.keys,contResp.rt,contResp_2.keys,contResp_2.rt,respQ1.response,respQ1.rt,respQ2.response,respQ2.rt,respQ3.response,respQ3.rt,respQ4.response,respQ4.rt,surveyContinue1.numClicks,surveyContinue1.timesOn,surveyContinue1.timesOff,respQ5.response,respQ5.rt,respQ6.response,respQ6.rt,respQ7.response,respQ7.rt,respQ8.response,respQ8.rt,surveyContinue2.numClicks,surveyContinue2.timesOn,surveyContinue2.timesOff,respQ9.response,respQ9.rt,respQ10.response,respQ10.rt,respQ11.response,respQ11.rt,respQ12.response,respQ12.rt,surveyContinue3.numClicks,surveyContinue3.timesOn,surveyContinue3.timesOff,respQ13.response,respQ13.rt,respQ14.response,respQ14.rt,respQ15.response,respQ15.rt,surveyContinue4.numClicks,surveyContinue4.timesOn,surveyContinue4.timesOff,respAge.response,respAge.rt,genderResp1.response,genderResp1.rt,genderResp2.text,demogexitClick.numClicks,demogexitClick.timesOn,demogexitClick.timesOff,textbox.text,openAnswerClick.numClicks,openAnswerClick.timesOn,openAnswerClick.timesOff,debriefEnd.keys,debriefEnd.rt,exitKey.keys,exitKey.rt
605bb95e25fb0eb3edfe7c73,1,[17.53],[17.53],647412,001,2023-10-10_01h49.49.509,fluency,2022.2.4,Win32,74.96251874,,,,,,,,,,,,,,,,,,,,,,,,,,,,,,,,,,,,,,,,,,,,,,,,,,,,,,,,,,,,,,,,,,,,,,,,,,,,,,,,,,,,,,,,,,,,,,,,,,,,,,,,,,,,,,,,,,,,,,,,,,,,,,,,,,,,,,,,,,,,,,,,,,,,,,,,,,
,,,,647412,001,2023-10-10_01h49.49.509,fluency,2022.2.4,Win32,74.96251874,space,64.882,,,,,,,,,,,,,,,,,,,,,,,,,,,,,,,,,,,,,,,,,,,,,,,,,,,,,,,,,,,,,,,,,,,,,,,,,,,,,,,,,,,,,,,,,,,,,,,,,,,,,,,,,,,,,,,,,,,,,,,,,,,,,,,,,,,,,,,,,,,,,,,,,,,,,,,,
,,,,647412,001,2023-10-10_01h49.49.509,fluency,2022.2.4,Win32,74.96251874,,,space,61.89,,,,,,,,,,,,,,,,,,,,,,,,,,,,,,,,,,,,,,,,,,,,,,,,,,,,,,,,,,,,,,,,,,,,,,,,,,,,,,,,,,,,,,,,,,,,,,,,,,,,,,,,,,,,,,,,,,,,,,,,,,,,,,,,,,,,,,,,,,,,,,,,,,,,,,
,,,,647412,001,2023-10-10_01h49.49.509,fluency,2022.2.4,Win32,74.96251874,,,,,0.319444444,-0.341666667,1,0,0,31.61,iAgree,,,,,,,,,,,,,,,,,,,,,,,,,,,,,,,,,,,,,,,,,,,,,,,,,,,,,,,,,,,,,,,,,,,,,,,,,,,,,,,,,,,,,,,,,,,,,,,,,,,,,,,,,,,,,,,,,,,,,,,,,,,,,,,,,,,,,,,,,,,,,,,
,,,,647412,001,2023-10-10_01h49.49.509,fluency,2022.2.4,Win32,74.96251874,,,,,,,,,,,,space,9.772,,,,,,,,,,,,,,,,,,,,,,,,,,,,,,,,,,,,,,,,,,,,,,,,,,,,,,,,,,,,,,,,,,,,,,,,,,,,,,,,,,,,,,,,,,,,,,,,,,,,,,,,,,,,,,,,,,,,,,,,,,,,,,,,,,,,,,,,,,,,,
,,,,647412,001,2023-10-10_01h49.49.509,fluency,2022.2.4,Win32,74.96251874,,,,,,,,,,,,,,space,11.243,space,8.423,0,0,0,82,1,5,8,img/B08_05.jpg,CONTROL,Press K as soon as you see a face, ,KJ,,,,,,,,,,,,,,,,,,,,,,,,,,,,,,,,,,,,,,,,,,,,,,,,,,,,,,,,,,,,,,,,,,,,,,,,,,,,,,,,,,,,,,,,,,,,,,,,,,,,,,,,,,,,,,,,,,,,,,,,,,,,,
,,,,647412,001,2023-10-10_01h49.49.509,fluency,2022.2.4,Win32,74.96251874,,,,,,,,,,,,,,,,,,,,,,,,,,,,,,c,7.756,0,0,0,0,1,,,,,,,,,,,,,,,,,,,,,,,,,,,,,,,,,,,,,,,,,,,,,,,,,,,,,,,,,,,,,,,,,,,,,,,,,,,,,,,,,,,,,,,,,,,,,,,,,,,,,,,,,,,,,,,,,,,,,,
,,,,647412,001,2023-10-10_01h49.49.509,fluency,2022.2.4,Win32,74.96251874,,,,,,,,,,,,,,,,,,,,,,,,,,,,,,,,,,,,,a,5.654,0,0,0,0,1,,,,,,,,,,,,,,,,,,,,,,,,,,,,,,,,,,,,,,,,,,,,,,,,,,,,,,,,,,,,,,,,,,,,,,,,,,,,,,,,,,,,,,,,,,,,,,,,,,,,,,,,,,,,,,,
,,,,647412,001,2023-10-10_01h49.49.509,fluency,2022.2.4,Win32,74.96251874,,,,,,,,,,,,,,,,,,,,,,,,,,,,,,,,,,,,,,,,,,,,c,4.83,0,0,0,0,1,,,,,,,,,,,,,,,,,,,,,,,,,,,,,,,,,,,,,,,,,,,,,,,,,,,,,,,,,,,,,,,,,,,,,,,,,,,,,,,,,,,,,,,,,,,,,,,,,,,,,,,,
,,,,647412,001,2023-10-10_01h49.49.509,fluency,2022.2.4,Win32,74.96251874,,,,,,,,,,,,,,,,,,,,,,,,,,,,,,,,,,,,,,,,,,,,,,,,,,,space,1.054,k,1.002,0,0,0,0,0,1,,,,,,,,,,,,,,,,,,,,,,,,,,,,,,,,,,,,,,,,,,,,,,,,,,,,,,,,,,,,,,,,,,,,,,,,,,,,,,,,,,,,,,,,,,,,,,
,,,,647412,001,2023-10-10_01h49.49.509,fluency,2022.2.4,Win32,74.96251874,,,,,,,,,,,,,,,,,,,,,,,,,,,,,,,,,,,,,,,,,,,,,,,,,,,,,,,,,,,,,7,10.305,0,0,0,0,1,,,,,,,,,,,,,,,,,,,,,,,,,,,,,,,,,,,,,,,,,,,,,,,,,,,,,,,,,,,,,,,,,,,,,,,,,,,,,,,,,,,,,,,
,,,,647412,001,2023-10-10_01h49.49.509,fluency,2022.2.4,Win32,74.96251874,,,,,,,,,,,,,,,,,,,,,,,,,,,,,,,,,,,,,,,,,,,,,,,,,,,,,,,,,,,,,,,,,,,,space,8.743,0,0,0,0,1,,,,,,,,,,,,,,,,,,,,,,,,,,,,,,,,,,,,,,,,,,,,,,,,,,,,,,,,,,,,,,,,,,,,,,,,,,,,,,,,
,,,,647412,001,2023-10-10_01h49.49.509,fluency,2022.2.4,Win32,74.96251874,,,,,,,,,,,,,,,,,,,,,,,2,1,img/B01_02.jpg,CONTROL,Press K as soon as you see a face, ,KJ,,,,,,,,,,,,,,,,,,,,,,,,,,,,,,,,,,,,,,,,,,,,,,267.992,0,0,0,2,1,109,0,0,0,0,1,98,,,,,,,,,,,,,,,,,,,,,,,,,,,,,,,,,,,,,,,,,,,,,,,,,,,,,,,,,,,,,,,,,,,
,,,,647412,001,2023-10-10_01h49.49.509,fluency,2022.2.4,Win32,74.96251874,,,,,,,,,,,,,,,,,,,,,,,,,,,,,,,,,,,,,,,,,,,,,,,,,,,,,,,,,,,,,,,,,,,,,,,,,,,,,,,,,,0,0,0,0,1,,"[""k""]",[0.25],0,"[""k""]",[0.25],,,,,,,,,,,,,,,,,,,,,,,,,,,,,,,,,,,,,,,,,,,,,,,,,,,,,,,,,,,,,,
,,,,647412,001,2023-10-10_01h49.49.509,fluency,2022.2.4,Win32,74.96251874,,,,,,,,,,,,,,,,,,,,,,,2,1,img/B01_02.jpg,CONTROL,Press K as soon as you see a face, ,KJ,,,,,,,,,,,,,,,,,,,,,,,,,,,,,,,,2,0.448,,,,,,,,,,,,,,0,0,0,2,1,,,,,,,,,,,,,space,7.205,,,,,,,,,,,,,,,,,,,,,,,,,,,,,,,,,,,,,,,,,,,,,,,,,,,,,,,,,,,,
,,,,647412,001,2023-10-10_01h49.49.509,fluency,2022.2.4,Win32,74.96251874,,,,,,,,,,,,,,,,,,,,,,,2,9,img/B09_02.jpg,CONTROL,Press K as soon as you see a face, ,KJ,,,,,,,,,,,,,,,,,,,,,,,,,,,,,,,,,,,,,,,,,,,,,,279.687,0,1,1,90,1,109,0,0,0,0,1,98,,,,,,,,,,,,,,,,,,,,,,,,,,,,,,,,,,,,,,,,,,,,,,,,,,,,,,,,,,,,,,,,,,,
,,,,647412,001,2023-10-10_01h49.49.509,fluency,2022.2.4,Win32,74.96251874,,,,,,,,,,,,,,,,,,,,,,,,,,,,,,,,,,,,,,,,,,,,,,,,,,,,,,,,,,,,,,,,,,,,,,,,,,,,,,,,,,0,0,0,0,1,,"[""k""]",[0.23799999999999955],0,"[""k""]",[0.23799999999999955],,,,,,,,,,,,,,,,,,,,,,,,,,,,,,,,,,,,,,,,,,,,,,,,,,,,,,,,,,,,,,
,,,,647412,001,2023-10-10_01h49.49.509,fluency,2022.2.4,Win32,74.96251874,,,,,,,,,,,,,,,,,,,,,,,2,9,img/B09_02.jpg,CONTROL,Press K as soon as you see a face, ,KJ,,,,,,,,,,,,,,,,,,,,,,,,,,,,,,,,3,0.514,,,,,,,,,,,,,,0,1,1,90,1,,,,,,,,,,,,,space,2.549,,,,,,,,,,,,,,,,,,,,,,,,,,,,,,,,,,,,,,,,,,,,,,,,,,,,,,,,,,,,
,,,,647412,001,2023-10-10_01h49.49.509,fluency,2022.2.4,Win32,74.96251874,,,,,,,,,,,,,,,,,,,,,,,2,2,img/B02_02.jpg,CONTROL,Press K as soon as you see a face, ,KJ,,,,,,,,,,,,,,,,,,,,,,,,,,,,,,,,,,,,,,,,,,,,,,287.791,0,2,2,13,1,109,0,0,0,0,1,98,,,,,,,,,,,,,,,,,,,,,,,,,,,,,,,,,,,,,,,,,,,,,,,,,,,,,,,,,,,,,,,,,,,
,,,,647412,001,2023-10-10_01h49.49.509,fluency,2022.2.4,Win32,74.96251874,,,,,,,,,,,,,,,,,,,,,,,,,,,,,,,,,,,,,,,,,,,,,,,,,,,,,,,,,,,,,,,,,,,,,,,,,,,,,,,,,,0,0,0,0,1,,"[""k""]",[0.6259999999999764],0,"[""k""]",[0.6259999999999764],,,,,,,,,,,,,,,,,,,,,,,,,,,,,,,,,,,,,,,,,,,,,,,,,,,,,,,,,,,,,,
,,,,647412,001,2023-10-10_01h49.49.509,fluency,2022.2.4,Win32,74.96251874,,,,,,,,,,,,,,,,,,,,,,,2,2,img/B02_02.jpg,CONTROL,Press K as soon as you see a face, ,KJ,,,,,,,,,,,,,,,,,,,,,,,,,,,,,,,,2,1.627,,,,,,,,,,,,,,0,2,2,13,1,,,,,,,,,,,,,space,4.235,,,,,,,,,,,,,,,,,,,,,,,,,,,,,,,,,,,,,,,,,,,,,,,,,,,,,,,,,,,,
,,,,647412,001,2023-10-10_01h49.49.509,fluency,2022.2.4,Win32,74.96251874,,,,,,,,,,,,,,,,,,,,,,,0,3,img/B03_00.jpg,CONTROL,Press K as soon as you see a face, ,KJ,,,,,,,,,,,,,,,,,,,,,,,,,,,,,,,,,,,,,,,,,,,,,,298.685,0,3,3,22,1,109,0,0,0,0,1,98,,,,,,,,,,,,,,,,,,,,,,,,,,,,,,,,,,,,,,,,,,,,,,,,,,,,,,,,,,,,,,,,,,,
,,,,647412,001,2023-10-10_01h49.49.509,fluency,2022.2.4,Win32,74.96251874,,,,,,,,,,,,,,,,,,,,,,,,,,,,,,,,,,,,,,,,,,,,,,,,,,,,,,,,,,,,,,,,,,,,,,,,,,,,,,,,,,0,0,0,0,1,,"[""k""]",[0.23599999999999],0,"[""k""]",[0.23599999999999],,,,,,,,,,,,,,,,,,,,,,,,,,,,,,,,,,,,,,,,,,,,,,,,,,,,,,,,,,,,,,
,,,,647412,001,2023-10-10_01h49.49.509,fluency,2022.2.4,Win32,74.96251874,,,,,,,,,,,,,,,,,,,,,,,0,3,img/B03_00.jpg,CONTROL,Press K as soon as you see a face, ,KJ,,,,,,,,,,,,,,,,,,,,,,,,,,,,,,,,2,0.547,,,,,,,,,,,,,,0,3,3,22,1,,,,,,,,,,,,,space,4.945,,,,,,,,,,,,,,,,,,,,,,,,,,,,,,,,,,,,,,,,,,,,,,,,,,,,,,,,,,,,
,,,,647412,001,2023-10-10_01h49.49.509,fluency,2022.2.4,Win32,74.96251874,,,,,,,,,,,,,,,,,,,,,,,4,5,img/B05_04.jpg,CONTROL,Press K as soon as you see a face, ,KJ,,,,,,,,,,,,,,,,,,,,,,,,,,,,,,,,,,,,,,,,,,,,,,308.204,0,4,4,48,1,109,0,0,0,0,1,98,,,,,,,,,,,,,,,,,,,,,,,,,,,,,,,,,,,,,,,,,,,,,,,,,,,,,,,,,,,,,,,,,,,
,,,,647412,001,2023-10-10_01h49.49.509,fluency,2022.2.4,Win32,74.96251874,,,,,,,,,,,,,,,,,,,,,,,,,,,,,,,,,,,,,,,,,,,,,,,,,,,,,,,,,,,,,,,,,,,,,,,,,,,,,,,,,,0,0,0,0,1,,"[""k""]",[0.42799999999999727],0,"[""k""]",[0.42799999999999727],,,,,,,,,,,,,,,,,,,,,,,,,,,,,,,,,,,,,,,,,,,,,,,,,,,,,,,,,,,,,,
,,,,647412,001,2023-10-10_01h49.49.509,fluency,2022.2.4,Win32,74.96251874,,,,,,,,,,,,,,,,,,,,,,,4,5,img/B05_04.jpg,CONTROL,Press K as soon as you see a face, ,KJ,,,,,,,,,,,,,,,,,,,,,,,,,,,,,,,,4,0.814,,,,,,,,,,,,,,0,4,4,48,1,,,,,,,,,,,,,space,1.864,,,,,,,,,,,,,,,,,,,,,,,,,,,,,,,,,,,,,,,,,,,,,,,,,,,,,,,,,,,,
,,,,647412,001,2023-10-10_01h49.49.509,fluency,2022.2.4,Win32,74.96251874,,,,,,,,,,,,,,,,,,,,,,,10,9,img/B09_10.jpg,CONTROL,Press K as soon as you see a face, ,KJ,,,,,,,,,,,,,,,,,,,,,,,,,,,,,,,,,,,,,,,,,,,,,,314.905,0,5,5,98,1,109,0,0,0,0,1,98,,,,,,,,,,,,,,,,,,,,,,,,,,,,,,,,,,,,,,,,,,,,,,,,,,,,,,,,,,,,,,,,,,,
,,,,647412,001,2023-10-10_01h49.49.509,fluency,2022.2.4,Win32,74.96251874,,,,,,,,,,,,,,,,,,,,,,,,,,,,,,,,,,,,,,,,,,,,,,,,,,,,,,,,,,,,,,,,,,,,,,,,,,,,,,,,,,0,0,0,0,1,,"[""k""]",[0.49200000000001864],0,"[""k""]",[0.49200000000001864],,,,,,,,,,,,,,,,,,,,,,,,,,,,,,,,,,,,,,,,,,,,,,,,,,,,,,,,,,,,,,
,,,,647412,001,2023-10-10_01h49.49.509,fluency,2022.2.4,Win32,74.96251874,,,,,,,,,,,,,,,,,,,,,,,10,9,img/B09_10.jpg,CONTROL,Press K as soon as you see a face, ,KJ,,,,,,,,,,,,,,,,,,,,,,,,,,,,,,,,1,2.103,,,,,,,,,,,,,,0,5,5,98,1,,,,,,,,,,,,,space,0.894,,,,,,,,,,,,,,,,,,,,,,,,,,,,,,,,,,,,,,,,,,,,,,,,,,,,,,,,,,,,
,,,,647412,001,2023-10-10_01h49.49.509,fluency,2022.2.4,Win32,74.96251874,,,,,,,,,,,,,,,,,,,,,,,1,8,img/B08_01.jpg,CONTROL,Press K as soon as you see a face, ,KJ,,,,,,,,,,,,,,,,,,,,,,,,,,,,,,,,,,,,,,,,,,,,,,321.94,0,6,6,78,1,109,0,0,0,0,1,98,,,,,,,,,,,,,,,,,,,,,,,,,,,,,,,,,,,,,,,,,,,,,,,,,,,,,,,,,,,,,,,,,,,
,,,,647412,001,2023-10-10_01h49.49.509,fluency,2022.2.4,Win32,74.96251874,,,,,,,,,,,,,,,,,,,,,,,,,,,,,,,,,,,,,,,,,,,,,,,,,,,,,,,,,,,,,,,,,,,,,,,,,,,,,,,,,,0,0,0,0,1,,"[""k""]",[0.42399999999997817],0,"[""k""]",[0.42399999999997817],,,,,,,,,,,,,,,,,,,,,,,,,,,,,,,,,,,,,,,,,,,,,,,,,,,,,,,,,,,,,,
,,,,647412,001,2023-10-10_01h49.49.509,fluency,2022.2.4,Win32,74.96251874,,,,,,,,,,,,,,,,,,,,,,,1,8,img/B08_01.jpg,CONTROL,Press K as soon as you see a face, ,KJ,,,,,,,,,,,,,,,,,,,,,,,,,,,,,,,,3,5.255,,,,,,,,,,,,,,0,6,6,78,1,,,,,,,,,,,,,space,0.754,,,,,,,,,,,,,,,,,,,,,,,,,,,,,,,,,,,,,,,,,,,,,,,,,,,,,,,,,,,,
,,,,647412,001,2023-10-10_01h49.49.509,fluency,2022.2.4,Win32,74.96251874,,,,,,,,,,,,,,,,,,,,,,,9,4,img/B04_09.jpg,CONTROL,Press K as soon as you see a face, ,KJ,,,,,,,,,,,,,,,,,,,,,,,,,,,,,,,,,,,,,,,,,,,,,,331.982,0,7,7,42,1,109,0,0,0,0,1,98,,,,,,,,,,,,,,,,,,,,,,,,,,,,,,,,,,,,,,,,,,,,,,,,,,,,,,,,,,,,,,,,,,,
,,,,647412,001,2023-10-10_01h49.49.509,fluency,2022.2.4,Win32,74.96251874,,,,,,,,,,,,,,,,,,,,,,,,,,,,,,,,,,,,,,,,,,,,,,,,,,,,,,,,,,,,,,,,,,,,,,,,,,,,,,,,,,0,0,0,0,1,,"[""k""]",[0.24799999999999045],0,"[""k""]",[0.24799999999999045],,,,,,,,,,,,,,,,,,,,,,,,,,,,,,,,,,,,,,,,,,,,,,,,,,,,,,,,,,,,,,
,,,,647412,001,2023-10-10_01h49.49.509,fluency,2022.2.4,Win32,74.96251874,,,,,,,,,,,,,,,,,,,,,,,9,4,img/B04_09.jpg,CONTROL,Press K as soon as you see a face, ,KJ,,,,,,,,,,,,,,,,,,,,,,,,,,,,,,,,5,0.823,,,,,,,,,,,,,,0,7,7,42,1,,,,,,,,,,,,,space,1.069,,,,,,,,,,,,,,,,,,,,,,,,,,,,,,,,,,,,,,,,,,,,,,,,,,,,,,,,,,,,
,,,,647412,001,2023-10-10_01h49.49.509,fluency,2022.2.4,Win32,74.96251874,,,,,,,,,,,,,,,,,,,,,,,4,6,img/B06_04.jpg,CONTROL,Press K as soon as you see a face, ,KJ,,,,,,,,,,,,,,,,,,,,,,,,,,,,,,,,,,,,,,,,,,,,,,337.908,0,8,8,59,1,109,0,0,0,0,1,98,,,,,,,,,,,,,,,,,,,,,,,,,,,,,,,,,,,,,,,,,,,,,,,,,,,,,,,,,,,,,,,,,,,
,,,,647412,001,2023-10-10_01h49.49.509,fluency,2022.2.4,Win32,74.96251874,,,,,,,,,,,,,,,,,,,,,,,,,,,,,,,,,,,,,,,,,,,,,,,,,,,,,,,,,,,,,,,,,,,,,,,,,,,,,,,,,,0,0,0,0,1,,"[""k""]",[0.44599999999996953],0,"[""k""]",[0.4460000000000264],,,,,,,,,,,,,,,,,,,,,,,,,,,,,,,,,,,,,,,,,,,,,,,,,,,,,,,,,,,,,,
,,,,647412,001,2023-10-10_01h49.49.509,fluency,2022.2.4,Win32,74.96251874,,,,,,,,,,,,,,,,,,,,,,,4,6,img/B06_04.jpg,CONTROL,Press K as soon as you see a face, ,KJ,,,,,,,,,,,,,,,,,,,,,,,,,,,,,,,,1,0.333,,,,,,,,,,,,,,0,8,8,59,1,,,,,,,,,,,,,space,1.032,,,,,,,,,,,,,,,,,,,,,,,,,,,,,,,,,,,,,,,,,,,,,,,,,,,,,,,,,,,,
,,,,647412,001,2023-10-10_01h49.49.509,fluency,2022.2.4,Win32,74.96251874,,,,,,,,,,,,,,,,,,,,,,,2,10,img/B10_02.jpg,CONTROL,Press K as soon as you see a face, ,KJ,,,,,,,,,,,,,,,,,,,,,,,,,,,,,,,,,,,,,,,,,,,,,,344.303,0,9,9,101,1,109,0,0,0,0,1,98,,,,,,,,,,,,,,,,,,,,,,,,,,,,,,,,,,,,,,,,,,,,,,,,,,,,,,,,,,,,,,,,,,,
,,,,647412,001,2023-10-10_01h49.49.509,fluency,2022.2.4,Win32,74.96251874,,,,,,,,,,,,,,,,,,,,,,,,,,,,,,,,,,,,,,,,,,,,,,,,,,,,,,,,,,,,,,,,,,,,,,,,,,,,,,,,,,0,0,0,0,1,,"[""k""]",[0.257000000000005],0,"[""k""]",[0.257000000000005],,,,,,,,,,,,,,,,,,,,,,,,,,,,,,,,,,,,,,,,,,,,,,,,,,,,,,,,,,,,,,
,,,,647412,001,2023-10-10_01h49.49.509,fluency,2022.2.4,Win32,74.96251874,,,,,,,,,,,,,,,,,,,,,,,2,10,img/B10_02.jpg,CONTROL,Press K as soon as you see a face, ,KJ,,,,,,,,,,,,,,,,,,,,,,,,,,,,,,,,2,0.477,,,,,,,,,,,,,,0,9,9,101,1,,,,,,,,,,,,,space,1.418,,,,,,,,,,,,,,,,,,,,,,,,,,,,,,,,,,,,,,,,,,,,,,,,,,,,,,,,,,,,
,,,,647412,001,2023-10-10_01h49.49.509,fluency,2022.2.4,Win32,74.96251874,,,,,,,,,,,,,,,,,,,,,,,6,9,img/B09_06.jpg,CONTROL,Press K as soon as you see a face, ,KJ,,,,,,,,,,,,,,,,,,,,,,,,,,,,,,,,,,,,,,,,,,,,,,351.231,0,10,10,94,1,109,0,0,0,0,1,98,,,,,,,,,,,,,,,,,,,,,,,,,,,,,,,,,,,,,,,,,,,,,,,,,,,,,,,,,,,,,,,,,,,
,,,,647412,001,2023-10-10_01h49.49.509,fluency,2022.2.4,Win32,74.96251874,,,,,,,,,,,,,,,,,,,,,,,,,,,,,,,,,,,,,,,,,,,,,,,,,,,,,,,,,,,,,,,,,,,,,,,,,,,,,,,,,,0,0,0,0,1,,"[""k""]",[0.28899999999998727],0,"[""k""]",[0.28899999999998727],,,,,,,,,,,,,,,,,,,,,,,,,,,,,,,,,,,,,,,,,,,,,,,,,,,,,,,,,,,,,,
,,,,647412,001,2023-10-10_01h49.49.509,fluency,2022.2.4,Win32,74.96251874,,,,,,,,,,,,,,,,,,,,,,,6,9,img/B09_06.jpg,CONTROL,Press K as soon as you see a face, ,KJ,,,,,,,,,,,,,,,,,,,,,,,,,,,,,,,,7,1.026,,,,,,,,,,,,,,0,10,10,94,1,,,,,,,,,,,,,space,1.776,,,,,,,,,,,,,,,,,,,,,,,,,,,,,,,,,,,,,,,,,,,,,,,,,,,,,,,,,,,,
,,,,647412,001,2023-10-10_01h49.49.509,fluency,2022.2.4,Win32,74.96251874,,,,,,,,,,,,,,,,,,,,,,,0,9,img/B09_00.jpg,CONTROL,Press K as soon as you see a face, ,KJ,,,,,,,,,,,,,,,,,,,,,,,,,,,,,,,,,,,,,,,,,,,,,,359.068,0,11,11,88,1,109,0,0,0,0,1,98,,,,,,,,,,,,,,,,,,,,,,,,,,,,,,,,,,,,,,,,,,,,,,,,,,,,,,,,,,,,,,,,,,,
,,,,647412,001,2023-10-10_01h49.49.509,fluency,2022.2.4,Win32,74.96251874,,,,,,,,,,,,,,,,,,,,,,,,,,,,,,,,,,,,,,,,,,,,,,,,,,,,,,,,,,,,,,,,,,,,,,,,,,,,,,,,,,0,0,0,0,1,,"[""k""]",[0.2449999999999477],0,"[""k""]",[0.2449999999999477],,,,,,,,,,,,,,,,,,,,,,,,,,,,,,,,,,,,,,,,,,,,,,,,,,,,,,,,,,,,,,
,,,,647412,001,2023-10-10_01h49.49.509,fluency,2022.2.4,Win32,74.96251874,,,,,,,,,,,,,,,,,,,,,,,0,9,img/B09_00.jpg,CONTROL,Press K as soon as you see a face, ,KJ,,,,,,,,,,,,,,,,,,,,,,,,,,,,,,,,3,0.732,,,,,,,,,,,,,,0,11,11,88,1,,,,,,,,,,,,,space,0.909,,,,,,,,,,,,,,,,,,,,,,,,,,,,,,,,,,,,,,,,,,,,,,,,,,,,,,,,,,,,
,,,,647412,001,2023-10-10_01h49.49.509,fluency,2022.2.4,Win32,74.96251874,,,,,,,,,,,,,,,,,,,,,,,9,9,img/B09_09.jpg,CONTROL,Press K as soon as you see a face, ,KJ,,,,,,,,,,,,,,,,,,,,,,,,,,,,,,,,,,,,,,,,,,,,,,364.742,0,12,12,97,1,109,0,0,0,0,1,98,,,,,,,,,,,,,,,,,,,,,,,,,,,,,,,,,,,,,,,,,,,,,,,,,,,,,,,,,,,,,,,,,,,
,,,,647412,001,2023-10-10_01h49.49.509,fluency,2022.2.4,Win32,74.96251874,,,,,,,,,,,,,,,,,,,,,,,,,,,,,,,,,,,,,,,,,,,,,,,,,,,,,,,,,,,,,,,,,,,,,,,,,,,,,,,,,,0,0,0,0,1,,"[""k""]",[0.40200000000004366],0,"[""k""]",[0.40200000000004366],,,,,,,,,,,,,,,,,,,,,,,,,,,,,,,,,,,,,,,,,,,,,,,,,,,,,,,,,,,,,,
,,,,647412,001,2023-10-10_01h49.49.509,fluency,2022.2.4,Win32,74.96251874,,,,,,,,,,,,,,,,,,,,,,,9,9,img/B09_09.jpg,CONTROL,Press K as soon as you see a face, ,KJ,,,,,,,,,,,,,,,,,,,,,,,,,,,,,,,,5,0.769,,,,,,,,,,,,,,0,12,12,97,1,,,,,,,,,,,,,space,0.788,,,,,,,,,,,,,,,,,,,,,,,,,,,,,,,,,,,,,,,,,,,,,,,,,,,,,,,,,,,,
,,,,647412,001,2023-10-10_01h49.49.509,fluency,2022.2.4,Win32,74.96251874,,,,,,,,,,,,,,,,,,,,,,,1,5,img/B05_01.jpg,CONTROL,Press K as soon as you see a face, ,KJ,,,,,,,,,,,,,,,,,,,,,,,,,,,,,,,,,,,,,,,,,,,,,,371.337,0,13,13,45,1,109,0,0,0,0,1,98,,,,,,,,,,,,,,,,,,,,,,,,,,,,,,,,,,,,,,,,,,,,,,,,,,,,,,,,,,,,,,,,,,,
,,,,647412,001,2023-10-10_01h49.49.509,fluency,2022.2.4,Win32,74.96251874,,,,,,,,,,,,,,,,,,,,,,,,,,,,,,,,,,,,,,,,,,,,,,,,,,,,,,,,,,,,,,,,,,,,,,,,,,,,,,,,,,0,0,0,0,1,,"[""k""]",[0.23099999999999454],0,"[""k""]",[0.23099999999999454],,,,,,,,,,,,,,,,,,,,,,,,,,,,,,,,,,,,,,,,,,,,,,,,,,,,,,,,,,,,,,
,,,,647412,001,2023-10-10_01h49.49.509,fluency,2022.2.4,Win32,74.96251874,,,,,,,,,,,,,,,,,,,,,,,1,5,img/B05_01.jpg,CONTROL,Press K as soon as you see a face, ,KJ,,,,,,,,,,,,,,,,,,,,,,,,,,,,,,,,1,0.383,,,,,,,,,,,,,,0,13,13,45,1,,,,,,,,,,,,,space,1.323,,,,,,,,,,,,,,,,,,,,,,,,,,,,,,,,,,,,,,,,,,,,,,,,,,,,,,,,,,,,
,,,,647412,001,2023-10-10_01h49.49.509,fluency,2022.2.4,Win32,74.96251874,,,,,,,,,,,,,,,,,,,,,,,10,5,img/B05_10.jpg,CONTROL,Press K as soon as you see a face, ,KJ,,,,,,,,,,,,,,,,,,,,,,,,,,,,,,,,,,,,,,,,,,,,,,377.078,0,14,14,54,1,109,0,0,0,0,1,98,,,,,,,,,,,,,,,,,,,,,,,,,,,,,,,,,,,,,,,,,,,,,,,,,,,,,,,,,,,,,,,,,,,
,,,,647412,001,2023-10-10_01h49.49.509,fluency,2022.2.4,Win32,74.96251874,,,,,,,,,,,,,,,,,,,,,,,,,,,,,,,,,,,,,,,,,,,,,,,,,,,,,,,,,,,,,,,,,,,,,,,,,,,,,,,,,,0,0,0,0,1,,"[""k""]",[0.3979999999999677],0,"[""k""]",[0.3979999999999677],,,,,,,,,,,,,,,,,,,,,,,,,,,,,,,,,,,,,,,,,,,,,,,,,,,,,,,,,,,,,,
,,,,647412,001,2023-10-10_01h49.49.509,fluency,2022.2.4,Win32,74.96251874,,,,,,,,,,,,,,,,,,,,,,,10,5,img/B05_10.jpg,CONTROL,Press K as soon as you see a face, ,KJ,,,,,,,,,,,,,,,,,,,,,,,,,,,,,,,,3,0.569,,,,,,,,,,,,,,0,14,14,54,1,,,,,,,,,,,,,space,0.902,,,,,,,,,,,,,,,,,,,,,,,,,,,,,,,,,,,,,,,,,,,,,,,,,,,,,,,,,,,,
,,,,647412,001,2023-10-10_01h49.49.509,fluency,2022.2.4,Win32,74.96251874,,,,,,,,,,,,,,,,,,,,,,,2,4,img/B04_02.jpg,CONTROL,Press K as soon as you see a face, ,KJ,,,,,,,,,,,,,,,,,,,,,,,,,,,,,,,,,,,,,,,,,,,,,,383.579,0,15,15,35,1,109,0,0,0,0,1,98,,,,,,,,,,,,,,,,,,,,,,,,,,,,,,,,,,,,,,,,,,,,,,,,,,,,,,,,,,,,,,,,,,,
,,,,647412,001,2023-10-10_01h49.49.509,fluency,2022.2.4,Win32,74.96251874,,,,,,,,,,,,,,,,,,,,,,,,,,,,,,,,,,,,,,,,,,,,,,,,,,,,,,,,,,,,,,,,,,,,,,,,,,,,,,,,,,0,0,0,0,1,,"[""k""]",[0.33299999999997],0,"[""k""]",[0.33299999999997],,,,,,,,,,,,,,,,,,,,,,,,,,,,,,,,,,,,,,,,,,,,,,,,,,,,,,,,,,,,,,
,,,,647412,001,2023-10-10_01h49.49.509,fluency,2022.2.4,Win32,74.96251874,,,,,,,,,,,,,,,,,,,,,,,2,4,img/B04_02.jpg,CONTROL,Press K as soon as you see a face, ,KJ,,,,,,,,,,,,,,,,,,,,,,,,,,,,,,,,7,0.572,,,,,,,,,,,,,,0,15,15,35,1,,,,,,,,,,,,,space,0.788,,,,,,,,,,,,,,,,,,,,,,,,,,,,,,,,,,,,,,,,,,,,,,,,,,,,,,,,,,,,
,,,,647412,001,2023-10-10_01h49.49.509,fluency,2022.2.4,Win32,74.96251874,,,,,,,,,,,,,,,,,,,,,,,7,8,img/B08_07.jpg,CONTROL,Press K as soon as you see a face, ,KJ,,,,,,,,,,,,,,,,,,,,,,,,,,,,,,,,,,,,,,,,,,,,,,389.974,0,16,16,84,1,109,0,0,0,0,1,98,,,,,,,,,,,,,,,,,,,,,,,,,,,,,,,,,,,,,,,,,,,,,,,,,,,,,,,,,,,,,,,,,,,
,,,,647412,001,2023-10-10_01h49.49.509,fluency,2022.2.4,Win32,74.96251874,,,,,,,,,,,,,,,,,,,,,,,,,,,,,,,,,,,,,,,,,,,,,,,,,,,,,,,,,,,,,,,,,,,,,,,,,,,,,,,,,,0,0,0,0,1,,"[""k""]",[0.2580000000000382],0,"[""k""]",[0.2580000000000382],,,,,,,,,,,,,,,,,,,,,,,,,,,,,,,,,,,,,,,,,,,,,,,,,,,,,,,,,,,,,,
,,,,647412,001,2023-10-10_01h49.49.509,fluency,2022.2.4,Win32,74.96251874,,,,,,,,,,,,,,,,,,,,,,,7,8,img/B08_07.jpg,CONTROL,Press K as soon as you see a face, ,KJ,,,,,,,,,,,,,,,,,,,,,,,,,,,,,,,,5,0.37,,,,,,,,,,,,,,0,16,16,84,1,,,,,,,,,,,,,space,0.749,,,,,,,,,,,,,,,,,,,,,,,,,,,,,,,,,,,,,,,,,,,,,,,,,,,,,,,,,,,,
,,,,647412,001,2023-10-10_01h49.49.509,fluency,2022.2.4,Win32,74.96251874,,,,,,,,,,,,,,,,,,,,,,,1,7,img/B07_01.jpg,CONTROL,Press K as soon as you see a face, ,KJ,,,,,,,,,,,,,,,,,,,,,,,,,,,,,,,,,,,,,,,,,,,,,,396.13,0,17,17,67,1,109,0,0,0,0,1,98,,,,,,,,,,,,,,,,,,,,,,,,,,,,,,,,,,,,,,,,,,,,,,,,,,,,,,,,,,,,,,,,,,,
,,,,647412,001,2023-10-10_01h49.49.509,fluency,2022.2.4,Win32,74.96251874,,,,,,,,,,,,,,,,,,,,,,,,,,,,,,,,,,,,,,,,,,,,,,,,,,,,,,,,,,,,,,,,,,,,,,,,,,,,,,,,,,0,0,0,0,1,,"[""k""]",[0.2510000000000332],0,"[""k""]",[0.2510000000000332],,,,,,,,,,,,,,,,,,,,,,,,,,,,,,,,,,,,,,,,,,,,,,,,,,,,,,,,,,,,,,
,,,,647412,001,2023-10-10_01h49.49.509,fluency,2022.2.4,Win32,74.96251874,,,,,,,,,,,,,,,,,,,,,,,1,7,img/B07_01.jpg,CONTROL,Press K as soon as you see a face, ,KJ,,,,,,,,,,,,,,,,,,,,,,,,,,,,,,,,3,0.917,,,,,,,,,,,,,,0,17,17,67,1,,,,,,,,,,,,,space,0.667,,,,,,,,,,,,,,,,,,,,,,,,,,,,,,,,,,,,,,,,,,,,,,,,,,,,,,,,,,,,
,,,,647412,001,2023-10-10_01h49.49.509,fluency,2022.2.4,Win32,74.96251874,,,,,,,,,,,,,,,,,,,,,,,4,3,img/B03_04.jpg,CONTROL,Press K as soon as you see a face, ,KJ,,,,,,,,,,,,,,,,,,,,,,,,,,,,,,,,,,,,,,,,,,,,,,402.75,0,18,18,26,1,109,0,0,0,0,1,98,,,,,,,,,,,,,,,,,,,,,,,,,,,,,,,,,,,,,,,,,,,,,,,,,,,,,,,,,,,,,,,,,,,
,,,,647412,001,2023-10-10_01h49.49.509,fluency,2022.2.4,Win32,74.96251874,,,,,,,,,,,,,,,,,,,,,,,,,,,,,,,,,,,,,,,,,,,,,,,,,,,,,,,,,,,,,,,,,,,,,,,,,,,,,,,,,,0,0,0,0,1,,"[""k""]",[0.29199999999997317],0,"[""k""]",[0.29199999999997317],,,,,,,,,,,,,,,,,,,,,,,,,,,,,,,,,,,,,,,,,,,,,,,,,,,,,,,,,,,,,,
,,,,647412,001,2023-10-10_01h49.49.509,fluency,2022.2.4,Win32,74.96251874,,,,,,,,,,,,,,,,,,,,,,,4,3,img/B03_04.jpg,CONTROL,Press K as soon as you see a face, ,KJ,,,,,,,,,,,,,,,,,,,,,,,,,,,,,,,,4,0.314,,,,,,,,,,,,,,0,18,18,26,1,,,,,,,,,,,,,space,0.562,,,,,,,,,,,,,,,,,,,,,,,,,,,,,,,,,,,,,,,,,,,,,,,,,,,,,,,,,,,,
,,,,647412,001,2023-10-10_01h49.49.509,fluency,2022.2.4,Win32,74.96251874,,,,,,,,,,,,,,,,,,,,,,,10,3,img/B03_10.jpg,CONTROL,Press K as soon as you see a face, ,KJ,,,,,,,,,,,,,,,,,,,,,,,,,,,,,,,,,,,,,,,,,,,,,,408.665,0,19,19,32,1,109,0,0,0,0,1,98,,,,,,,,,,,,,,,,,,,,,,,,,,,,,,,,,,,,,,,,,,,,,,,,,,,,,,,,,,,,,,,,,,,
,,,,647412,001,2023-10-10_01h49.49.509,fluency,2022.2.4,Win32,74.96251874,,,,,,,,,,,,,,,,,,,,,,,,,,,,,,,,,,,,,,,,,,,,,,,,,,,,,,,,,,,,,,,,,,,,,,,,,,,,,,,,,,0,0,0,0,1,,"[""k""]",[0.2230000000000132],0,"[""k""]",[0.2230000000000132],,,,,,,,,,,,,,,,,,,,,,,,,,,,,,,,,,,,,,,,,,,,,,,,,,,,,,,,,,,,,,
,,,,647412,001,2023-10-10_01h49.49.509,fluency,2022.2.4,Win32,74.96251874,,,,,,,,,,,,,,,,,,,,,,,10,3,img/B03_10.jpg,CONTROL,Press K as soon as you see a face, ,KJ,,,,,,,,,,,,,,,,,,,,,,,,,,,,,,,,4,1.057,,,,,,,,,,,,,,0,19,19,32,1,,,,,,,,,,,,,space,0.483,,,,,,,,,,,,,,,,,,,,,,,,,,,,,,,,,,,,,,,,,,,,,,,,,,,,,,,,,,,,
,,,,647412,001,2023-10-10_01h49.49.509,fluency,2022.2.4,Win32,74.96251874,,,,,,,,,,,,,,,,,,,,,,,6,2,img/B02_06.jpg,CONTROL,Press K as soon as you see a face, ,KJ,,,,,,,,,,,,,,,,,,,,,,,,,,,,,,,,,,,,,,,,,,,,,,414.233,0,20,20,17,1,109,0,0,0,0,1,98,,,,,,,,,,,,,,,,,,,,,,,,,,,,,,,,,,,,,,,,,,,,,,,,,,,,,,,,,,,,,,,,,,,
,,,,647412,001,2023-10-10_01h49.49.509,fluency,2022.2.4,Win32,74.96251874,,,,,,,,,,,,,,,,,,,,,,,,,,,,,,,,,,,,,,,,,,,,,,,,,,,,,,,,,,,,,,,,,,,,,,,,,,,,,,,,,,0,0,0,0,1,,"[""k""]",[0.4519999999999982],0,"[""k""]",[0.4519999999999982],,,,,,,,,,,,,,,,,,,,,,,,,,,,,,,,,,,,,,,,,,,,,,,,,,,,,,,,,,,,,,
,,,,647412,001,2023-10-10_01h49.49.509,fluency,2022.2.4,Win32,74.96251874,,,,,,,,,,,,,,,,,,,,,,,6,2,img/B02_06.jpg,CONTROL,Press K as soon as you see a face, ,KJ,,,,,,,,,,,,,,,,,,,,,,,,,,,,,,,,5,1.28,,,,,,,,,,,,,,0,20,20,17,1,,,,,,,,,,,,,space,0.428,,,,,,,,,,,,,,,,,,,,,,,,,,,,,,,,,,,,,,,,,,,,,,,,,,,,,,,,,,,,
,,,,647412,001,2023-10-10_01h49.49.509,fluency,2022.2.4,Win32,74.96251874,,,,,,,,,,,,,,,,,,,,,,,3,6,img/B06_03.jpg,CONTROL,Press K as soon as you see a face, ,KJ,,,,,,,,,,,,,,,,,,,,,,,,,,,,,,,,,,,,,,,,,,,,,,420.974,0,21,21,58,1,109,0,0,0,0,1,98,,,,,,,,,,,,,,,,,,,,,,,,,,,,,,,,,,,,,,,,,,,,,,,,,,,,,,,,,,,,,,,,,,,
,,,,647412,001,2023-10-10_01h49.49.509,fluency,2022.2.4,Win32,74.96251874,,,,,,,,,,,,,,,,,,,,,,,,,,,,,,,,,,,,,,,,,,,,,,,,,,,,,,,,,,,,,,,,,,,,,,,,,,,,,,,,,,0,0,0,0,1,,"[""k""]",[0.39999999999997726],0,"[""k""]",[0.39999999999997726],,,,,,,,,,,,,,,,,,,,,,,,,,,,,,,,,,,,,,,,,,,,,,,,,,,,,,,,,,,,,,
,,,,647412,001,2023-10-10_01h49.49.509,fluency,2022.2.4,Win32,74.96251874,,,,,,,,,,,,,,,,,,,,,,,3,6,img/B06_03.jpg,CONTROL,Press K as soon as you see a face, ,KJ,,,,,,,,,,,,,,,,,,,,,,,,,,,,,,,,1,0.853,,,,,,,,,,,,,,0,21,21,58,1,,,,,,,,,,,,,space,0.719,,,,,,,,,,,,,,,,,,,,,,,,,,,,,,,,,,,,,,,,,,,,,,,,,,,,,,,,,,,,
,,,,647412,001,2023-10-10_01h49.49.509,fluency,2022.2.4,Win32,74.96251874,,,,,,,,,,,,,,,,,,,,,,,9,3,img/B03_09.jpg,CONTROL,Press K as soon as you see a face, ,KJ,,,,,,,,,,,,,,,,,,,,,,,,,,,,,,,,,,,,,,,,,,,,,,427.585,0,22,22,31,1,109,0,0,0,0,1,98,,,,,,,,,,,,,,,,,,,,,,,,,,,,,,,,,,,,,,,,,,,,,,,,,,,,,,,,,,,,,,,,,,,
,,,,647412,001,2023-10-10_01h49.49.509,fluency,2022.2.4,Win32,74.96251874,,,,,,,,,,,,,,,,,,,,,,,,,,,,,,,,,,,,,,,,,,,,,,,,,,,,,,,,,,,,,,,,,,,,,,,,,,,,,,,,,,0,0,0,0,1,,"[""k""]",[0.26200000000000045],0,"[""k""]",[0.26200000000000045],,,,,,,,,,,,,,,,,,,,,,,,,,,,,,,,,,,,,,,,,,,,,,,,,,,,,,,,,,,,,,
,,,,647412,001,2023-10-10_01h49.49.509,fluency,2022.2.4,Win32,74.96251874,,,,,,,,,,,,,,,,,,,,,,,9,3,img/B03_09.jpg,CONTROL,Press K as soon as you see a face, ,KJ,,,,,,,,,,,,,,,,,,,,,,,,,,,,,,,,6,1.267,,,,,,,,,,,,,,0,22,22,31,1,,,,,,,,,,,,,space,0.627,,,,,,,,,,,,,,,,,,,,,,,,,,,,,,,,,,,,,,,,,,,,,,,,,,,,,,,,,,,,
,,,,647412,001,2023-10-10_01h49.49.509,fluency,2022.2.4,Win32,74.96251874,,,,,,,,,,,,,,,,,,,,,,,0,6,img/B06_00.jpg,CONTROL,Press K as soon as you see a face, ,KJ,,,,,,,,,,,,,,,,,,,,,,,,,,,,,,,,,,,,,,,,,,,,,,433.509,0,23,23,55,1,109,0,0,0,0,1,98,,,,,,,,,,,,,,,,,,,,,,,,,,,,,,,,,,,,,,,,,,,,,,,,,,,,,,,,,,,,,,,,,,,
,,,,647412,001,2023-10-10_01h49.49.509,fluency,2022.2.4,Win32,74.96251874,,,,,,,,,,,,,,,,,,,,,,,,,,,,,,,,,,,,,,,,,,,,,,,,,,,,,,,,,,,,,,,,,,,,,,,,,,,,,,,,,,0,0,0,0,1,,"[""k""]",[0.4420000000000073],0,"[""k""]",[0.4420000000000073],,,,,,,,,,,,,,,,,,,,,,,,,,,,,,,,,,,,,,,,,,,,,,,,,,,,,,,,,,,,,,
,,,,647412,001,2023-10-10_01h49.49.509,fluency,2022.2.4,Win32,74.96251874,,,,,,,,,,,,,,,,,,,,,,,0,6,img/B06_00.jpg,CONTROL,Press K as soon as you see a face, ,KJ,,,,,,,,,,,,,,,,,,,,,,,,,,,,,,,,2,0.466,,,,,,,,,,,,,,0,23,23,55,1,,,,,,,,,,,,,space,1.322,,,,,,,,,,,,,,,,,,,,,,,,,,,,,,,,,,,,,,,,,,,,,,,,,,,,,,,,,,,,
,,,,647412,001,2023-10-10_01h49.49.509,fluency,2022.2.4,Win32,74.96251874,,,,,,,,,,,,,,,,,,,,,,,2,5,img/B05_02.jpg,CONTROL,Press K as soon as you see a face, ,KJ,,,,,,,,,,,,,,,,,,,,,,,,,,,,,,,,,,,,,,,,,,,,,,439.33,0,24,24,46,1,109,0,0,0,0,1,98,,,,,,,,,,,,,,,,,,,,,,,,,,,,,,,,,,,,,,,,,,,,,,,,,,,,,,,,,,,,,,,,,,,
,,,,647412,001,2023-10-10_01h49.49.509,fluency,2022.2.4,Win32,74.96251874,,,,,,,,,,,,,,,,,,,,,,,,,,,,,,,,,,,,,,,,,,,,,,,,,,,,,,,,,,,,,,,,,,,,,,,,,,,,,,,,,,0,0,0,0,1,,"[""k""]",[0.3459999999999468],0,"[""k""]",[0.3459999999999468],,,,,,,,,,,,,,,,,,,,,,,,,,,,,,,,,,,,,,,,,,,,,,,,,,,,,,,,,,,,,,
,,,,647412,001,2023-10-10_01h49.49.509,fluency,2022.2.4,Win32,74.96251874,,,,,,,,,,,,,,,,,,,,,,,2,5,img/B05_02.jpg,CONTROL,Press K as soon as you see a face, ,KJ,,,,,,,,,,,,,,,,,,,,,,,,,,,,,,,,2,0.623,,,,,,,,,,,,,,0,24,24,46,1,,,,,,,,,,,,,space,0.627,,,,,,,,,,,,,,,,,,,,,,,,,,,,,,,,,,,,,,,,,,,,,,,,,,,,,,,,,,,,
,,,,647412,001,2023-10-10_01h49.49.509,fluency,2022.2.4,Win32,74.96251874,,,,,,,,,,,,,,,,,,,,,,,5,5,img/B05_05.jpg,CONTROL,Press K as soon as you see a face, ,KJ,,,,,,,,,,,,,,,,,,,,,,,,,,,,,,,,,,,,,,,,,,,,,,444.618,0,25,25,49,1,109,0,0,0,0,1,98,,,,,,,,,,,,,,,,,,,,,,,,,,,,,,,,,,,,,,,,,,,,,,,,,,,,,,,,,,,,,,,,,,,
,,,,647412,001,2023-10-10_01h49.49.509,fluency,2022.2.4,Win32,74.96251874,,,,,,,,,,,,,,,,,,,,,,,,,,,,,,,,,,,,,,,,,,,,,,,,,,,,,,,,,,,,,,,,,,,,,,,,,,,,,,,,,,0,0,0,0,1,,"[""k""]",[0.35000000000002274],0,"[""k""]",[0.35000000000002274],,,,,,,,,,,,,,,,,,,,,,,,,,,,,,,,,,,,,,,,,,,,,,,,,,,,,,,,,,,,,,
,,,,647412,001,2023-10-10_01h49.49.509,fluency,2022.2.4,Win32,74.96251874,,,,,,,,,,,,,,,,,,,,,,,5,5,img/B05_05.jpg,CONTROL,Press K as soon as you see a face, ,KJ,,,,,,,,,,,,,,,,,,,,,,,,,,,,,,,,3,0.745,,,,,,,,,,,,,,0,25,25,49,1,,,,,,,,,,,,,space,0.581,,,,,,,,,,,,,,,,,,,,,,,,,,,,,,,,,,,,,,,,,,,,,,,,,,,,,,,,,,,,
,,,,647412,001,2023-10-10_01h49.49.509,fluency,2022.2.4,Win32,74.96251874,,,,,,,,,,,,,,,,,,,,,,,0,8,img/B08_00.jpg,CONTROL,Press K as soon as you see a face, ,KJ,,,,,,,,,,,,,,,,,,,,,,,,,,,,,,,,,,,,,,,,,,,,,,449.971,0,26,26,77,1,109,0,0,0,0,1,98,,,,,,,,,,,,,,,,,,,,,,,,,,,,,,,,,,,,,,,,,,,,,,,,,,,,,,,,,,,,,,,,,,,
,,,,647412,001,2023-10-10_01h49.49.509,fluency,2022.2.4,Win32,74.96251874,,,,,,,,,,,,,,,,,,,,,,,,,,,,,,,,,,,,,,,,,,,,,,,,,,,,,,,,,,,,,,,,,,,,,,,,,,,,,,,,,,0,0,0,0,1,,"[""k""]",[0.3089999999999691],0,"[""k""]",[0.3089999999999691],,,,,,,,,,,,,,,,,,,,,,,,,,,,,,,,,,,,,,,,,,,,,,,,,,,,,,,,,,,,,,
,,,,647412,001,2023-10-10_01h49.49.509,fluency,2022.2.4,Win32,74.96251874,,,,,,,,,,,,,,,,,,,,,,,0,8,img/B08_00.jpg,CONTROL,Press K as soon as you see a face, ,KJ,,,,,,,,,,,,,,,,,,,,,,,,,,,,,,,,4,0.636,,,,,,,,,,,,,,0,26,26,77,1,,,,,,,,,,,,,space,0.6,,,,,,,,,,,,,,,,,,,,,,,,,,,,,,,,,,,,,,,,,,,,,,,,,,,,,,,,,,,,
,,,,647412,001,2023-10-10_01h49.49.509,fluency,2022.2.4,Win32,74.96251874,,,,,,,,,,,,,,,,,,,,,,,3,9,img/B09_03.jpg,CONTROL,Press K as soon as you see a face, ,KJ,,,,,,,,,,,,,,,,,,,,,,,,,,,,,,,,,,,,,,,,,,,,,,456.246,0,27,27,91,1,109,0,0,0,0,1,98,,,,,,,,,,,,,,,,,,,,,,,,,,,,,,,,,,,,,,,,,,,,,,,,,,,,,,,,,,,,,,,,,,,
,,,,647412,001,2023-10-10_01h49.49.509,fluency,2022.2.4,Win32,74.96251874,,,,,,,,,,,,,,,,,,,,,,,,,,,,,,,,,,,,,,,,,,,,,,,,,,,,,,,,,,,,,,,,,,,,,,,,,,,,,,,,,,0,0,0,0,1,,"[""k""]",[0.4270000000000209],0,"[""k""]",[0.4270000000000209],,,,,,,,,,,,,,,,,,,,,,,,,,,,,,,,,,,,,,,,,,,,,,,,,,,,,,,,,,,,,,
,,,,647412,001,2023-10-10_01h49.49.509,fluency,2022.2.4,Win32,74.96251874,,,,,,,,,,,,,,,,,,,,,,,3,9,img/B09_03.jpg,CONTROL,Press K as soon as you see a face, ,KJ,,,,,,,,,,,,,,,,,,,,,,,,,,,,,,,,4,1.492,,,,,,,,,,,,,,0,27,27,91,1,,,,,,,,,,,,,space,0.566,,,,,,,,,,,,,,,,,,,,,,,,,,,,,,,,,,,,,,,,,,,,,,,,,,,,,,,,,,,,
,,,,647412,001,2023-10-10_01h49.49.509,fluency,2022.2.4,Win32,74.96251874,,,,,,,,,,,,,,,,,,,,,,,5,6,img/B06_05.jpg,CONTROL,Press K as soon as you see a face, ,KJ,,,,,,,,,,,,,,,,,,,,,,,,,,,,,,,,,,,,,,,,,,,,,,463.334,0,28,28,60,1,109,0,0,0,0,1,98,,,,,,,,,,,,,,,,,,,,,,,,,,,,,,,,,,,,,,,,,,,,,,,,,,,,,,,,,,,,,,,,,,,
,,,,647412,001,2023-10-10_01h49.49.509,fluency,2022.2.4,Win32,74.96251874,,,,,,,,,,,,,,,,,,,,,,,,,,,,,,,,,,,,,,,,,,,,,,,,,,,,,,,,,,,,,,,,,,,,,,,,,,,,,,,,,,0,0,0,0,1,,"[""k""]",[0.2519999999999527],0,"[""k""]",[0.2519999999999527],,,,,,,,,,,,,,,,,,,,,,,,,,,,,,,,,,,,,,,,,,,,,,,,,,,,,,,,,,,,,,
,,,,647412,001,2023-10-10_01h49.49.509,fluency,2022.2.4,Win32,74.96251874,,,,,,,,,,,,,,,,,,,,,,,5,6,img/B06_05.jpg,CONTROL,Press K as soon as you see a face, ,KJ,,,,,,,,,,,,,,,,,,,,,,,,,,,,,,,,1,0.395,,,,,,,,,,,,,,0,28,28,60,1,,,,,,,,,,,,,space,1.763,,,,,,,,,,,,,,,,,,,,,,,,,,,,,,,,,,,,,,,,,,,,,,,,,,,,,,,,,,,,
,,,,647412,001,2023-10-10_01h49.49.509,fluency,2022.2.4,Win32,74.96251874,,,,,,,,,,,,,,,,,,,,,,,8,5,img/B05_08.jpg,CONTROL,Press K as soon as you see a face, ,KJ,,,,,,,,,,,,,,,,,,,,,,,,,,,,,,,,,,,,,,,,,,,,,,470.531,0,29,29,52,1,109,0,0,0,0,1,98,,,,,,,,,,,,,,,,,,,,,,,,,,,,,,,,,,,,,,,,,,,,,,,,,,,,,,,,,,,,,,,,,,,
,,,,647412,001,2023-10-10_01h49.49.509,fluency,2022.2.4,Win32,74.96251874,,,,,,,,,,,,,,,,,,,,,,,,,,,,,,,,,,,,,,,,,,,,,,,,,,,,,,,,,,,,,,,,,,,,,,,,,,,,,,,,,,0,0,0,0,1,,"[""k""]",[0.23599999999999],0,"[""k""]",[0.23599999999999],,,,,,,,,,,,,,,,,,,,,,,,,,,,,,,,,,,,,,,,,,,,,,,,,,,,,,,,,,,,,,
,,,,647412,001,2023-10-10_01h49.49.509,fluency,2022.2.4,Win32,74.96251874,,,,,,,,,,,,,,,,,,,,,,,8,5,img/B05_08.jpg,CONTROL,Press K as soon as you see a face, ,KJ,,,,,,,,,,,,,,,,,,,,,,,,,,,,,,,,5,1.49,,,,,,,,,,,,,,0,29,29,52,1,,,,,,,,,,,,,space,2.488,,,,,,,,,,,,,,,,,,,,,,,,,,,,,,,,,,,,,,,,,,,,,,,,,,,,,,,,,,,,
,,,,647412,001,2023-10-10_01h49.49.509,fluency,2022.2.4,Win32,74.96251874,,,,,,,,,,,,,,,,,,,,,,,7,9,img/B09_07.jpg,CONTROL,Press K as soon as you see a face, ,KJ,,,,,,,,,,,,,,,,,,,,,,,,,,,,,,,,,,,,,,,,,,,,,,479.542,0,30,30,95,1,109,0,0,0,0,1,98,,,,,,,,,,,,,,,,,,,,,,,,,,,,,,,,,,,,,,,,,,,,,,,,,,,,,,,,,,,,,,,,,,,
,,,,647412,001,2023-10-10_01h49.49.509,fluency,2022.2.4,Win32,74.96251874,,,,,,,,,,,,,,,,,,,,,,,,,,,,,,,,,,,,,,,,,,,,,,,,,,,,,,,,,,,,,,,,,,,,,,,,,,,,,,,,,,0,0,0,0,1,,"[""k""]",[0.2370000000000232],0,"[""k""]",[0.2370000000000232],,,,,,,,,,,,,,,,,,,,,,,,,,,,,,,,,,,,,,,,,,,,,,,,,,,,,,,,,,,,,,
,,,,647412,001,2023-10-10_01h49.49.509,fluency,2022.2.4,Win32,74.96251874,,,,,,,,,,,,,,,,,,,,,,,7,9,img/B09_07.jpg,CONTROL,Press K as soon as you see a face, ,KJ,,,,,,,,,,,,,,,,,,,,,,,,,,,,,,,,6,0.476,,,,,,,,,,,,,,0,30,30,95,1,,,,,,,,,,,,,space,0.658,,,,,,,,,,,,,,,,,,,,,,,,,,,,,,,,,,,,,,,,,,,,,,,,,,,,,,,,,,,,
,,,,647412,001,2023-10-10_01h49.49.509,fluency,2022.2.4,Win32,74.96251874,,,,,,,,,,,,,,,,,,,,,,,5,10,img/B10_05.jpg,CONTROL,Press K as soon as you see a face, ,KJ,,,,,,,,,,,,,,,,,,,,,,,,,,,,,,,,,,,,,,,,,,,,,,484.708,0,31,31,104,1,109,0,0,0,0,1,98,,,,,,,,,,,,,,,,,,,,,,,,,,,,,,,,,,,,,,,,,,,,,,,,,,,,,,,,,,,,,,,,,,,
,,,,647412,001,2023-10-10_01h49.49.509,fluency,2022.2.4,Win32,74.96251874,,,,,,,,,,,,,,,,,,,,,,,,,,,,,,,,,,,,,,,,,,,,,,,,,,,,,,,,,,,,,,,,,,,,,,,,,,,,,,,,,,0,0,0,0,1,,"[""k""]",[0.4049999999999727],0,"[""k""]",[0.4049999999999727],,,,,,,,,,,,,,,,,,,,,,,,,,,,,,,,,,,,,,,,,,,,,,,,,,,,,,,,,,,,,,
,,,,647412,001,2023-10-10_01h49.49.509,fluency,2022.2.4,Win32,74.96251874,,,,,,,,,,,,,,,,,,,,,,,5,10,img/B10_05.jpg,CONTROL,Press K as soon as you see a face, ,KJ,,,,,,,,,,,,,,,,,,,,,,,,,,,,,,,,2,0.348,,,,,,,,,,,,,,0,31,31,104,1,,,,,,,,,,,,,space,0.555,,,,,,,,,,,,,,,,,,,,,,,,,,,,,,,,,,,,,,,,,,,,,,,,,,,,,,,,,,,,
,,,,647412,001,2023-10-10_01h49.49.509,fluency,2022.2.4,Win32,74.96251874,,,,,,,,,,,,,,,,,,,,,,,8,9,img/B09_08.jpg,CONTROL,Press K as soon as you see a face, ,KJ,,,,,,,,,,,,,,,,,,,,,,,,,,,,,,,,,,,,,,,,,,,,,,489.635,0,32,32,96,1,109,0,0,0,0,1,98,,,,,,,,,,,,,,,,,,,,,,,,,,,,,,,,,,,,,,,,,,,,,,,,,,,,,,,,,,,,,,,,,,,
,,,,647412,001,2023-10-10_01h49.49.509,fluency,2022.2.4,Win32,74.96251874,,,,,,,,,,,,,,,,,,,,,,,,,,,,,,,,,,,,,,,,,,,,,,,,,,,,,,,,,,,,,,,,,,,,,,,,,,,,,,,,,,0,0,0,0,1,,"[""k""]",[0.34599999999988995],0,"[""k""]",[0.34599999999988995],,,,,,,,,,,,,,,,,,,,,,,,,,,,,,,,,,,,,,,,,,,,,,,,,,,,,,,,,,,,,,
,,,,647412,001,2023-10-10_01h49.49.509,fluency,2022.2.4,Win32,74.96251874,,,,,,,,,,,,,,,,,,,,,,,8,9,img/B09_08.jpg,CONTROL,Press K as soon as you see a face, ,KJ,,,,,,,,,,,,,,,,,,,,,,,,,,,,,,,,6,0.342,,,,,,,,,,,,,,0,32,32,96,1,,,,,,,,,,,,,space,0.561,,,,,,,,,,,,,,,,,,,,,,,,,,,,,,,,,,,,,,,,,,,,,,,,,,,,,,,,,,,,
,,,,647412,001,2023-10-10_01h49.49.509,fluency,2022.2.4,Win32,74.96251874,,,,,,,,,,,,,,,,,,,,,,,10,10,img/B10_10.jpg,CONTROL,Press K as soon as you see a face, ,KJ,,,,,,,,,,,,,,,,,,,,,,,,,,,,,,,,,,,,,,,,,,,,,,495.575,0,33,33,109,1,109,0,0,0,0,1,98,,,,,,,,,,,,,,,,,,,,,,,,,,,,,,,,,,,,,,,,,,,,,,,,,,,,,,,,,,,,,,,,,,,
,,,,647412,001,2023-10-10_01h49.49.509,fluency,2022.2.4,Win32,74.96251874,,,,,,,,,,,,,,,,,,,,,,,,,,,,,,,,,,,,,,,,,,,,,,,,,,,,,,,,,,,,,,,,,,,,,,,,,,,,,,,,,,0,0,0,0,1,,"[""k""]",[0.25700000000006185],0,"[""k""]",[0.25700000000006185],,,,,,,,,,,,,,,,,,,,,,,,,,,,,,,,,,,,,,,,,,,,,,,,,,,,,,,,,,,,,,
,,,,647412,001,2023-10-10_01h49.49.509,fluency,2022.2.4,Win32,74.96251874,,,,,,,,,,,,,,,,,,,,,,,10,10,img/B10_10.jpg,CONTROL,Press K as soon as you see a face, ,KJ,,,,,,,,,,,,,,,,,,,,,,,,,,,,,,,,3,0.323,,,,,,,,,,,,,,0,33,33,109,1,,,,,,,,,,,,,space,0.468,,,,,,,,,,,,,,,,,,,,,,,,,,,,,,,,,,,,,,,,,,,,,,,,,,,,,,,,,,,,
,,,,647412,001,2023-10-10_01h49.49.509,fluency,2022.2.4,Win32,74.96251874,,,,,,,,,,,,,,,,,,,,,,,0,7,img/B07_00.jpg,CONTROL,Press K as soon as you see a face, ,KJ,,,,,,,,,,,,,,,,,,,,,,,,,,,,,,,,,,,,,,,,,,,,,,500.395,0,34,34,66,1,109,0,0,0,0,1,98,,,,,,,,,,,,,,,,,,,,,,,,,,,,,,,,,,,,,,,,,,,,,,,,,,,,,,,,,,,,,,,,,,,
,,,,647412,001,2023-10-10_01h49.49.509,fluency,2022.2.4,Win32,74.96251874,,,,,,,,,,,,,,,,,,,,,,,,,,,,,,,,,,,,,,,,,,,,,,,,,,,,,,,,,,,,,,,,,,,,,,,,,,,,,,,,,,0,0,0,0,1,,"[""k""]",[0.43899999999996453],0,"[""k""]",[0.43899999999996453],,,,,,,,,,,,,,,,,,,,,,,,,,,,,,,,,,,,,,,,,,,,,,,,,,,,,,,,,,,,,,
,,,,647412,001,2023-10-10_01h49.49.509,fluency,2022.2.4,Win32,74.96251874,,,,,,,,,,,,,,,,,,,,,,,0,7,img/B07_00.jpg,CONTROL,Press K as soon as you see a face, ,KJ,,,,,,,,,,,,,,,,,,,,,,,,,,,,,,,,2,0.434,,,,,,,,,,,,,,0,34,34,66,1,,,,,,,,,,,,,space,0.587,,,,,,,,,,,,,,,,,,,,,,,,,,,,,,,,,,,,,,,,,,,,,,,,,,,,,,,,,,,,
,,,,647412,001,2023-10-10_01h49.49.509,fluency,2022.2.4,Win32,74.96251874,,,,,,,,,,,,,,,,,,,,,,,7,7,img/B07_07.jpg,CONTROL,Press K as soon as you see a face, ,KJ,,,,,,,,,,,,,,,,,,,,,,,,,,,,,,,,,,,,,,,,,,,,,,505.455,0,35,35,73,1,109,0,0,0,0,1,98,,,,,,,,,,,,,,,,,,,,,,,,,,,,,,,,,,,,,,,,,,,,,,,,,,,,,,,,,,,,,,,,,,,
,,,,647412,001,2023-10-10_01h49.49.509,fluency,2022.2.4,Win32,74.96251874,,,,,,,,,,,,,,,,,,,,,,,,,,,,,,,,,,,,,,,,,,,,,,,,,,,,,,,,,,,,,,,,,,,,,,,,,,,,,,,,,,0,0,0,0,1,,"[""k""]",[0.2800000000000864],0,"[""k""]",[0.2800000000000864],,,,,,,,,,,,,,,,,,,,,,,,,,,,,,,,,,,,,,,,,,,,,,,,,,,,,,,,,,,,,,
,,,,647412,001,2023-10-10_01h49.49.509,fluency,2022.2.4,Win32,74.96251874,,,,,,,,,,,,,,,,,,,,,,,7,7,img/B07_07.jpg,CONTROL,Press K as soon as you see a face, ,KJ,,,,,,,,,,,,,,,,,,,,,,,,,,,,,,,,3,0.622,,,,,,,,,,,,,,0,35,35,73,1,,,,,,,,,,,,,space,0.48,,,,,,,,,,,,,,,,,,,,,,,,,,,,,,,,,,,,,,,,,,,,,,,,,,,,,,,,,,,,
,,,,647412,001,2023-10-10_01h49.49.509,fluency,2022.2.4,Win32,74.96251874,,,,,,,,,,,,,,,,,,,,,,,6,6,img/B06_06.jpg,CONTROL,Press K as soon as you see a face, ,KJ,,,,,,,,,,,,,,,,,,,,,,,,,,,,,,,,,,,,,,,,,,,,,,511.596,0,36,36,61,1,109,0,0,0,0,1,98,,,,,,,,,,,,,,,,,,,,,,,,,,,,,,,,,,,,,,,,,,,,,,,,,,,,,,,,,,,,,,,,,,,
,,,,647412,001,2023-10-10_01h49.49.509,fluency,2022.2.4,Win32,74.96251874,,,,,,,,,,,,,,,,,,,,,,,,,,,,,,,,,,,,,,,,,,,,,,,,,,,,,,,,,,,,,,,,,,,,,,,,,,,,,,,,,,0,0,0,0,1,,"[""k""]",[0.10599999999999454],0,"[""k""]",[0.10599999999999454],,,,,,,,,,,,,,,,,,,,,,,,,,,,,,,,,,,,,,,,,,,,,,,,,,,,,,,,,,,,,,
,,,,647412,001,2023-10-10_01h49.49.509,fluency,2022.2.4,Win32,74.96251874,,,,,,,,,,,,,,,,,,,,,,,6,6,img/B06_06.jpg,CONTROL,Press K as soon as you see a face, ,KJ,,,,,,,,,,,,,,,,,,,,,,,,,,,,,,,,1,0.452,,,,,,,,,,,,,,0,36,36,61,1,,,,,,,,,,,,,space,0.536,,,,,,,,,,,,,,,,,,,,,,,,,,,,,,,,,,,,,,,,,,,,,,,,,,,,,,,,,,,,
,,,,647412,001,2023-10-10_01h49.49.509,fluency,2022.2.4,Win32,74.96251874,,,,,,,,,,,,,,,,,,,,,,,3,5,img/B05_03.jpg,CONTROL,Press K as soon as you see a face, ,KJ,,,,,,,,,,,,,,,,,,,,,,,,,,,,,,,,,,,,,,,,,,,,,,517.617,0,37,37,47,1,109,0,0,0,0,1,98,,,,,,,,,,,,,,,,,,,,,,,,,,,,,,,,,,,,,,,,,,,,,,,,,,,,,,,,,,,,,,,,,,,
,,,,647412,001,2023-10-10_01h49.49.509,fluency,2022.2.4,Win32,74.96251874,,,,,,,,,,,,,,,,,,,,,,,,,,,,,,,,,,,,,,,,,,,,,,,,,,,,,,,,,,,,,,,,,,,,,,,,,,,,,,,,,,0,0,0,0,1,,"[""k""]",[0.23299999999994725],0,"[""k""]",[0.23299999999994725],,,,,,,,,,,,,,,,,,,,,,,,,,,,,,,,,,,,,,,,,,,,,,,,,,,,,,,,,,,,,,
,,,,647412,001,2023-10-10_01h49.49.509,fluency,2022.2.4,Win32,74.96251874,,,,,,,,,,,,,,,,,,,,,,,3,5,img/B05_03.jpg,CONTROL,Press K as soon as you see a face, ,KJ,,,,,,,,,,,,,,,,,,,,,,,,,,,,,,,,2,0.464,,,,,,,,,,,,,,0,37,37,47,1,,,,,,,,,,,,,space,0.447,,,,,,,,,,,,,,,,,,,,,,,,,,,,,,,,,,,,,,,,,,,,,,,,,,,,,,,,,,,,
,,,,647412,001,2023-10-10_01h49.49.509,fluency,2022.2.4,Win32,74.96251874,,,,,,,,,,,,,,,,,,,,,,,0,10,img/B10_00.jpg,CONTROL,Press K as soon as you see a face, ,KJ,,,,,,,,,,,,,,,,,,,,,,,,,,,,,,,,,,,,,,,,,,,,,,523.558,0,38,38,99,1,109,0,0,0,0,1,98,,,,,,,,,,,,,,,,,,,,,,,,,,,,,,,,,,,,,,,,,,,,,,,,,,,,,,,,,,,,,,,,,,,
,,,,647412,001,2023-10-10_01h49.49.509,fluency,2022.2.4,Win32,74.96251874,,,,,,,,,,,,,,,,,,,,,,,,,,,,,,,,,,,,,,,,,,,,,,,,,,,,,,,,,,,,,,,,,,,,,,,,,,,,,,,,,,0,0,0,0,1,,"[""k""]",[0.2820000000000391],0,"[""k""]",[0.2820000000000391],,,,,,,,,,,,,,,,,,,,,,,,,,,,,,,,,,,,,,,,,,,,,,,,,,,,,,,,,,,,,,
,,,,647412,001,2023-10-10_01h49.49.509,fluency,2022.2.4,Win32,74.96251874,,,,,,,,,,,,,,,,,,,,,,,0,10,img/B10_00.jpg,CONTROL,Press K as soon as you see a face, ,KJ,,,,,,,,,,,,,,,,,,,,,,,,,,,,,,,,1,0.369,,,,,,,,,,,,,,0,38,38,99,1,,,,,,,,,,,,,space,0.91,,,,,,,,,,,,,,,,,,,,,,,,,,,,,,,,,,,,,,,,,,,,,,,,,,,,,,,,,,,,
,,,,647412,001,2023-10-10_01h49.49.509,fluency,2022.2.4,Win32,74.96251874,,,,,,,,,,,,,,,,,,,,,,,5,7,img/B07_05.jpg,CONTROL,Press K as soon as you see a face, ,KJ,,,,,,,,,,,,,,,,,,,,,,,,,,,,,,,,,,,,,,,,,,,,,,528.871,0,39,39,71,1,109,0,0,0,0,1,98,,,,,,,,,,,,,,,,,,,,,,,,,,,,,,,,,,,,,,,,,,,,,,,,,,,,,,,,,,,,,,,,,,,
,,,,647412,001,2023-10-10_01h49.49.509,fluency,2022.2.4,Win32,74.96251874,,,,,,,,,,,,,,,,,,,,,,,,,,,,,,,,,,,,,,,,,,,,,,,,,,,,,,,,,,,,,,,,,,,,,,,,,,,,,,,,,,0,0,0,0,1,,"[""k""]",[0.40199999999992997],0,"[""k""]",[0.40199999999992997],,,,,,,,,,,,,,,,,,,,,,,,,,,,,,,,,,,,,,,,,,,,,,,,,,,,,,,,,,,,,,
,,,,647412,001,2023-10-10_01h49.49.509,fluency,2022.2.4,Win32,74.96251874,,,,,,,,,,,,,,,,,,,,,,,5,7,img/B07_05.jpg,CONTROL,Press K as soon as you see a face, ,KJ,,,,,,,,,,,,,,,,,,,,,,,,,,,,,,,,1,0.691,,,,,,,,,,,,,,0,39,39,71,1,,,,,,,,,,,,,space,0.574,,,,,,,,,,,,,,,,,,,,,,,,,,,,,,,,,,,,,,,,,,,,,,,,,,,,,,,,,,,,
,,,,647412,001,2023-10-10_01h49.49.509,fluency,2022.2.4,Win32,74.96251874,,,,,,,,,,,,,,,,,,,,,,,2,7,img/B07_02.jpg,CONTROL,Press K as soon as you see a face, ,KJ,,,,,,,,,,,,,,,,,,,,,,,,,,,,,,,,,,,,,,,,,,,,,,535.173,0,40,40,68,1,109,0,0,0,0,1,98,,,,,,,,,,,,,,,,,,,,,,,,,,,,,,,,,,,,,,,,,,,,,,,,,,,,,,,,,,,,,,,,,,,
,,,,647412,001,2023-10-10_01h49.49.509,fluency,2022.2.4,Win32,74.96251874,,,,,,,,,,,,,,,,,,,,,,,,,,,,,,,,,,,,,,,,,,,,,,,,,,,,,,,,,,,,,,,,,,,,,,,,,,,,,,,,,,0,0,0,0,1,,"[""k""]",[0.25],0,"[""k""]",[0.25],,,,,,,,,,,,,,,,,,,,,,,,,,,,,,,,,,,,,,,,,,,,,,,,,,,,,,,,,,,,,,
,,,,647412,001,2023-10-10_01h49.49.509,fluency,2022.2.4,Win32,74.96251874,,,,,,,,,,,,,,,,,,,,,,,2,7,img/B07_02.jpg,CONTROL,Press K as soon as you see a face, ,KJ,,,,,,,,,,,,,,,,,,,,,,,,,,,,,,,,3,0.314,,,,,,,,,,,,,,0,40,40,68,1,,,,,,,,,,,,,space,0.349,,,,,,,,,,,,,,,,,,,,,,,,,,,,,,,,,,,,,,,,,,,,,,,,,,,,,,,,,,,,
,,,,647412,001,2023-10-10_01h49.49.509,fluency,2022.2.4,Win32,74.96251874,,,,,,,,,,,,,,,,,,,,,,,4,8,img/B08_04.jpg,CONTROL,Press K as soon as you see a face, ,KJ,,,,,,,,,,,,,,,,,,,,,,,,,,,,,,,,,,,,,,,,,,,,,,540.873,0,41,41,81,1,109,0,0,0,0,1,98,,,,,,,,,,,,,,,,,,,,,,,,,,,,,,,,,,,,,,,,,,,,,,,,,,,,,,,,,,,,,,,,,,,
,,,,647412,001,2023-10-10_01h49.49.509,fluency,2022.2.4,Win32,74.96251874,,,,,,,,,,,,,,,,,,,,,,,,,,,,,,,,,,,,,,,,,,,,,,,,,,,,,,,,,,,,,,,,,,,,,,,,,,,,,,,,,,0,0,0,0,1,,"[""k""]",[0.3930000000000291],0,"[""k""]",[0.3930000000000291],,,,,,,,,,,,,,,,,,,,,,,,,,,,,,,,,,,,,,,,,,,,,,,,,,,,,,,,,,,,,,
,,,,647412,001,2023-10-10_01h49.49.509,fluency,2022.2.4,Win32,74.96251874,,,,,,,,,,,,,,,,,,,,,,,4,8,img/B08_04.jpg,CONTROL,Press K as soon as you see a face, ,KJ,,,,,,,,,,,,,,,,,,,,,,,,,,,,,,,,7,0.369,,,,,,,,,,,,,,0,41,41,81,1,,,,,,,,,,,,,space,0.834,,,,,,,,,,,,,,,,,,,,,,,,,,,,,,,,,,,,,,,,,,,,,,,,,,,,,,,,,,,,
,,,,647412,001,2023-10-10_01h49.49.509,fluency,2022.2.4,Win32,74.96251874,,,,,,,,,,,,,,,,,,,,,,,7,6,img/B06_07.jpg,CONTROL,Press K as soon as you see a face, ,KJ,,,,,,,,,,,,,,,,,,,,,,,,,,,,,,,,,,,,,,,,,,,,,,547.107,0,42,42,62,1,109,0,0,0,0,1,98,,,,,,,,,,,,,,,,,,,,,,,,,,,,,,,,,,,,,,,,,,,,,,,,,,,,,,,,,,,,,,,,,,,
,,,,647412,001,2023-10-10_01h49.49.509,fluency,2022.2.4,Win32,74.96251874,,,,,,,,,,,,,,,,,,,,,,,,,,,,,,,,,,,,,,,,,,,,,,,,,,,,,,,,,,,,,,,,,,,,,,,,,,,,,,,,,,0,0,0,0,1,,"[""k""]",[0.30700000000001637],0,"[""k""]",[0.30700000000001637],,,,,,,,,,,,,,,,,,,,,,,,,,,,,,,,,,,,,,,,,,,,,,,,,,,,,,,,,,,,,,
,,,,647412,001,2023-10-10_01h49.49.509,fluency,2022.2.4,Win32,74.96251874,,,,,,,,,,,,,,,,,,,,,,,7,6,img/B06_07.jpg,CONTROL,Press K as soon as you see a face, ,KJ,,,,,,,,,,,,,,,,,,,,,,,,,,,,,,,,3,0.869,,,,,,,,,,,,,,0,42,42,62,1,,,,,,,,,,,,,space,0.506,,,,,,,,,,,,,,,,,,,,,,,,,,,,,,,,,,,,,,,,,,,,,,,,,,,,,,,,,,,,
,,,,647412,001,2023-10-10_01h49.49.509,fluency,2022.2.4,Win32,74.96251874,,,,,,,,,,,,,,,,,,,,,,,3,7,img/B07_03.jpg,CONTROL,Press K as soon as you see a face, ,KJ,,,,,,,,,,,,,,,,,,,,,,,,,,,,,,,,,,,,,,,,,,,,,,552.515,0,43,43,69,1,109,0,0,0,0,1,98,,,,,,,,,,,,,,,,,,,,,,,,,,,,,,,,,,,,,,,,,,,,,,,,,,,,,,,,,,,,,,,,,,,
,,,,647412,001,2023-10-10_01h49.49.509,fluency,2022.2.4,Win32,74.96251874,,,,,,,,,,,,,,,,,,,,,,,,,,,,,,,,,,,,,,,,,,,,,,,,,,,,,,,,,,,,,,,,,,,,,,,,,,,,,,,,,,0,0,0,0,1,,"[""k""]",[0.30499999999995],0,"[""k""]",[0.30499999999995],,,,,,,,,,,,,,,,,,,,,,,,,,,,,,,,,,,,,,,,,,,,,,,,,,,,,,,,,,,,,,
,,,,647412,001,2023-10-10_01h49.49.509,fluency,2022.2.4,Win32,74.96251874,,,,,,,,,,,,,,,,,,,,,,,3,7,img/B07_03.jpg,CONTROL,Press K as soon as you see a face, ,KJ,,,,,,,,,,,,,,,,,,,,,,,,,,,,,,,,3,2.17,,,,,,,,,,,,,,0,43,43,69,1,,,,,,,,,,,,,space,39.855,,,,,,,,,,,,,,,,,,,,,,,,,,,,,,,,,,,,,,,,,,,,,,,,,,,,,,,,,,,,
,,,,647412,001,2023-10-10_01h49.49.509,fluency,2022.2.4,Win32,74.96251874,,,,,,,,,,,,,,,,,,,,,,,5,2,img/B02_05.jpg,CONTROL,Press K as soon as you see a face, ,KJ,,,,,,,,,,,,,,,,,,,,,,,,,,,,,,,,,,,,,,,,,,,,,,598.573,0,44,44,16,1,109,0,0,0,0,1,98,,,,,,,,,,,,,,,,,,,,,,,,,,,,,,,,,,,,,,,,,,,,,,,,,,,,,,,,,,,,,,,,,,,
,,,,647412,001,2023-10-10_01h49.49.509,fluency,2022.2.4,Win32,74.96251874,,,,,,,,,,,,,,,,,,,,,,,,,,,,,,,,,,,,,,,,,,,,,,,,,,,,,,,,,,,,,,,,,,,,,,,,,,,,,,,,,,0,0,0,0,1,,"[""k""]",[0.41200000000003456],0,"[""k""]",[0.41200000000003456],,,,,,,,,,,,,,,,,,,,,,,,,,,,,,,,,,,,,,,,,,,,,,,,,,,,,,,,,,,,,,
,,,,647412,001,2023-10-10_01h49.49.509,fluency,2022.2.4,Win32,74.96251874,,,,,,,,,,,,,,,,,,,,,,,5,2,img/B02_05.jpg,CONTROL,Press K as soon as you see a face, ,KJ,,,,,,,,,,,,,,,,,,,,,,,,,,,,,,,,5,0.372,,,,,,,,,,,,,,0,44,44,16,1,,,,,,,,,,,,,space,0.608,,,,,,,,,,,,,,,,,,,,,,,,,,,,,,,,,,,,,,,,,,,,,,,,,,,,,,,,,,,,
,,,,647412,001,2023-10-10_01h49.49.509,fluency,2022.2.4,Win32,74.96251874,,,,,,,,,,,,,,,,,,,,,,,8,6,img/B06_08.jpg,CONTROL,Press K as soon as you see a face, ,KJ,,,,,,,,,,,,,,,,,,,,,,,,,,,,,,,,,,,,,,,,,,,,,,604.581,0,45,45,63,1,109,0,0,0,0,1,98,,,,,,,,,,,,,,,,,,,,,,,,,,,,,,,,,,,,,,,,,,,,,,,,,,,,,,,,,,,,,,,,,,,
,,,,647412,001,2023-10-10_01h49.49.509,fluency,2022.2.4,Win32,74.96251874,,,,,,,,,,,,,,,,,,,,,,,,,,,,,,,,,,,,,,,,,,,,,,,,,,,,,,,,,,,,,,,,,,,,,,,,,,,,,,,,,,0,0,0,0,1,,"[""k""]",[0.3310000000000173],0,"[""k""]",[0.3310000000000173],,,,,,,,,,,,,,,,,,,,,,,,,,,,,,,,,,,,,,,,,,,,,,,,,,,,,,,,,,,,,,
,,,,647412,001,2023-10-10_01h49.49.509,fluency,2022.2.4,Win32,74.96251874,,,,,,,,,,,,,,,,,,,,,,,8,6,img/B06_08.jpg,CONTROL,Press K as soon as you see a face, ,KJ,,,,,,,,,,,,,,,,,,,,,,,,,,,,,,,,4,0.567,,,,,,,,,,,,,,0,45,45,63,1,,,,,,,,,,,,,space,0.508,,,,,,,,,,,,,,,,,,,,,,,,,,,,,,,,,,,,,,,,,,,,,,,,,,,,,,,,,,,,
,,,,647412,001,2023-10-10_01h49.49.509,fluency,2022.2.4,Win32,74.96251874,,,,,,,,,,,,,,,,,,,,,,,4,1,img/B01_04.jpg,CONTROL,Press K as soon as you see a face, ,KJ,,,,,,,,,,,,,,,,,,,,,,,,,,,,,,,,,,,,,,,,,,,,,,609.694,0,46,46,4,1,109,0,0,0,0,1,98,,,,,,,,,,,,,,,,,,,,,,,,,,,,,,,,,,,,,,,,,,,,,,,,,,,,,,,,,,,,,,,,,,,
,,,,647412,001,2023-10-10_01h49.49.509,fluency,2022.2.4,Win32,74.96251874,,,,,,,,,,,,,,,,,,,,,,,,,,,,,,,,,,,,,,,,,,,,,,,,,,,,,,,,,,,,,,,,,,,,,,,,,,,,,,,,,,0,0,0,0,1,,"[""k""]",[0.4009999999999536],0,"[""k""]",[0.4009999999999536],,,,,,,,,,,,,,,,,,,,,,,,,,,,,,,,,,,,,,,,,,,,,,,,,,,,,,,,,,,,,,
,,,,647412,001,2023-10-10_01h49.49.509,fluency,2022.2.4,Win32,74.96251874,,,,,,,,,,,,,,,,,,,,,,,4,1,img/B01_04.jpg,CONTROL,Press K as soon as you see a face, ,KJ,,,,,,,,,,,,,,,,,,,,,,,,,,,,,,,,1,0.306,,,,,,,,,,,,,,0,46,46,4,1,,,,,,,,,,,,,space,4.194,,,,,,,,,,,,,,,,,,,,,,,,,,,,,,,,,,,,,,,,,,,,,,,,,,,,,,,,,,,,
,,,,647412,001,2023-10-10_01h49.49.509,fluency,2022.2.4,Win32,74.96251874,,,,,,,,,,,,,,,,,,,,,,,8,7,img/B07_08.jpg,CONTROL,Press K as soon as you see a face, ,KJ,,,,,,,,,,,,,,,,,,,,,,,,,,,,,,,,,,,,,,,,,,,,,,619.227,0,47,47,74,1,109,0,0,0,0,1,98,,,,,,,,,,,,,,,,,,,,,,,,,,,,,,,,,,,,,,,,,,,,,,,,,,,,,,,,,,,,,,,,,,,
,,,,647412,001,2023-10-10_01h49.49.509,fluency,2022.2.4,Win32,74.96251874,,,,,,,,,,,,,,,,,,,,,,,,,,,,,,,,,,,,,,,,,,,,,,,,,,,,,,,,,,,,,,,,,,,,,,,,,,,,,,,,,,0,0,0,0,1,,"[""k""]",[0.2540000000000191],0,"[""k""]",[0.2540000000000191],,,,,,,,,,,,,,,,,,,,,,,,,,,,,,,,,,,,,,,,,,,,,,,,,,,,,,,,,,,,,,
,,,,647412,001,2023-10-10_01h49.49.509,fluency,2022.2.4,Win32,74.96251874,,,,,,,,,,,,,,,,,,,,,,,8,7,img/B07_08.jpg,CONTROL,Press K as soon as you see a face, ,KJ,,,,,,,,,,,,,,,,,,,,,,,,,,,,,,,,4,0.336,,,,,,,,,,,,,,0,47,47,74,1,,,,,,,,,,,,,space,0.445,,,,,,,,,,,,,,,,,,,,,,,,,,,,,,,,,,,,,,,,,,,,,,,,,,,,,,,,,,,,
,,,,647412,001,2023-10-10_01h49.49.509,fluency,2022.2.4,Win32,74.96251874,,,,,,,,,,,,,,,,,,,,,,,0,1,img/B01_00.jpg,CONTROL,Press K as soon as you see a face, ,KJ,,,,,,,,,,,,,,,,,,,,,,,,,,,,,,,,,,,,,,,,,,,,,,624.046,0,48,48,0,1,109,0,0,0,0,1,98,,,,,,,,,,,,,,,,,,,,,,,,,,,,,,,,,,,,,,,,,,,,,,,,,,,,,,,,,,,,,,,,,,,
,,,,647412,001,2023-10-10_01h49.49.509,fluency,2022.2.4,Win32,74.96251874,,,,,,,,,,,,,,,,,,,,,,,,,,,,,,,,,,,,,,,,,,,,,,,,,,,,,,,,,,,,,,,,,,,,,,,,,,,,,,,,,,0,0,0,0,1,,"[""k""]",[0.31900000000007367],0,"[""k""]",[0.31900000000007367],,,,,,,,,,,,,,,,,,,,,,,,,,,,,,,,,,,,,,,,,,,,,,,,,,,,,,,,,,,,,,
,,,,647412,001,2023-10-10_01h49.49.509,fluency,2022.2.4,Win32,74.96251874,,,,,,,,,,,,,,,,,,,,,,,0,1,img/B01_00.jpg,CONTROL,Press K as soon as you see a face, ,KJ,,,,,,,,,,,,,,,,,,,,,,,,,,,,,,,,1,0.409,,,,,,,,,,,,,,0,48,48,0,1,,,,,,,,,,,,,space,0.43,,,,,,,,,,,,,,,,,,,,,,,,,,,,,,,,,,,,,,,,,,,,,,,,,,,,,,,,,,,,
,,,,647412,001,2023-10-10_01h49.49.509,fluency,2022.2.4,Win32,74.96251874,,,,,,,,,,,,,,,,,,,,,,,6,5,img/B05_06.jpg,CONTROL,Press K as soon as you see a face, ,KJ,,,,,,,,,,,,,,,,,,,,,,,,,,,,,,,,,,,,,,,,,,,,,,628.919,0,49,49,50,1,109,0,0,0,0,1,98,,,,,,,,,,,,,,,,,,,,,,,,,,,,,,,,,,,,,,,,,,,,,,,,,,,,,,,,,,,,,,,,,,,
,,,,647412,001,2023-10-10_01h49.49.509,fluency,2022.2.4,Win32,74.96251874,,,,,,,,,,,,,,,,,,,,,,,,,,,,,,,,,,,,,,,,,,,,,,,,,,,,,,,,,,,,,,,,,,,,,,,,,,,,,,,,,,0,0,0,0,1,,"[""k""]",[0.3790000000000191],0,"[""k""]",[0.3790000000000191],,,,,,,,,,,,,,,,,,,,,,,,,,,,,,,,,,,,,,,,,,,,,,,,,,,,,,,,,,,,,,
,,,,647412,001,2023-10-10_01h49.49.509,fluency,2022.2.4,Win32,74.96251874,,,,,,,,,,,,,,,,,,,,,,,6,5,img/B05_06.jpg,CONTROL,Press K as soon as you see a face, ,KJ,,,,,,,,,,,,,,,,,,,,,,,,,,,,,,,,5,2.051,,,,,,,,,,,,,,0,49,49,50,1,,,,,,,,,,,,,space,0.203,,,,,,,,,,,,,,,,,,,,,,,,,,,,,,,,,,,,,,,,,,,,,,,,,,,,,,,,,,,,
,,,,647412,001,2023-10-10_01h49.49.509,fluency,2022.2.4,Win32,74.96251874,,,,,,,,,,,,,,,,,,,,,,,9,6,img/B06_09.jpg,CONTROL,Press K as soon as you see a face, ,KJ,,,,,,,,,,,,,,,,,,,,,,,,,,,,,,,,,,,,,,,,,,,,,,636.208,0,50,50,64,1,109,0,0,0,0,1,98,,,,,,,,,,,,,,,,,,,,,,,,,,,,,,,,,,,,,,,,,,,,,,,,,,,,,,,,,,,,,,,,,,,
,,,,647412,001,2023-10-10_01h49.49.509,fluency,2022.2.4,Win32,74.96251874,,,,,,,,,,,,,,,,,,,,,,,,,,,,,,,,,,,,,,,,,,,,,,,,,,,,,,,,,,,,,,,,,,,,,,,,,,,,,,,,,,0,0,0,0,1,,"[""k""]",[0.2960000000000491],0,"[""k""]",[0.2960000000000491],,,,,,,,,,,,,,,,,,,,,,,,,,,,,,,,,,,,,,,,,,,,,,,,,,,,,,,,,,,,,,
,,,,647412,001,2023-10-10_01h49.49.509,fluency,2022.2.4,Win32,74.96251874,,,,,,,,,,,,,,,,,,,,,,,9,6,img/B06_09.jpg,CONTROL,Press K as soon as you see a face, ,KJ,,,,,,,,,,,,,,,,,,,,,,,,,,,,,,,,3,0.363,,,,,,,,,,,,,,0,50,50,64,1,,,,,,,,,,,,,space,0.515,,,,,,,,,,,,,,,,,,,,,,,,,,,,,,,,,,,,,,,,,,,,,,,,,,,,,,,,,,,,
,,,,647412,001,2023-10-10_01h49.49.509,fluency,2022.2.4,Win32,74.96251874,,,,,,,,,,,,,,,,,,,,,,,10,2,img/B02_10.jpg,CONTROL,Press K as soon as you see a face, ,KJ,,,,,,,,,,,,,,,,,,,,,,,,,,,,,,,,,,,,,,,,,,,,,,642.096,0,51,51,21,1,109,0,0,0,0,1,98,,,,,,,,,,,,,,,,,,,,,,,,,,,,,,,,,,,,,,,,,,,,,,,,,,,,,,,,,,,,,,,,,,,
,,,,647412,001,2023-10-10_01h49.49.509,fluency,2022.2.4,Win32,74.96251874,,,,,,,,,,,,,,,,,,,,,,,,,,,,,,,,,,,,,,,,,,,,,,,,,,,,,,,,,,,,,,,,,,,,,,,,,,,,,,,,,,0,0,0,0,1,,"[""k""]",[0.2919999999999163],0,"[""k""]",[0.2919999999999163],,,,,,,,,,,,,,,,,,,,,,,,,,,,,,,,,,,,,,,,,,,,,,,,,,,,,,,,,,,,,,
,,,,647412,001,2023-10-10_01h49.49.509,fluency,2022.2.4,Win32,74.96251874,,,,,,,,,,,,,,,,,,,,,,,10,2,img/B02_10.jpg,CONTROL,Press K as soon as you see a face, ,KJ,,,,,,,,,,,,,,,,,,,,,,,,,,,,,,,,2,1.186,,,,,,,,,,,,,,0,51,51,21,1,,,,,,,,,,,,,space,0.359,,,,,,,,,,,,,,,,,,,,,,,,,,,,,,,,,,,,,,,,,,,,,,,,,,,,,,,,,,,,
,,,,647412,001,2023-10-10_01h49.49.509,fluency,2022.2.4,Win32,74.96251874,,,,,,,,,,,,,,,,,,,,,,,3,4,img/B04_03.jpg,CONTROL,Press K as soon as you see a face, ,KJ,,,,,,,,,,,,,,,,,,,,,,,,,,,,,,,,,,,,,,,,,,,,,,647.676,0,52,52,36,1,109,0,0,0,0,1,98,,,,,,,,,,,,,,,,,,,,,,,,,,,,,,,,,,,,,,,,,,,,,,,,,,,,,,,,,,,,,,,,,,,
,,,,647412,001,2023-10-10_01h49.49.509,fluency,2022.2.4,Win32,74.96251874,,,,,,,,,,,,,,,,,,,,,,,,,,,,,,,,,,,,,,,,,,,,,,,,,,,,,,,,,,,,,,,,,,,,,,,,,,,,,,,,,,0,0,0,0,1,,"[""k""]",[0.4290000000000873],0,"[""k""]",[0.4290000000000873],,,,,,,,,,,,,,,,,,,,,,,,,,,,,,,,,,,,,,,,,,,,,,,,,,,,,,,,,,,,,,
,,,,647412,001,2023-10-10_01h49.49.509,fluency,2022.2.4,Win32,74.96251874,,,,,,,,,,,,,,,,,,,,,,,3,4,img/B04_03.jpg,CONTROL,Press K as soon as you see a face, ,KJ,,,,,,,,,,,,,,,,,,,,,,,,,,,,,,,,9,1.222,,,,,,,,,,,,,,0,52,52,36,1,,,,,,,,,,,,,space,0.934,,,,,,,,,,,,,,,,,,,,,,,,,,,,,,,,,,,,,,,,,,,,,,,,,,,,,,,,,,,,
,,,,647412,001,2023-10-10_01h49.49.509,fluency,2022.2.4,Win32,74.96251874,,,,,,,,,,,,,,,,,,,,,,,0,5,img/B05_00.jpg,CONTROL,Press K as soon as you see a face, ,KJ,,,,,,,,,,,,,,,,,,,,,,,,,,,,,,,,,,,,,,,,,,,,,,653.871,0,53,53,44,1,109,0,0,0,0,1,98,,,,,,,,,,,,,,,,,,,,,,,,,,,,,,,,,,,,,,,,,,,,,,,,,,,,,,,,,,,,,,,,,,,
,,,,647412,001,2023-10-10_01h49.49.509,fluency,2022.2.4,Win32,74.96251874,,,,,,,,,,,,,,,,,,,,,,,,,,,,,,,,,,,,,,,,,,,,,,,,,,,,,,,,,,,,,,,,,,,,,,,,,,,,,,,,,,0,0,0,0,1,,"[""k""]",[0.45699999999999363],0,"[""k""]",[0.45699999999999363],,,,,,,,,,,,,,,,,,,,,,,,,,,,,,,,,,,,,,,,,,,,,,,,,,,,,,,,,,,,,,
,,,,647412,001,2023-10-10_01h49.49.509,fluency,2022.2.4,Win32,74.96251874,,,,,,,,,,,,,,,,,,,,,,,0,5,img/B05_00.jpg,CONTROL,Press K as soon as you see a face, ,KJ,,,,,,,,,,,,,,,,,,,,,,,,,,,,,,,,2,0.333,,,,,,,,,,,,,,0,53,53,44,1,,,,,,,,,,,,,space,0.471,,,,,,,,,,,,,,,,,,,,,,,,,,,,,,,,,,,,,,,,,,,,,,,,,,,,,,,,,,,,
,,,,647412,001,2023-10-10_01h49.49.509,fluency,2022.2.4,Win32,74.96251874,,,,,,,,,,,,,,,,,,,,,,,2,8,img/B08_02.jpg,CONTROL,Press K as soon as you see a face, ,KJ,,,,,,,,,,,,,,,,,,,,,,,,,,,,,,,,,,,,,,,,,,,,,,659.705,0,54,54,79,1,109,0,0,0,0,1,98,,,,,,,,,,,,,,,,,,,,,,,,,,,,,,,,,,,,,,,,,,,,,,,,,,,,,,,,,,,,,,,,,,,
,,,,647412,001,2023-10-10_01h49.49.509,fluency,2022.2.4,Win32,74.96251874,,,,,,,,,,,,,,,,,,,,,,,,,,,,,,,,,,,,,,,,,,,,,,,,,,,,,,,,,,,,,,,,,,,,,,,,,,,,,,,,,,0,0,0,0,1,,"[""k""]",[0.9130000000000109],0,"[""space"",""k""]","[0.5860000000000127,0.9130000000000109]",,,,,,,,,,,,,,,,,,,,,,,,,,,,,,,,,,,,,,,,,,,,,,,,,,,,,,,,,,,,,,
,,,,647412,001,2023-10-10_01h49.49.509,fluency,2022.2.4,Win32,74.96251874,,,,,,,,,,,,,,,,,,,,,,,2,8,img/B08_02.jpg,CONTROL,Press K as soon as you see a face, ,KJ,,,,,,,,,,,,,,,,,,,,,,,,,,,,,,,,6,3.817,,,,,,,,,,,,,,0,54,54,79,1,,,,,,,,,,,,,space,0.416,,,,,,,,,,,,,,,,,,,,,,,,,,,,,,,,,,,,,,,,,,,,,,,,,,,,,,,,,,,,
,,,,647412,001,2023-10-10_01h49.49.509,fluency,2022.2.4,Win32,74.96251874,,,,,,,,,,,,,,,,,,,,,,,4,2,img/B02_04.jpg,CONTROL,Press K as soon as you see a face, ,KJ,,,,,,,,,,,,,,,,,,,,,,,,,,,,,,,,,,,,,,,,,,,,,,667.968,0,55,55,15,1,109,0,0,0,0,1,98,,,,,,,,,,,,,,,,,,,,,,,,,,,,,,,,,,,,,,,,,,,,,,,,,,,,,,,,,,,,,,,,,,,
,,,,647412,001,2023-10-10_01h49.49.509,fluency,2022.2.4,Win32,74.96251874,,,,,,,,,,,,,,,,,,,,,,,,,,,,,,,,,,,,,,,,,,,,,,,,,,,,,,,,,,,,,,,,,,,,,,,,,,,,,,,,,,0,0,0,0,1,,"[""k""]",[0.7540000000000191],0,"[""k""]",[0.7540000000000191],,,,,,,,,,,,,,,,,,,,,,,,,,,,,,,,,,,,,,,,,,,,,,,,,,,,,,,,,,,,,,
,,,,647412,001,2023-10-10_01h49.49.509,fluency,2022.2.4,Win32,74.96251874,,,,,,,,,,,,,,,,,,,,,,,4,2,img/B02_04.jpg,CONTROL,Press K as soon as you see a face, ,KJ,,,,,,,,,,,,,,,,,,,,,,,,,,,,,,,,3,0.584,,,,,,,,,,,,,,0,55,55,15,1,,,,,,,,,,,,,space,0.325,,,,,,,,,,,,,,,,,,,,,,,,,,,,,,,,,,,,,,,,,,,,,,,,,,,,,,,,,,,,
,,,,647412,001,2023-10-10_01h49.49.509,fluency,2022.2.4,Win32,74.96251874,,,,,,,,,,,,,,,,,,,,,,,1,6,img/B06_01.jpg,CONTROL,Press K as soon as you see a face, ,KJ,,,,,,,,,,,,,,,,,,,,,,,,,,,,,,,,,,,,,,,,,,,,,,673.91,0,56,56,56,1,109,0,0,0,0,1,98,,,,,,,,,,,,,,,,,,,,,,,,,,,,,,,,,,,,,,,,,,,,,,,,,,,,,,,,,,,,,,,,,,,
,,,,647412,001,2023-10-10_01h49.49.509,fluency,2022.2.4,Win32,74.96251874,,,,,,,,,,,,,,,,,,,,,,,,,,,,,,,,,,,,,,,,,,,,,,,,,,,,,,,,,,,,,,,,,,,,,,,,,,,,,,,,,,0,0,0,0,1,,"[""k""]",[0.2680000000000291],0,"[""k""]",[0.2680000000000291],,,,,,,,,,,,,,,,,,,,,,,,,,,,,,,,,,,,,,,,,,,,,,,,,,,,,,,,,,,,,,
,,,,647412,001,2023-10-10_01h49.49.509,fluency,2022.2.4,Win32,74.96251874,,,,,,,,,,,,,,,,,,,,,,,1,6,img/B06_01.jpg,CONTROL,Press K as soon as you see a face, ,KJ,,,,,,,,,,,,,,,,,,,,,,,,,,,,,,,,1,0.309,,,,,,,,,,,,,,0,56,56,56,1,,,,,,,,,,,,,space,0.413,,,,,,,,,,,,,,,,,,,,,,,,,,,,,,,,,,,,,,,,,,,,,,,,,,,,,,,,,,,,
,,,,647412,001,2023-10-10_01h49.49.509,fluency,2022.2.4,Win32,74.96251874,,,,,,,,,,,,,,,,,,,,,,,9,5,img/B05_09.jpg,CONTROL,Press K as soon as you see a face, ,KJ,,,,,,,,,,,,,,,,,,,,,,,,,,,,,,,,,,,,,,,,,,,,,,679.663,0,57,57,53,1,109,0,0,0,0,1,98,,,,,,,,,,,,,,,,,,,,,,,,,,,,,,,,,,,,,,,,,,,,,,,,,,,,,,,,,,,,,,,,,,,
,,,,647412,001,2023-10-10_01h49.49.509,fluency,2022.2.4,Win32,74.96251874,,,,,,,,,,,,,,,,,,,,,,,,,,,,,,,,,,,,,,,,,,,,,,,,,,,,,,,,,,,,,,,,,,,,,,,,,,,,,,,,,,0,0,0,0,1,,"[""k""]",[0.2579999999999245],0,"[""k""]",[0.2579999999999245],,,,,,,,,,,,,,,,,,,,,,,,,,,,,,,,,,,,,,,,,,,,,,,,,,,,,,,,,,,,,,
,,,,647412,001,2023-10-10_01h49.49.509,fluency,2022.2.4,Win32,74.96251874,,,,,,,,,,,,,,,,,,,,,,,9,5,img/B05_09.jpg,CONTROL,Press K as soon as you see a face, ,KJ,,,,,,,,,,,,,,,,,,,,,,,,,,,,,,,,3,0.266,,,,,,,,,,,,,,0,57,57,53,1,,,,,,,,,,,,,space,0.376,,,,,,,,,,,,,,,,,,,,,,,,,,,,,,,,,,,,,,,,,,,,,,,,,,,,,,,,,,,,
,,,,647412,001,2023-10-10_01h49.49.509,fluency,2022.2.4,Win32,74.96251874,,,,,,,,,,,,,,,,,,,,,,,1,9,img/B09_01.jpg,CONTROL,Press K as soon as you see a face, ,KJ,,,,,,,,,,,,,,,,,,,,,,,,,,,,,,,,,,,,,,,,,,,,,,684.336,0,58,58,89,1,109,0,0,0,0,1,98,,,,,,,,,,,,,,,,,,,,,,,,,,,,,,,,,,,,,,,,,,,,,,,,,,,,,,,,,,,,,,,,,,,
,,,,647412,001,2023-10-10_01h49.49.509,fluency,2022.2.4,Win32,74.96251874,,,,,,,,,,,,,,,,,,,,,,,,,,,,,,,,,,,,,,,,,,,,,,,,,,,,,,,,,,,,,,,,,,,,,,,,,,,,,,,,,,0,0,0,0,1,,"[""k""]",[0.45799999999997],0,"[""k""]",[0.45799999999997],,,,,,,,,,,,,,,,,,,,,,,,,,,,,,,,,,,,,,,,,,,,,,,,,,,,,,,,,,,,,,
,,,,647412,001,2023-10-10_01h49.49.509,fluency,2022.2.4,Win32,74.96251874,,,,,,,,,,,,,,,,,,,,,,,1,9,img/B09_01.jpg,CONTROL,Press K as soon as you see a face, ,KJ,,,,,,,,,,,,,,,,,,,,,,,,,,,,,,,,4,1.265,,,,,,,,,,,,,,0,58,58,89,1,,,,,,,,,,,,,space,0.565,,,,,,,,,,,,,,,,,,,,,,,,,,,,,,,,,,,,,,,,,,,,,,,,,,,,,,,,,,,,
,,,,647412,001,2023-10-10_01h49.49.509,fluency,2022.2.4,Win32,74.96251874,,,,,,,,,,,,,,,,,,,,,,,4,4,img/B04_04.jpg,CONTROL,Press K as soon as you see a face, ,KJ,,,,,,,,,,,,,,,,,,,,,,,,,,,,,,,,,,,,,,,,,,,,,,690.197,0,59,59,37,1,109,0,0,0,0,1,98,,,,,,,,,,,,,,,,,,,,,,,,,,,,,,,,,,,,,,,,,,,,,,,,,,,,,,,,,,,,,,,,,,,
,,,,647412,001,2023-10-10_01h49.49.509,fluency,2022.2.4,Win32,74.96251874,,,,,,,,,,,,,,,,,,,,,,,,,,,,,,,,,,,,,,,,,,,,,,,,,,,,,,,,,,,,,,,,,,,,,,,,,,,,,,,,,,0,0,0,0,1,,"[""k""]",[0.34799999999995634],0,"[""k""]",[0.34799999999995634],,,,,,,,,,,,,,,,,,,,,,,,,,,,,,,,,,,,,,,,,,,,,,,,,,,,,,,,,,,,,,
,,,,647412,001,2023-10-10_01h49.49.509,fluency,2022.2.4,Win32,74.96251874,,,,,,,,,,,,,,,,,,,,,,,4,4,img/B04_04.jpg,CONTROL,Press K as soon as you see a face, ,KJ,,,,,,,,,,,,,,,,,,,,,,,,,,,,,,,,7,0.547,,,,,,,,,,,,,,0,59,59,37,1,,,,,,,,,,,,,space,0.522,,,,,,,,,,,,,,,,,,,,,,,,,,,,,,,,,,,,,,,,,,,,,,,,,,,,,,,,,,,,
,,,,647412,001,2023-10-10_01h49.49.509,fluency,2022.2.4,Win32,74.96251874,,,,,,,,,,,,,,,,,,,,,,,10,7,img/B07_10.jpg,CONTROL,Press K as soon as you see a face, ,KJ,,,,,,,,,,,,,,,,,,,,,,,,,,,,,,,,,,,,,,,,,,,,,,695.297,0,60,60,76,1,109,0,0,0,0,1,98,,,,,,,,,,,,,,,,,,,,,,,,,,,,,,,,,,,,,,,,,,,,,,,,,,,,,,,,,,,,,,,,,,,
,,,,647412,001,2023-10-10_01h49.49.509,fluency,2022.2.4,Win32,74.96251874,,,,,,,,,,,,,,,,,,,,,,,,,,,,,,,,,,,,,,,,,,,,,,,,,,,,,,,,,,,,,,,,,,,,,,,,,,,,,,,,,,0,0,0,0,1,,"[""k""]",[0.4519999999999982],0,"[""k""]",[0.4519999999999982],,,,,,,,,,,,,,,,,,,,,,,,,,,,,,,,,,,,,,,,,,,,,,,,,,,,,,,,,,,,,,
,,,,647412,001,2023-10-10_01h49.49.509,fluency,2022.2.4,Win32,74.96251874,,,,,,,,,,,,,,,,,,,,,,,10,7,img/B07_10.jpg,CONTROL,Press K as soon as you see a face, ,KJ,,,,,,,,,,,,,,,,,,,,,,,,,,,,,,,,3,0.489,,,,,,,,,,,,,,0,60,60,76,1,,,,,,,,,,,,,space,0.38,,,,,,,,,,,,,,,,,,,,,,,,,,,,,,,,,,,,,,,,,,,,,,,,,,,,,,,,,,,,
,,,,647412,001,2023-10-10_01h49.49.509,fluency,2022.2.4,Win32,74.96251874,,,,,,,,,,,,,,,,,,,,,,,4,7,img/B07_04.jpg,CONTROL,Press K as soon as you see a face, ,KJ,,,,,,,,,,,,,,,,,,,,,,,,,,,,,,,,,,,,,,,,,,,,,,701.198,0,61,61,70,1,109,0,0,0,0,1,98,,,,,,,,,,,,,,,,,,,,,,,,,,,,,,,,,,,,,,,,,,,,,,,,,,,,,,,,,,,,,,,,,,,
,,,,647412,001,2023-10-10_01h49.49.509,fluency,2022.2.4,Win32,74.96251874,,,,,,,,,,,,,,,,,,,,,,,,,,,,,,,,,,,,,,,,,,,,,,,,,,,,,,,,,,,,,,,,,,,,,,,,,,,,,,,,,,0,0,0,0,1,,"[""k""]",[0.6009999999999991],0,"[""k""]",[0.6009999999999991],,,,,,,,,,,,,,,,,,,,,,,,,,,,,,,,,,,,,,,,,,,,,,,,,,,,,,,,,,,,,,
,,,,647412,001,2023-10-10_01h49.49.509,fluency,2022.2.4,Win32,74.96251874,,,,,,,,,,,,,,,,,,,,,,,4,7,img/B07_04.jpg,CONTROL,Press K as soon as you see a face, ,KJ,,,,,,,,,,,,,,,,,,,,,,,,,,,,,,,,2,0.609,,,,,,,,,,,,,,0,61,61,70,1,,,,,,,,,,,,,space,0.401,,,,,,,,,,,,,,,,,,,,,,,,,,,,,,,,,,,,,,,,,,,,,,,,,,,,,,,,,,,,
,,,,647412,001,2023-10-10_01h49.49.509,fluency,2022.2.4,Win32,74.96251874,,,,,,,,,,,,,,,,,,,,,,,10,6,img/B06_10.jpg,CONTROL,Press K as soon as you see a face, ,KJ,,,,,,,,,,,,,,,,,,,,,,,,,,,,,,,,,,,,,,,,,,,,,,706.245,0,62,62,65,1,109,0,0,0,0,1,98,,,,,,,,,,,,,,,,,,,,,,,,,,,,,,,,,,,,,,,,,,,,,,,,,,,,,,,,,,,,,,,,,,,
,,,,647412,001,2023-10-10_01h49.49.509,fluency,2022.2.4,Win32,74.96251874,,,,,,,,,,,,,,,,,,,,,,,,,,,,,,,,,,,,,,,,,,,,,,,,,,,,,,,,,,,,,,,,,,,,,,,,,,,,,,,,,,0,0,0,0,1,,"[""k""]",[0.45100000000002183],0,"[""k""]",[0.45100000000002183],,,,,,,,,,,,,,,,,,,,,,,,,,,,,,,,,,,,,,,,,,,,,,,,,,,,,,,,,,,,,,
,,,,647412,001,2023-10-10_01h49.49.509,fluency,2022.2.4,Win32,74.96251874,,,,,,,,,,,,,,,,,,,,,,,10,6,img/B06_10.jpg,CONTROL,Press K as soon as you see a face, ,KJ,,,,,,,,,,,,,,,,,,,,,,,,,,,,,,,,3,0.286,,,,,,,,,,,,,,0,62,62,65,1,,,,,,,,,,,,,space,0.457,,,,,,,,,,,,,,,,,,,,,,,,,,,,,,,,,,,,,,,,,,,,,,,,,,,,,,,,,,,,
,,,,647412,001,2023-10-10_01h49.49.509,fluency,2022.2.4,Win32,74.96251874,,,,,,,,,,,,,,,,,,,,,,,9,10,img/B10_09.jpg,CONTROL,Press K as soon as you see a face, ,KJ,,,,,,,,,,,,,,,,,,,,,,,,,,,,,,,,,,,,,,,,,,,,,,712.025,0,63,63,108,1,109,0,0,0,0,1,98,,,,,,,,,,,,,,,,,,,,,,,,,,,,,,,,,,,,,,,,,,,,,,,,,,,,,,,,,,,,,,,,,,,
,,,,647412,001,2023-10-10_01h49.49.509,fluency,2022.2.4,Win32,74.96251874,,,,,,,,,,,,,,,,,,,,,,,,,,,,,,,,,,,,,,,,,,,,,,,,,,,,,,,,,,,,,,,,,,,,,,,,,,,,,,,,,,0,0,0,0,1,,"[""k""]",[0.29200000000003],0,"[""k""]",[0.29200000000003],,,,,,,,,,,,,,,,,,,,,,,,,,,,,,,,,,,,,,,,,,,,,,,,,,,,,,,,,,,,,,
,,,,647412,001,2023-10-10_01h49.49.509,fluency,2022.2.4,Win32,74.96251874,,,,,,,,,,,,,,,,,,,,,,,9,10,img/B10_09.jpg,CONTROL,Press K as soon as you see a face, ,KJ,,,,,,,,,,,,,,,,,,,,,,,,,,,,,,,,2,0.634,,,,,,,,,,,,,,0,63,63,108,1,,,,,,,,,,,,,space,0.388,,,,,,,,,,,,,,,,,,,,,,,,,,,,,,,,,,,,,,,,,,,,,,,,,,,,,,,,,,,,
,,,,647412,001,2023-10-10_01h49.49.509,fluency,2022.2.4,Win32,74.96251874,,,,,,,,,,,,,,,,,,,,,,,8,2,img/B02_08.jpg,CONTROL,Press K as soon as you see a face, ,KJ,,,,,,,,,,,,,,,,,,,,,,,,,,,,,,,,,,,,,,,,,,,,,,717.086,0,64,64,19,1,109,0,0,0,0,1,98,,,,,,,,,,,,,,,,,,,,,,,,,,,,,,,,,,,,,,,,,,,,,,,,,,,,,,,,,,,,,,,,,,,
,,,,647412,001,2023-10-10_01h49.49.509,fluency,2022.2.4,Win32,74.96251874,,,,,,,,,,,,,,,,,,,,,,,,,,,,,,,,,,,,,,,,,,,,,,,,,,,,,,,,,,,,,,,,,,,,,,,,,,,,,,,,,,0,0,0,0,1,,"[""k""]",[0.3969999999999345],0,"[""k""]",[0.3969999999999345],,,,,,,,,,,,,,,,,,,,,,,,,,,,,,,,,,,,,,,,,,,,,,,,,,,,,,,,,,,,,,
,,,,647412,001,2023-10-10_01h49.49.509,fluency,2022.2.4,Win32,74.96251874,,,,,,,,,,,,,,,,,,,,,,,8,2,img/B02_08.jpg,CONTROL,Press K as soon as you see a face, ,KJ,,,,,,,,,,,,,,,,,,,,,,,,,,,,,,,,2,0.788,,,,,,,,,,,,,,0,64,64,19,1,,,,,,,,,,,,,space,0.417,,,,,,,,,,,,,,,,,,,,,,,,,,,,,,,,,,,,,,,,,,,,,,,,,,,,,,,,,,,,
,,,,647412,001,2023-10-10_01h49.49.509,fluency,2022.2.4,Win32,74.96251874,,,,,,,,,,,,,,,,,,,,,,,7,3,img/B03_07.jpg,CONTROL,Press K as soon as you see a face, ,KJ,,,,,,,,,,,,,,,,,,,,,,,,,,,,,,,,,,,,,,,,,,,,,,723.319,0,65,65,29,1,109,0,0,0,0,1,98,,,,,,,,,,,,,,,,,,,,,,,,,,,,,,,,,,,,,,,,,,,,,,,,,,,,,,,,,,,,,,,,,,,
,,,,647412,001,2023-10-10_01h49.49.509,fluency,2022.2.4,Win32,74.96251874,,,,,,,,,,,,,,,,,,,,,,,,,,,,,,,,,,,,,,,,,,,,,,,,,,,,,,,,,,,,,,,,,,,,,,,,,,,,,,,,,,0,0,0,0,1,,"[""k""]",[0.2899999999999636],0,"[""k""]",[0.2899999999999636],,,,,,,,,,,,,,,,,,,,,,,,,,,,,,,,,,,,,,,,,,,,,,,,,,,,,,,,,,,,,,
,,,,647412,001,2023-10-10_01h49.49.509,fluency,2022.2.4,Win32,74.96251874,,,,,,,,,,,,,,,,,,,,,,,7,3,img/B03_07.jpg,CONTROL,Press K as soon as you see a face, ,KJ,,,,,,,,,,,,,,,,,,,,,,,,,,,,,,,,4,0.53,,,,,,,,,,,,,,0,65,65,29,1,,,,,,,,,,,,,space,0.935,,,,,,,,,,,,,,,,,,,,,,,,,,,,,,,,,,,,,,,,,,,,,,,,,,,,,,,,,,,,
,,,,647412,001,2023-10-10_01h49.49.509,fluency,2022.2.4,Win32,74.96251874,,,,,,,,,,,,,,,,,,,,,,,3,2,img/B02_03.jpg,CONTROL,Press K as soon as you see a face, ,KJ,,,,,,,,,,,,,,,,,,,,,,,,,,,,,,,,,,,,,,,,,,,,,,729.821,0,66,66,14,1,109,0,0,0,0,1,98,,,,,,,,,,,,,,,,,,,,,,,,,,,,,,,,,,,,,,,,,,,,,,,,,,,,,,,,,,,,,,,,,,,
,,,,647412,001,2023-10-10_01h49.49.509,fluency,2022.2.4,Win32,74.96251874,,,,,,,,,,,,,,,,,,,,,,,,,,,,,,,,,,,,,,,,,,,,,,,,,,,,,,,,,,,,,,,,,,,,,,,,,,,,,,,,,,0,0,0,0,1,,"[""k""]",[0.26900000000000546],0,"[""k""]",[0.26900000000000546],,,,,,,,,,,,,,,,,,,,,,,,,,,,,,,,,,,,,,,,,,,,,,,,,,,,,,,,,,,,,,
,,,,647412,001,2023-10-10_01h49.49.509,fluency,2022.2.4,Win32,74.96251874,,,,,,,,,,,,,,,,,,,,,,,3,2,img/B02_03.jpg,CONTROL,Press K as soon as you see a face, ,KJ,,,,,,,,,,,,,,,,,,,,,,,,,,,,,,,,1,0.353,,,,,,,,,,,,,,0,66,66,14,1,,,,,,,,,,,,,space,0.415,,,,,,,,,,,,,,,,,,,,,,,,,,,,,,,,,,,,,,,,,,,,,,,,,,,,,,,,,,,,
,,,,647412,001,2023-10-10_01h49.49.509,fluency,2022.2.4,Win32,74.96251874,,,,,,,,,,,,,,,,,,,,,,,3,8,img/B08_03.jpg,CONTROL,Press K as soon as you see a face, ,KJ,,,,,,,,,,,,,,,,,,,,,,,,,,,,,,,,,,,,,,,,,,,,,,734.627,0,67,67,80,1,109,0,0,0,0,1,98,,,,,,,,,,,,,,,,,,,,,,,,,,,,,,,,,,,,,,,,,,,,,,,,,,,,,,,,,,,,,,,,,,,
,,,,647412,001,2023-10-10_01h49.49.509,fluency,2022.2.4,Win32,74.96251874,,,,,,,,,,,,,,,,,,,,,,,,,,,,,,,,,,,,,,,,,,,,,,,,,,,,,,,,,,,,,,,,,,,,,,,,,,,,,,,,,,0,0,0,0,1,,"[""k""]",[0.3590000000000373],0,"[""k""]",[0.3590000000000373],,,,,,,,,,,,,,,,,,,,,,,,,,,,,,,,,,,,,,,,,,,,,,,,,,,,,,,,,,,,,,
,,,,647412,001,2023-10-10_01h49.49.509,fluency,2022.2.4,Win32,74.96251874,,,,,,,,,,,,,,,,,,,,,,,3,8,img/B08_03.jpg,CONTROL,Press K as soon as you see a face, ,KJ,,,,,,,,,,,,,,,,,,,,,,,,,,,,,,,,6,2.895,,,,,,,,,,,,,,0,67,67,80,1,,,,,,,,,,,,,space,0.467,,,,,,,,,,,,,,,,,,,,,,,,,,,,,,,,,,,,,,,,,,,,,,,,,,,,,,,,,,,,
,,,,647412,001,2023-10-10_01h49.49.509,fluency,2022.2.4,Win32,74.96251874,,,,,,,,,,,,,,,,,,,,,,,6,10,img/B10_06.jpg,CONTROL,Press K as soon as you see a face, ,KJ,,,,,,,,,,,,,,,,,,,,,,,,,,,,,,,,,,,,,,,,,,,,,,742.023,0,68,68,105,1,109,0,0,0,0,1,98,,,,,,,,,,,,,,,,,,,,,,,,,,,,,,,,,,,,,,,,,,,,,,,,,,,,,,,,,,,,,,,,,,,
,,,,647412,001,2023-10-10_01h49.49.509,fluency,2022.2.4,Win32,74.96251874,,,,,,,,,,,,,,,,,,,,,,,,,,,,,,,,,,,,,,,,,,,,,,,,,,,,,,,,,,,,,,,,,,,,,,,,,,,,,,,,,,0,0,0,0,1,,"[""k""]",[0.4370000000000118],0,"[""k""]",[0.4370000000000118],,,,,,,,,,,,,,,,,,,,,,,,,,,,,,,,,,,,,,,,,,,,,,,,,,,,,,,,,,,,,,
,,,,647412,001,2023-10-10_01h49.49.509,fluency,2022.2.4,Win32,74.96251874,,,,,,,,,,,,,,,,,,,,,,,6,10,img/B10_06.jpg,CONTROL,Press K as soon as you see a face, ,KJ,,,,,,,,,,,,,,,,,,,,,,,,,,,,,,,,2,1.548,,,,,,,,,,,,,,0,68,68,105,1,,,,,,,,,,,,,space,0.481,,,,,,,,,,,,,,,,,,,,,,,,,,,,,,,,,,,,,,,,,,,,,,,,,,,,,,,,,,,,
,,,,647412,001,2023-10-10_01h49.49.509,fluency,2022.2.4,Win32,74.96251874,,,,,,,,,,,,,,,,,,,,,,,5,8,img/B08_05.jpg,CONTROL,Press K as soon as you see a face, ,KJ,,,,,,,,,,,,,,,,,,,,,,,,,,,,,,,,,,,,,,,,,,,,,,748.085,0,69,69,82,1,109,0,0,0,0,1,98,,,,,,,,,,,,,,,,,,,,,,,,,,,,,,,,,,,,,,,,,,,,,,,,,,,,,,,,,,,,,,,,,,,
,,,,647412,001,2023-10-10_01h49.49.509,fluency,2022.2.4,Win32,74.96251874,,,,,,,,,,,,,,,,,,,,,,,,,,,,,,,,,,,,,,,,,,,,,,,,,,,,,,,,,,,,,,,,,,,,,,,,,,,,,,,,,,0,0,0,0,1,,"[""k""]",[0.6279999999999291],0,"[""k""]",[0.6279999999999291],,,,,,,,,,,,,,,,,,,,,,,,,,,,,,,,,,,,,,,,,,,,,,,,,,,,,,,,,,,,,,
,,,,647412,001,2023-10-10_01h49.49.509,fluency,2022.2.4,Win32,74.96251874,,,,,,,,,,,,,,,,,,,,,,,5,8,img/B08_05.jpg,CONTROL,Press K as soon as you see a face, ,KJ,,,,,,,,,,,,,,,,,,,,,,,,,,,,,,,,4,0.435,,,,,,,,,,,,,,0,69,69,82,1,,,,,,,,,,,,,space,5.957,,,,,,,,,,,,,,,,,,,,,,,,,,,,,,,,,,,,,,,,,,,,,,,,,,,,,,,,,,,,
,,,,647412,001,2023-10-10_01h49.49.509,fluency,2022.2.4,Win32,74.96251874,,,,,,,,,,,,,,,,,,,,,,,9,2,img/B02_09.jpg,CONTROL,Press K as soon as you see a face, ,KJ,,,,,,,,,,,,,,,,,,,,,,,,,,,,,,,,,,,,,,,,,,,,,,758.511,0,70,70,20,1,109,0,0,0,0,1,98,,,,,,,,,,,,,,,,,,,,,,,,,,,,,,,,,,,,,,,,,,,,,,,,,,,,,,,,,,,,,,,,,,,
,,,,647412,001,2023-10-10_01h49.49.509,fluency,2022.2.4,Win32,74.96251874,,,,,,,,,,,,,,,,,,,,,,,,,,,,,,,,,,,,,,,,,,,,,,,,,,,,,,,,,,,,,,,,,,,,,,,,,,,,,,,,,,0,0,0,0,1,,"[""k""]",[0.2519999999999527],0,"[""k""]",[0.2519999999999527],,,,,,,,,,,,,,,,,,,,,,,,,,,,,,,,,,,,,,,,,,,,,,,,,,,,,,,,,,,,,,
,,,,647412,001,2023-10-10_01h49.49.509,fluency,2022.2.4,Win32,74.96251874,,,,,,,,,,,,,,,,,,,,,,,9,2,img/B02_09.jpg,CONTROL,Press K as soon as you see a face, ,KJ,,,,,,,,,,,,,,,,,,,,,,,,,,,,,,,,5,0.303,,,,,,,,,,,,,,0,70,70,20,1,,,,,,,,,,,,,space,0.468,,,,,,,,,,,,,,,,,,,,,,,,,,,,,,,,,,,,,,,,,,,,,,,,,,,,,,,,,,,,
,,,,647412,001,2023-10-10_01h49.49.509,fluency,2022.2.4,Win32,74.96251874,,,,,,,,,,,,,,,,,,,,,,,1,1,img/B01_01.jpg,CONTROL,Press K as soon as you see a face, ,KJ,,,,,,,,,,,,,,,,,,,,,,,,,,,,,,,,,,,,,,,,,,,,,,764.318,0,71,71,1,1,109,0,0,0,0,1,98,,,,,,,,,,,,,,,,,,,,,,,,,,,,,,,,,,,,,,,,,,,,,,,,,,,,,,,,,,,,,,,,,,,
,,,,647412,001,2023-10-10_01h49.49.509,fluency,2022.2.4,Win32,74.96251874,,,,,,,,,,,,,,,,,,,,,,,,,,,,,,,,,,,,,,,,,,,,,,,,,,,,,,,,,,,,,,,,,,,,,,,,,,,,,,,,,,0,0,0,0,1,,"[""k""]",[0.47899999999992815],0,"[""k""]",[0.47899999999992815],,,,,,,,,,,,,,,,,,,,,,,,,,,,,,,,,,,,,,,,,,,,,,,,,,,,,,,,,,,,,,
,,,,647412,001,2023-10-10_01h49.49.509,fluency,2022.2.4,Win32,74.96251874,,,,,,,,,,,,,,,,,,,,,,,1,1,img/B01_01.jpg,CONTROL,Press K as soon as you see a face, ,KJ,,,,,,,,,,,,,,,,,,,,,,,,,,,,,,,,1,0.289,,,,,,,,,,,,,,0,71,71,1,1,,,,,,,,,,,,,space,0.51,,,,,,,,,,,,,,,,,,,,,,,,,,,,,,,,,,,,,,,,,,,,,,,,,,,,,,,,,,,,
,,,,647412,001,2023-10-10_01h49.49.509,fluency,2022.2.4,Win32,74.96251874,,,,,,,,,,,,,,,,,,,,,,,5,3,img/B03_05.jpg,CONTROL,Press K as soon as you see a face, ,KJ,,,,,,,,,,,,,,,,,,,,,,,,,,,,,,,,,,,,,,,,,,,,,,769.151,0,72,72,27,1,109,0,0,0,0,1,98,,,,,,,,,,,,,,,,,,,,,,,,,,,,,,,,,,,,,,,,,,,,,,,,,,,,,,,,,,,,,,,,,,,
,,,,647412,001,2023-10-10_01h49.49.509,fluency,2022.2.4,Win32,74.96251874,,,,,,,,,,,,,,,,,,,,,,,,,,,,,,,,,,,,,,,,,,,,,,,,,,,,,,,,,,,,,,,,,,,,,,,,,,,,,,,,,,0,0,0,0,1,,"[""k""]",[0.32399999999995543],0,"[""k""]",[0.32399999999995543],,,,,,,,,,,,,,,,,,,,,,,,,,,,,,,,,,,,,,,,,,,,,,,,,,,,,,,,,,,,,,
,,,,647412,001,2023-10-10_01h49.49.509,fluency,2022.2.4,Win32,74.96251874,,,,,,,,,,,,,,,,,,,,,,,5,3,img/B03_05.jpg,CONTROL,Press K as soon as you see a face, ,KJ,,,,,,,,,,,,,,,,,,,,,,,,,,,,,,,,3,0.367,,,,,,,,,,,,,,0,72,72,27,1,,,,,,,,,,,,,space,0.508,,,,,,,,,,,,,,,,,,,,,,,,,,,,,,,,,,,,,,,,,,,,,,,,,,,,,,,,,,,,
,,,,647412,001,2023-10-10_01h49.49.509,fluency,2022.2.4,Win32,74.96251874,,,,,,,,,,,,,,,,,,,,,,,2,6,img/B06_02.jpg,CONTROL,Press K as soon as you see a face, ,KJ,,,,,,,,,,,,,,,,,,,,,,,,,,,,,,,,,,,,,,,,,,,,,,774.064,0,73,73,57,1,109,0,0,0,0,1,98,,,,,,,,,,,,,,,,,,,,,,,,,,,,,,,,,,,,,,,,,,,,,,,,,,,,,,,,,,,,,,,,,,,
,,,,647412,001,2023-10-10_01h49.49.509,fluency,2022.2.4,Win32,74.96251874,,,,,,,,,,,,,,,,,,,,,,,,,,,,,,,,,,,,,,,,,,,,,,,,,,,,,,,,,,,,,,,,,,,,,,,,,,,,,,,,,,0,0,0,0,1,,"[""k""]",[0.40000000000009095],0,"[""k""]",[0.3990000000000009],,,,,,,,,,,,,,,,,,,,,,,,,,,,,,,,,,,,,,,,,,,,,,,,,,,,,,,,,,,,,,
,,,,647412,001,2023-10-10_01h49.49.509,fluency,2022.2.4,Win32,74.96251874,,,,,,,,,,,,,,,,,,,,,,,2,6,img/B06_02.jpg,CONTROL,Press K as soon as you see a face, ,KJ,,,,,,,,,,,,,,,,,,,,,,,,,,,,,,,,1,0.29,,,,,,,,,,,,,,0,73,73,57,1,,,,,,,,,,,,,space,1.082,,,,,,,,,,,,,,,,,,,,,,,,,,,,,,,,,,,,,,,,,,,,,,,,,,,,,,,,,,,,
,,,,647412,001,2023-10-10_01h49.49.509,fluency,2022.2.4,Win32,74.96251874,,,,,,,,,,,,,,,,,,,,,,,8,8,img/B08_08.jpg,CONTROL,Press K as soon as you see a face, ,KJ,,,,,,,,,,,,,,,,,,,,,,,,,,,,,,,,,,,,,,,,,,,,,,779.471,0,74,74,85,1,109,0,0,0,0,1,98,,,,,,,,,,,,,,,,,,,,,,,,,,,,,,,,,,,,,,,,,,,,,,,,,,,,,,,,,,,,,,,,,,,
,,,,647412,001,2023-10-10_01h49.49.509,fluency,2022.2.4,Win32,74.96251874,,,,,,,,,,,,,,,,,,,,,,,,,,,,,,,,,,,,,,,,,,,,,,,,,,,,,,,,,,,,,,,,,,,,,,,,,,,,,,,,,,0,0,0,0,1,,"[""k""]",[0.49899999999990996],0,"[""k""]",[0.49899999999990996],,,,,,,,,,,,,,,,,,,,,,,,,,,,,,,,,,,,,,,,,,,,,,,,,,,,,,,,,,,,,,
,,,,647412,001,2023-10-10_01h49.49.509,fluency,2022.2.4,Win32,74.96251874,,,,,,,,,,,,,,,,,,,,,,,8,8,img/B08_08.jpg,CONTROL,Press K as soon as you see a face, ,KJ,,,,,,,,,,,,,,,,,,,,,,,,,,,,,,,,7,1.131,,,,,,,,,,,,,,0,74,74,85,1,,,,,,,,,,,,,space,0.511,,,,,,,,,,,,,,,,,,,,,,,,,,,,,,,,,,,,,,,,,,,,,,,,,,,,,,,,,,,,
,,,,647412,001,2023-10-10_01h49.49.509,fluency,2022.2.4,Win32,74.96251874,,,,,,,,,,,,,,,,,,,,,,,1,2,img/B02_01.jpg,CONTROL,Press K as soon as you see a face, ,KJ,,,,,,,,,,,,,,,,,,,,,,,,,,,,,,,,,,,,,,,,,,,,,,785.158,0,75,75,12,1,109,0,0,0,0,1,98,,,,,,,,,,,,,,,,,,,,,,,,,,,,,,,,,,,,,,,,,,,,,,,,,,,,,,,,,,,,,,,,,,,
,,,,647412,001,2023-10-10_01h49.49.509,fluency,2022.2.4,Win32,74.96251874,,,,,,,,,,,,,,,,,,,,,,,,,,,,,,,,,,,,,,,,,,,,,,,,,,,,,,,,,,,,,,,,,,,,,,,,,,,,,,,,,,0,0,0,0,1,,"[""k""]",[0.30700000000001637],0,"[""k""]",[0.30700000000001637],,,,,,,,,,,,,,,,,,,,,,,,,,,,,,,,,,,,,,,,,,,,,,,,,,,,,,,,,,,,,,
,,,,647412,001,2023-10-10_01h49.49.509,fluency,2022.2.4,Win32,74.96251874,,,,,,,,,,,,,,,,,,,,,,,1,2,img/B02_01.jpg,CONTROL,Press K as soon as you see a face, ,KJ,,,,,,,,,,,,,,,,,,,,,,,,,,,,,,,,2,0.611,,,,,,,,,,,,,,0,75,75,12,1,,,,,,,,,,,,,space,0.367,,,,,,,,,,,,,,,,,,,,,,,,,,,,,,,,,,,,,,,,,,,,,,,,,,,,,,,,,,,,
,,,,647412,001,2023-10-10_01h49.49.509,fluency,2022.2.4,Win32,74.96251874,,,,,,,,,,,,,,,,,,,,,,,2,3,img/B03_02.jpg,CONTROL,Press K as soon as you see a face, ,KJ,,,,,,,,,,,,,,,,,,,,,,,,,,,,,,,,,,,,,,,,,,,,,,790.165,0,76,76,24,1,109,0,0,0,0,1,98,,,,,,,,,,,,,,,,,,,,,,,,,,,,,,,,,,,,,,,,,,,,,,,,,,,,,,,,,,,,,,,,,,,
,,,,647412,001,2023-10-10_01h49.49.509,fluency,2022.2.4,Win32,74.96251874,,,,,,,,,,,,,,,,,,,,,,,,,,,,,,,,,,,,,,,,,,,,,,,,,,,,,,,,,,,,,,,,,,,,,,,,,,,,,,,,,,0,0,0,0,1,,"[""k""]",[0.26700000000005275],0,"[""k""]",[0.26700000000005275],,,,,,,,,,,,,,,,,,,,,,,,,,,,,,,,,,,,,,,,,,,,,,,,,,,,,,,,,,,,,,
,,,,647412,001,2023-10-10_01h49.49.509,fluency,2022.2.4,Win32,74.96251874,,,,,,,,,,,,,,,,,,,,,,,2,3,img/B03_02.jpg,CONTROL,Press K as soon as you see a face, ,KJ,,,,,,,,,,,,,,,,,,,,,,,,,,,,,,,,3,0.642,,,,,,,,,,,,,,0,76,76,24,1,,,,,,,,,,,,,space,0.393,,,,,,,,,,,,,,,,,,,,,,,,,,,,,,,,,,,,,,,,,,,,,,,,,,,,,,,,,,,,
,,,,647412,001,2023-10-10_01h49.49.509,fluency,2022.2.4,Win32,74.96251874,,,,,,,,,,,,,,,,,,,,,,,9,1,img/B01_09.jpg,CONTROL,Press K as soon as you see a face, ,KJ,,,,,,,,,,,,,,,,,,,,,,,,,,,,,,,,,,,,,,,,,,,,,,795.238,0,77,77,9,1,109,0,0,0,0,1,98,,,,,,,,,,,,,,,,,,,,,,,,,,,,,,,,,,,,,,,,,,,,,,,,,,,,,,,,,,,,,,,,,,,
,,,,647412,001,2023-10-10_01h49.49.509,fluency,2022.2.4,Win32,74.96251874,,,,,,,,,,,,,,,,,,,,,,,,,,,,,,,,,,,,,,,,,,,,,,,,,,,,,,,,,,,,,,,,,,,,,,,,,,,,,,,,,,0,0,0,0,1,,"[""k""]",[0.2759999999999536],0,"[""k""]",[0.2759999999999536],,,,,,,,,,,,,,,,,,,,,,,,,,,,,,,,,,,,,,,,,,,,,,,,,,,,,,,,,,,,,,
,,,,647412,001,2023-10-10_01h49.49.509,fluency,2022.2.4,Win32,74.96251874,,,,,,,,,,,,,,,,,,,,,,,9,1,img/B01_09.jpg,CONTROL,Press K as soon as you see a face, ,KJ,,,,,,,,,,,,,,,,,,,,,,,,,,,,,,,,1,0.354,,,,,,,,,,,,,,0,77,77,9,1,,,,,,,,,,,,,space,0.736,,,,,,,,,,,,,,,,,,,,,,,,,,,,,,,,,,,,,,,,,,,,,,,,,,,,,,,,,,,,
,,,,647412,001,2023-10-10_01h49.49.509,fluency,2022.2.4,Win32,74.96251874,,,,,,,,,,,,,,,,,,,,,,,0,4,img/B04_00.jpg,CONTROL,Press K as soon as you see a face, ,KJ,,,,,,,,,,,,,,,,,,,,,,,,,,,,,,,,,,,,,,,,,,,,,,801.365,0,78,78,33,1,109,0,0,0,0,1,98,,,,,,,,,,,,,,,,,,,,,,,,,,,,,,,,,,,,,,,,,,,,,,,,,,,,,,,,,,,,,,,,,,,
,,,,647412,001,2023-10-10_01h49.49.509,fluency,2022.2.4,Win32,74.96251874,,,,,,,,,,,,,,,,,,,,,,,,,,,,,,,,,,,,,,,,,,,,,,,,,,,,,,,,,,,,,,,,,,,,,,,,,,,,,,,,,,0,0,0,0,1,,"[""k""]",[0.24900000000002365],0,"[""k""]",[0.24900000000002365],,,,,,,,,,,,,,,,,,,,,,,,,,,,,,,,,,,,,,,,,,,,,,,,,,,,,,,,,,,,,,
,,,,647412,001,2023-10-10_01h49.49.509,fluency,2022.2.4,Win32,74.96251874,,,,,,,,,,,,,,,,,,,,,,,0,4,img/B04_00.jpg,CONTROL,Press K as soon as you see a face, ,KJ,,,,,,,,,,,,,,,,,,,,,,,,,,,,,,,,9,2.077,,,,,,,,,,,,,,0,78,78,33,1,,,,,,,,,,,,,space,0.655,,,,,,,,,,,,,,,,,,,,,,,,,,,,,,,,,,,,,,,,,,,,,,,,,,,,,,,,,,,,
,,,,647412,001,2023-10-10_01h49.49.509,fluency,2022.2.4,Win32,74.96251874,,,,,,,,,,,,,,,,,,,,,,,6,3,img/B03_06.jpg,CONTROL,Press K as soon as you see a face, ,KJ,,,,,,,,,,,,,,,,,,,,,,,,,,,,,,,,,,,,,,,,,,,,,,808.134,0,79,79,28,1,109,0,0,0,0,1,98,,,,,,,,,,,,,,,,,,,,,,,,,,,,,,,,,,,,,,,,,,,,,,,,,,,,,,,,,,,,,,,,,,,
,,,,647412,001,2023-10-10_01h49.49.509,fluency,2022.2.4,Win32,74.96251874,,,,,,,,,,,,,,,,,,,,,,,,,,,,,,,,,,,,,,,,,,,,,,,,,,,,,,,,,,,,,,,,,,,,,,,,,,,,,,,,,,0,0,0,0,1,,"[""k""]",[0.2659999999999627],0,"[""k""]",[0.2659999999999627],,,,,,,,,,,,,,,,,,,,,,,,,,,,,,,,,,,,,,,,,,,,,,,,,,,,,,,,,,,,,,
,,,,647412,001,2023-10-10_01h49.49.509,fluency,2022.2.4,Win32,74.96251874,,,,,,,,,,,,,,,,,,,,,,,6,3,img/B03_06.jpg,CONTROL,Press K as soon as you see a face, ,KJ,,,,,,,,,,,,,,,,,,,,,,,,,,,,,,,,3,0.349,,,,,,,,,,,,,,0,79,79,28,1,,,,,,,,,,,,,space,0.456,,,,,,,,,,,,,,,,,,,,,,,,,,,,,,,,,,,,,,,,,,,,,,,,,,,,,,,,,,,,
,,,,647412,001,2023-10-10_01h49.49.509,fluency,2022.2.4,Win32,74.96251874,,,,,,,,,,,,,,,,,,,,,,,6,4,img/B04_06.jpg,CONTROL,Press K as soon as you see a face, ,KJ,,,,,,,,,,,,,,,,,,,,,,,,,,,,,,,,,,,,,,,,,,,,,,812.967,0,80,80,39,1,109,0,0,0,0,1,98,,,,,,,,,,,,,,,,,,,,,,,,,,,,,,,,,,,,,,,,,,,,,,,,,,,,,,,,,,,,,,,,,,,
,,,,647412,001,2023-10-10_01h49.49.509,fluency,2022.2.4,Win32,74.96251874,,,,,,,,,,,,,,,,,,,,,,,,,,,,,,,,,,,,,,,,,,,,,,,,,,,,,,,,,,,,,,,,,,,,,,,,,,,,,,,,,,0,0,0,0,1,,"[""k""]",[0.27899999999999636],0,"[""k""]",[0.27899999999999636],,,,,,,,,,,,,,,,,,,,,,,,,,,,,,,,,,,,,,,,,,,,,,,,,,,,,,,,,,,,,,
,,,,647412,001,2023-10-10_01h49.49.509,fluency,2022.2.4,Win32,74.96251874,,,,,,,,,,,,,,,,,,,,,,,6,4,img/B04_06.jpg,CONTROL,Press K as soon as you see a face, ,KJ,,,,,,,,,,,,,,,,,,,,,,,,,,,,,,,,2,0.287,,,,,,,,,,,,,,0,80,80,39,1,,,,,,,,,,,,,space,0.4,,,,,,,,,,,,,,,,,,,,,,,,,,,,,,,,,,,,,,,,,,,,,,,,,,,,,,,,,,,,
,,,,647412,001,2023-10-10_01h49.49.509,fluency,2022.2.4,Win32,74.96251874,,,,,,,,,,,,,,,,,,,,,,,1,4,img/B04_01.jpg,CONTROL,Press K as soon as you see a face, ,KJ,,,,,,,,,,,,,,,,,,,,,,,,,,,,,,,,,,,,,,,,,,,,,,818.694,0,81,81,34,1,109,0,0,0,0,1,98,,,,,,,,,,,,,,,,,,,,,,,,,,,,,,,,,,,,,,,,,,,,,,,,,,,,,,,,,,,,,,,,,,,
,,,,647412,001,2023-10-10_01h49.49.509,fluency,2022.2.4,Win32,74.96251874,,,,,,,,,,,,,,,,,,,,,,,,,,,,,,,,,,,,,,,,,,,,,,,,,,,,,,,,,,,,,,,,,,,,,,,,,,,,,,,,,,0,0,0,0,1,,"[""k""]",[0.26700000000005275],0,"[""k""]",[0.26700000000005275],,,,,,,,,,,,,,,,,,,,,,,,,,,,,,,,,,,,,,,,,,,,,,,,,,,,,,,,,,,,,,
,,,,647412,001,2023-10-10_01h49.49.509,fluency,2022.2.4,Win32,74.96251874,,,,,,,,,,,,,,,,,,,,,,,1,4,img/B04_01.jpg,CONTROL,Press K as soon as you see a face, ,KJ,,,,,,,,,,,,,,,,,,,,,,,,,,,,,,,,9,0.39,,,,,,,,,,,,,,0,81,81,34,1,,,,,,,,,,,,,space,0.495,,,,,,,,,,,,,,,,,,,,,,,,,,,,,,,,,,,,,,,,,,,,,,,,,,,,,,,,,,,,
,,,,647412,001,2023-10-10_01h49.49.509,fluency,2022.2.4,Win32,74.96251874,,,,,,,,,,,,,,,,,,,,,,,8,4,img/B04_08.jpg,CONTROL,Press K as soon as you see a face, ,KJ,,,,,,,,,,,,,,,,,,,,,,,,,,,,,,,,,,,,,,,,,,,,,,823.607,0,82,82,41,1,109,0,0,0,0,1,98,,,,,,,,,,,,,,,,,,,,,,,,,,,,,,,,,,,,,,,,,,,,,,,,,,,,,,,,,,,,,,,,,,,
,,,,647412,001,2023-10-10_01h49.49.509,fluency,2022.2.4,Win32,74.96251874,,,,,,,,,,,,,,,,,,,,,,,,,,,,,,,,,,,,,,,,,,,,,,,,,,,,,,,,,,,,,,,,,,,,,,,,,,,,,,,,,,0,0,0,0,1,,"[""k""]",[0.3869999999999436],0,"[""k""]",[0.3869999999999436],,,,,,,,,,,,,,,,,,,,,,,,,,,,,,,,,,,,,,,,,,,,,,,,,,,,,,,,,,,,,,
,,,,647412,001,2023-10-10_01h49.49.509,fluency,2022.2.4,Win32,74.96251874,,,,,,,,,,,,,,,,,,,,,,,8,4,img/B04_08.jpg,CONTROL,Press K as soon as you see a face, ,KJ,,,,,,,,,,,,,,,,,,,,,,,,,,,,,,,,4,0.595,,,,,,,,,,,,,,0,82,82,41,1,,,,,,,,,,,,,space,0.338,,,,,,,,,,,,,,,,,,,,,,,,,,,,,,,,,,,,,,,,,,,,,,,,,,,,,,,,,,,,
,,,,647412,001,2023-10-10_01h49.49.509,fluency,2022.2.4,Win32,74.96251874,,,,,,,,,,,,,,,,,,,,,,,7,5,img/B05_07.jpg,CONTROL,Press K as soon as you see a face, ,KJ,,,,,,,,,,,,,,,,,,,,,,,,,,,,,,,,,,,,,,,,,,,,,,828.573,0,83,83,51,1,109,0,0,0,0,1,98,,,,,,,,,,,,,,,,,,,,,,,,,,,,,,,,,,,,,,,,,,,,,,,,,,,,,,,,,,,,,,,,,,,
,,,,647412,001,2023-10-10_01h49.49.509,fluency,2022.2.4,Win32,74.96251874,,,,,,,,,,,,,,,,,,,,,,,,,,,,,,,,,,,,,,,,,,,,,,,,,,,,,,,,,,,,,,,,,,,,,,,,,,,,,,,,,,0,0,0,0,1,,"[""k""]",[0.29100000000005366],0,"[""k""]",[0.29100000000005366],,,,,,,,,,,,,,,,,,,,,,,,,,,,,,,,,,,,,,,,,,,,,,,,,,,,,,,,,,,,,,
,,,,647412,001,2023-10-10_01h49.49.509,fluency,2022.2.4,Win32,74.96251874,,,,,,,,,,,,,,,,,,,,,,,7,5,img/B05_07.jpg,CONTROL,Press K as soon as you see a face, ,KJ,,,,,,,,,,,,,,,,,,,,,,,,,,,,,,,,3,1.789,,,,,,,,,,,,,,0,83,83,51,1,,,,,,,,,,,,,space,0.467,,,,,,,,,,,,,,,,,,,,,,,,,,,,,,,,,,,,,,,,,,,,,,,,,,,,,,,,,,,,
,,,,647412,001,2023-10-10_01h49.49.509,fluency,2022.2.4,Win32,74.96251874,,,,,,,,,,,,,,,,,,,,,,,8,10,img/B10_08.jpg,CONTROL,Press K as soon as you see a face, ,KJ,,,,,,,,,,,,,,,,,,,,,,,,,,,,,,,,,,,,,,,,,,,,,,835.863,0,84,84,107,1,109,0,0,0,0,1,98,,,,,,,,,,,,,,,,,,,,,,,,,,,,,,,,,,,,,,,,,,,,,,,,,,,,,,,,,,,,,,,,,,,
,,,,647412,001,2023-10-10_01h49.49.509,fluency,2022.2.4,Win32,74.96251874,,,,,,,,,,,,,,,,,,,,,,,,,,,,,,,,,,,,,,,,,,,,,,,,,,,,,,,,,,,,,,,,,,,,,,,,,,,,,,,,,,0,0,0,0,1,,"[""k""]",[0.2239999999999327],0,"[""k""]",[0.2239999999999327],,,,,,,,,,,,,,,,,,,,,,,,,,,,,,,,,,,,,,,,,,,,,,,,,,,,,,,,,,,,,,
,,,,647412,001,2023-10-10_01h49.49.509,fluency,2022.2.4,Win32,74.96251874,,,,,,,,,,,,,,,,,,,,,,,8,10,img/B10_08.jpg,CONTROL,Press K as soon as you see a face, ,KJ,,,,,,,,,,,,,,,,,,,,,,,,,,,,,,,,1,0.608,,,,,,,,,,,,,,0,84,84,107,1,,,,,,,,,,,,,space,0.446,,,,,,,,,,,,,,,,,,,,,,,,,,,,,,,,,,,,,,,,,,,,,,,,,,,,,,,,,,,,
,,,,647412,001,2023-10-10_01h49.49.509,fluency,2022.2.4,Win32,74.96251874,,,,,,,,,,,,,,,,,,,,,,,0,2,img/B02_00.jpg,CONTROL,Press K as soon as you see a face, ,KJ,,,,,,,,,,,,,,,,,,,,,,,,,,,,,,,,,,,,,,,,,,,,,,841.951,0,85,85,11,1,109,0,0,0,0,1,98,,,,,,,,,,,,,,,,,,,,,,,,,,,,,,,,,,,,,,,,,,,,,,,,,,,,,,,,,,,,,,,,,,,
,,,,647412,001,2023-10-10_01h49.49.509,fluency,2022.2.4,Win32,74.96251874,,,,,,,,,,,,,,,,,,,,,,,,,,,,,,,,,,,,,,,,,,,,,,,,,,,,,,,,,,,,,,,,,,,,,,,,,,,,,,,,,,0,0,0,0,1,,"[""k""]",[0.2440000000000282],0,"[""k""]",[0.24300000000005184],,,,,,,,,,,,,,,,,,,,,,,,,,,,,,,,,,,,,,,,,,,,,,,,,,,,,,,,,,,,,,
,,,,647412,001,2023-10-10_01h49.49.509,fluency,2022.2.4,Win32,74.96251874,,,,,,,,,,,,,,,,,,,,,,,0,2,img/B02_00.jpg,CONTROL,Press K as soon as you see a face, ,KJ,,,,,,,,,,,,,,,,,,,,,,,,,,,,,,,,1,1.492,,,,,,,,,,,,,,0,85,85,11,1,,,,,,,,,,,,,space,0.734,,,,,,,,,,,,,,,,,,,,,,,,,,,,,,,,,,,,,,,,,,,,,,,,,,,,,,,,,,,,
,,,,647412,001,2023-10-10_01h49.49.509,fluency,2022.2.4,Win32,74.96251874,,,,,,,,,,,,,,,,,,,,,,,5,4,img/B04_05.jpg,CONTROL,Press K as soon as you see a face, ,KJ,,,,,,,,,,,,,,,,,,,,,,,,,,,,,,,,,,,,,,,,,,,,,,849.214,0,86,86,38,1,109,0,0,0,0,1,98,,,,,,,,,,,,,,,,,,,,,,,,,,,,,,,,,,,,,,,,,,,,,,,,,,,,,,,,,,,,,,,,,,,
,,,,647412,001,2023-10-10_01h49.49.509,fluency,2022.2.4,Win32,74.96251874,,,,,,,,,,,,,,,,,,,,,,,,,,,,,,,,,,,,,,,,,,,,,,,,,,,,,,,,,,,,,,,,,,,,,,,,,,,,,,,,,,0,0,0,0,1,,"[""k""]",[0.26300000000003365],0,"[""k""]",[0.26300000000003365],,,,,,,,,,,,,,,,,,,,,,,,,,,,,,,,,,,,,,,,,,,,,,,,,,,,,,,,,,,,,,
,,,,647412,001,2023-10-10_01h49.49.509,fluency,2022.2.4,Win32,74.96251874,,,,,,,,,,,,,,,,,,,,,,,5,4,img/B04_05.jpg,CONTROL,Press K as soon as you see a face, ,KJ,,,,,,,,,,,,,,,,,,,,,,,,,,,,,,,,4,1.022,,,,,,,,,,,,,,0,86,86,38,1,,,,,,,,,,,,,space,0.418,,,,,,,,,,,,,,,,,,,,,,,,,,,,,,,,,,,,,,,,,,,,,,,,,,,,,,,,,,,,
,,,,647412,001,2023-10-10_01h49.49.509,fluency,2022.2.4,Win32,74.96251874,,,,,,,,,,,,,,,,,,,,,,,3,10,img/B10_03.jpg,CONTROL,Press K as soon as you see a face, ,KJ,,,,,,,,,,,,,,,,,,,,,,,,,,,,,,,,,,,,,,,,,,,,,,855.689,0,87,87,102,1,109,0,0,0,0,1,98,,,,,,,,,,,,,,,,,,,,,,,,,,,,,,,,,,,,,,,,,,,,,,,,,,,,,,,,,,,,,,,,,,,
,,,,647412,001,2023-10-10_01h49.49.509,fluency,2022.2.4,Win32,74.96251874,,,,,,,,,,,,,,,,,,,,,,,,,,,,,,,,,,,,,,,,,,,,,,,,,,,,,,,,,,,,,,,,,,,,,,,,,,,,,,,,,,0,0,0,0,1,,"[""k""]",[0.28099999999994907],0,"[""k""]",[0.28099999999994907],,,,,,,,,,,,,,,,,,,,,,,,,,,,,,,,,,,,,,,,,,,,,,,,,,,,,,,,,,,,,,
,,,,647412,001,2023-10-10_01h49.49.509,fluency,2022.2.4,Win32,74.96251874,,,,,,,,,,,,,,,,,,,,,,,3,10,img/B10_03.jpg,CONTROL,Press K as soon as you see a face, ,KJ,,,,,,,,,,,,,,,,,,,,,,,,,,,,,,,,2,0.642,,,,,,,,,,,,,,0,87,87,102,1,,,,,,,,,,,,,space,0.522,,,,,,,,,,,,,,,,,,,,,,,,,,,,,,,,,,,,,,,,,,,,,,,,,,,,,,,,,,,,
,,,,647412,001,2023-10-10_01h49.49.509,fluency,2022.2.4,Win32,74.96251874,,,,,,,,,,,,,,,,,,,,,,,7,4,img/B04_07.jpg,CONTROL,Press K as soon as you see a face, ,KJ,,,,,,,,,,,,,,,,,,,,,,,,,,,,,,,,,,,,,,,,,,,,,,861.883,0,88,88,40,1,109,0,0,0,0,1,98,,,,,,,,,,,,,,,,,,,,,,,,,,,,,,,,,,,,,,,,,,,,,,,,,,,,,,,,,,,,,,,,,,,
,,,,647412,001,2023-10-10_01h49.49.509,fluency,2022.2.4,Win32,74.96251874,,,,,,,,,,,,,,,,,,,,,,,,,,,,,,,,,,,,,,,,,,,,,,,,,,,,,,,,,,,,,,,,,,,,,,,,,,,,,,,,,,0,0,0,0,1,,"[""k""]",[0.29200000000003],0,"[""k""]",[0.29200000000003],,,,,,,,,,,,,,,,,,,,,,,,,,,,,,,,,,,,,,,,,,,,,,,,,,,,,,,,,,,,,,
,,,,647412,001,2023-10-10_01h49.49.509,fluency,2022.2.4,Win32,74.96251874,,,,,,,,,,,,,,,,,,,,,,,7,4,img/B04_07.jpg,CONTROL,Press K as soon as you see a face, ,KJ,,,,,,,,,,,,,,,,,,,,,,,,,,,,,,,,4,0.422,,,,,,,,,,,,,,0,88,88,40,1,,,,,,,,,,,,,space,0.405,,,,,,,,,,,,,,,,,,,,,,,,,,,,,,,,,,,,,,,,,,,,,,,,,,,,,,,,,,,,
,,,,647412,001,2023-10-10_01h49.49.509,fluency,2022.2.4,Win32,74.96251874,,,,,,,,,,,,,,,,,,,,,,,7,10,img/B10_07.jpg,CONTROL,Press K as soon as you see a face, ,KJ,,,,,,,,,,,,,,,,,,,,,,,,,,,,,,,,,,,,,,,,,,,,,,867.744,0,89,89,106,1,109,0,0,0,0,1,98,,,,,,,,,,,,,,,,,,,,,,,,,,,,,,,,,,,,,,,,,,,,,,,,,,,,,,,,,,,,,,,,,,,
,,,,647412,001,2023-10-10_01h49.49.509,fluency,2022.2.4,Win32,74.96251874,,,,,,,,,,,,,,,,,,,,,,,,,,,,,,,,,,,,,,,,,,,,,,,,,,,,,,,,,,,,,,,,,,,,,,,,,,,,,,,,,,0,0,0,0,1,,"[""k""]",[0.26700000000005275],0,"[""k""]",[0.26700000000005275],,,,,,,,,,,,,,,,,,,,,,,,,,,,,,,,,,,,,,,,,,,,,,,,,,,,,,,,,,,,,,
,,,,647412,001,2023-10-10_01h49.49.509,fluency,2022.2.4,Win32,74.96251874,,,,,,,,,,,,,,,,,,,,,,,7,10,img/B10_07.jpg,CONTROL,Press K as soon as you see a face, ,KJ,,,,,,,,,,,,,,,,,,,,,,,,,,,,,,,,1,0.327,,,,,,,,,,,,,,0,89,89,106,1,,,,,,,,,,,,,space,0.389,,,,,,,,,,,,,,,,,,,,,,,,,,,,,,,,,,,,,,,,,,,,,,,,,,,,,,,,,,,,
,,,,647412,001,2023-10-10_01h49.49.509,fluency,2022.2.4,Win32,74.96251874,,,,,,,,,,,,,,,,,,,,,,,4,10,img/B10_04.jpg,CONTROL,Press K as soon as you see a face, ,KJ,,,,,,,,,,,,,,,,,,,,,,,,,,,,,,,,,,,,,,,,,,,,,,873.498,0,90,90,103,1,109,0,0,0,0,1,98,,,,,,,,,,,,,,,,,,,,,,,,,,,,,,,,,,,,,,,,,,,,,,,,,,,,,,,,,,,,,,,,,,,
,,,,647412,001,2023-10-10_01h49.49.509,fluency,2022.2.4,Win32,74.96251874,,,,,,,,,,,,,,,,,,,,,,,,,,,,,,,,,,,,,,,,,,,,,,,,,,,,,,,,,,,,,,,,,,,,,,,,,,,,,,,,,,0,0,0,0,1,,"[""k""]",[0.39999999999997726],0,"[""k""]",[0.39999999999997726],,,,,,,,,,,,,,,,,,,,,,,,,,,,,,,,,,,,,,,,,,,,,,,,,,,,,,,,,,,,,,
,,,,647412,001,2023-10-10_01h49.49.509,fluency,2022.2.4,Win32,74.96251874,,,,,,,,,,,,,,,,,,,,,,,4,10,img/B10_04.jpg,CONTROL,Press K as soon as you see a face, ,KJ,,,,,,,,,,,,,,,,,,,,,,,,,,,,,,,,2,1.28,,,,,,,,,,,,,,0,90,90,103,1,,,,,,,,,,,,,space,0.749,,,,,,,,,,,,,,,,,,,,,,,,,,,,,,,,,,,,,,,,,,,,,,,,,,,,,,,,,,,,
,,,,647412,001,2023-10-10_01h49.49.509,fluency,2022.2.4,Win32,74.96251874,,,,,,,,,,,,,,,,,,,,,,,6,8,img/B08_06.jpg,CONTROL,Press K as soon as you see a face, ,KJ,,,,,,,,,,,,,,,,,,,,,,,,,,,,,,,,,,,,,,,,,,,,,,879.559,0,91,91,83,1,109,0,0,0,0,1,98,,,,,,,,,,,,,,,,,,,,,,,,,,,,,,,,,,,,,,,,,,,,,,,,,,,,,,,,,,,,,,,,,,,
,,,,647412,001,2023-10-10_01h49.49.509,fluency,2022.2.4,Win32,74.96251874,,,,,,,,,,,,,,,,,,,,,,,,,,,,,,,,,,,,,,,,,,,,,,,,,,,,,,,,,,,,,,,,,,,,,,,,,,,,,,,,,,0,0,0,0,1,,"[""k""]",[0.30700000000001637],0,"[""k""]",[0.30700000000001637],,,,,,,,,,,,,,,,,,,,,,,,,,,,,,,,,,,,,,,,,,,,,,,,,,,,,,,,,,,,,,
,,,,647412,001,2023-10-10_01h49.49.509,fluency,2022.2.4,Win32,74.96251874,,,,,,,,,,,,,,,,,,,,,,,6,8,img/B08_06.jpg,CONTROL,Press K as soon as you see a face, ,KJ,,,,,,,,,,,,,,,,,,,,,,,,,,,,,,,,3,2.646,,,,,,,,,,,,,,0,91,91,83,1,,,,,,,,,,,,,space,0.301,,,,,,,,,,,,,,,,,,,,,,,,,,,,,,,,,,,,,,,,,,,,,,,,,,,,,,,,,,,,
,,,,647412,001,2023-10-10_01h49.49.509,fluency,2022.2.4,Win32,74.96251874,,,,,,,,,,,,,,,,,,,,,,,5,9,img/B09_05.jpg,CONTROL,Press K as soon as you see a face, ,KJ,,,,,,,,,,,,,,,,,,,,,,,,,,,,,,,,,,,,,,,,,,,,,,886.54,0,92,92,93,1,109,0,0,0,0,1,98,,,,,,,,,,,,,,,,,,,,,,,,,,,,,,,,,,,,,,,,,,,,,,,,,,,,,,,,,,,,,,,,,,,
,,,,647412,001,2023-10-10_01h49.49.509,fluency,2022.2.4,Win32,74.96251874,,,,,,,,,,,,,,,,,,,,,,,,,,,,,,,,,,,,,,,,,,,,,,,,,,,,,,,,,,,,,,,,,,,,,,,,,,,,,,,,,,0,0,0,0,1,,"[""k""]",[0.3020000000000209],0,"[""k""]",[0.3020000000000209],,,,,,,,,,,,,,,,,,,,,,,,,,,,,,,,,,,,,,,,,,,,,,,,,,,,,,,,,,,,,,
,,,,647412,001,2023-10-10_01h49.49.509,fluency,2022.2.4,Win32,74.96251874,,,,,,,,,,,,,,,,,,,,,,,5,9,img/B09_05.jpg,CONTROL,Press K as soon as you see a face, ,KJ,,,,,,,,,,,,,,,,,,,,,,,,,,,,,,,,3,0.369,,,,,,,,,,,,,,0,92,92,93,1,,,,,,,,,,,,,space,0.362,,,,,,,,,,,,,,,,,,,,,,,,,,,,,,,,,,,,,,,,,,,,,,,,,,,,,,,,,,,,
,,,,647412,001,2023-10-10_01h49.49.509,fluency,2022.2.4,Win32,74.96251874,,,,,,,,,,,,,,,,,,,,,,,9,8,img/B08_09.jpg,CONTROL,Press K as soon as you see a face, ,KJ,,,,,,,,,,,,,,,,,,,,,,,,,,,,,,,,,,,,,,,,,,,,,,891.307,0,93,93,86,1,109,0,0,0,0,1,98,,,,,,,,,,,,,,,,,,,,,,,,,,,,,,,,,,,,,,,,,,,,,,,,,,,,,,,,,,,,,,,,,,,
,,,,647412,001,2023-10-10_01h49.49.509,fluency,2022.2.4,Win32,74.96251874,,,,,,,,,,,,,,,,,,,,,,,,,,,,,,,,,,,,,,,,,,,,,,,,,,,,,,,,,,,,,,,,,,,,,,,,,,,,,,,,,,0,0,0,0,1,,"[""k""]",[0.28100000000006276],0,"[""k""]",[0.28100000000006276],,,,,,,,,,,,,,,,,,,,,,,,,,,,,,,,,,,,,,,,,,,,,,,,,,,,,,,,,,,,,,
,,,,647412,001,2023-10-10_01h49.49.509,fluency,2022.2.4,Win32,74.96251874,,,,,,,,,,,,,,,,,,,,,,,9,8,img/B08_09.jpg,CONTROL,Press K as soon as you see a face, ,KJ,,,,,,,,,,,,,,,,,,,,,,,,,,,,,,,,6,0.542,,,,,,,,,,,,,,0,93,93,86,1,,,,,,,,,,,,,space,0.789,,,,,,,,,,,,,,,,,,,,,,,,,,,,,,,,,,,,,,,,,,,,,,,,,,,,,,,,,,,,
,,,,647412,001,2023-10-10_01h49.49.509,fluency,2022.2.4,Win32,74.96251874,,,,,,,,,,,,,,,,,,,,,,,5,1,img/B01_05.jpg,CONTROL,Press K as soon as you see a face, ,KJ,,,,,,,,,,,,,,,,,,,,,,,,,,,,,,,,,,,,,,,,,,,,,,896.674,0,94,94,5,1,109,0,0,0,0,1,98,,,,,,,,,,,,,,,,,,,,,,,,,,,,,,,,,,,,,,,,,,,,,,,,,,,,,,,,,,,,,,,,,,,
,,,,647412,001,2023-10-10_01h49.49.509,fluency,2022.2.4,Win32,74.96251874,,,,,,,,,,,,,,,,,,,,,,,,,,,,,,,,,,,,,,,,,,,,,,,,,,,,,,,,,,,,,,,,,,,,,,,,,,,,,,,,,,0,0,0,0,1,,"[""k""]",[0.2659999999999627],0,"[""k""]",[0.2659999999999627],,,,,,,,,,,,,,,,,,,,,,,,,,,,,,,,,,,,,,,,,,,,,,,,,,,,,,,,,,,,,,
,,,,647412,001,2023-10-10_01h49.49.509,fluency,2022.2.4,Win32,74.96251874,,,,,,,,,,,,,,,,,,,,,,,5,1,img/B01_05.jpg,CONTROL,Press K as soon as you see a face, ,KJ,,,,,,,,,,,,,,,,,,,,,,,,,,,,,,,,1,0.667,,,,,,,,,,,,,,0,94,94,5,1,,,,,,,,,,,,,space,0.63,,,,,,,,,,,,,,,,,,,,,,,,,,,,,,,,,,,,,,,,,,,,,,,,,,,,,,,,,,,,
,,,,647412,001,2023-10-10_01h49.49.509,fluency,2022.2.4,Win32,74.96251874,,,,,,,,,,,,,,,,,,,,,,,1,3,img/B03_01.jpg,CONTROL,Press K as soon as you see a face, ,KJ,,,,,,,,,,,,,,,,,,,,,,,,,,,,,,,,,,,,,,,,,,,,,,902,0,95,95,23,1,109,0,0,0,0,1,98,,,,,,,,,,,,,,,,,,,,,,,,,,,,,,,,,,,,,,,,,,,,,,,,,,,,,,,,,,,,,,,,,,,
,,,,647412,001,2023-10-10_01h49.49.509,fluency,2022.2.4,Win32,74.96251874,,,,,,,,,,,,,,,,,,,,,,,,,,,,,,,,,,,,,,,,,,,,,,,,,,,,,,,,,,,,,,,,,,,,,,,,,,,,,,,,,,0,0,0,0,1,,"[""k""]",[0.2980000000000018],0,"[""k""]",[0.2980000000000018],,,,,,,,,,,,,,,,,,,,,,,,,,,,,,,,,,,,,,,,,,,,,,,,,,,,,,,,,,,,,,
,,,,647412,001,2023-10-10_01h49.49.509,fluency,2022.2.4,Win32,74.96251874,,,,,,,,,,,,,,,,,,,,,,,1,3,img/B03_01.jpg,CONTROL,Press K as soon as you see a face, ,KJ,,,,,,,,,,,,,,,,,,,,,,,,,,,,,,,,3,0.833,,,,,,,,,,,,,,0,95,95,23,1,,,,,,,,,,,,,space,0.321,,,,,,,,,,,,,,,,,,,,,,,,,,,,,,,,,,,,,,,,,,,,,,,,,,,,,,,,,,,,
,,,,647412,001,2023-10-10_01h49.49.509,fluency,2022.2.4,Win32,74.96251874,,,,,,,,,,,,,,,,,,,,,,,8,1,img/B01_08.jpg,CONTROL,Press K as soon as you see a face, ,KJ,,,,,,,,,,,,,,,,,,,,,,,,,,,,,,,,,,,,,,,,,,,,,,907.193,0,96,96,8,1,109,0,0,0,0,1,98,,,,,,,,,,,,,,,,,,,,,,,,,,,,,,,,,,,,,,,,,,,,,,,,,,,,,,,,,,,,,,,,,,,
,,,,647412,001,2023-10-10_01h49.49.509,fluency,2022.2.4,Win32,74.96251874,,,,,,,,,,,,,,,,,,,,,,,,,,,,,,,,,,,,,,,,,,,,,,,,,,,,,,,,,,,,,,,,,,,,,,,,,,,,,,,,,,0,0,0,0,1,,"[""k""]",[0.29200000000003],0,"[""k""]",[0.29200000000003],,,,,,,,,,,,,,,,,,,,,,,,,,,,,,,,,,,,,,,,,,,,,,,,,,,,,,,,,,,,,,
,,,,647412,001,2023-10-10_01h49.49.509,fluency,2022.2.4,Win32,74.96251874,,,,,,,,,,,,,,,,,,,,,,,8,1,img/B01_08.jpg,CONTROL,Press K as soon as you see a face, ,KJ,,,,,,,,,,,,,,,,,,,,,,,,,,,,,,,,1,0.454,,,,,,,,,,,,,,0,96,96,8,1,,,,,,,,,,,,,space,0.35,,,,,,,,,,,,,,,,,,,,,,,,,,,,,,,,,,,,,,,,,,,,,,,,,,,,,,,,,,,,
,,,,647412,001,2023-10-10_01h49.49.509,fluency,2022.2.4,Win32,74.96251874,,,,,,,,,,,,,,,,,,,,,,,4,9,img/B09_04.jpg,CONTROL,Press K as soon as you see a face, ,KJ,,,,,,,,,,,,,,,,,,,,,,,,,,,,,,,,,,,,,,,,,,,,,,912.04,0,97,97,92,1,109,0,0,0,0,1,98,,,,,,,,,,,,,,,,,,,,,,,,,,,,,,,,,,,,,,,,,,,,,,,,,,,,,,,,,,,,,,,,,,,
,,,,647412,001,2023-10-10_01h49.49.509,fluency,2022.2.4,Win32,74.96251874,,,,,,,,,,,,,,,,,,,,,,,,,,,,,,,,,,,,,,,,,,,,,,,,,,,,,,,,,,,,,,,,,,,,,,,,,,,,,,,,,,0,0,0,0,1,,"[""k""]",[0.29300000000000637],0,"[""k""]",[0.29300000000000637],,,,,,,,,,,,,,,,,,,,,,,,,,,,,,,,,,,,,,,,,,,,,,,,,,,,,,,,,,,,,,
,,,,647412,001,2023-10-10_01h49.49.509,fluency,2022.2.4,Win32,74.96251874,,,,,,,,,,,,,,,,,,,,,,,4,9,img/B09_04.jpg,CONTROL,Press K as soon as you see a face, ,KJ,,,,,,,,,,,,,,,,,,,,,,,,,,,,,,,,2,0.836,,,,,,,,,,,,,,0,97,97,92,1,,,,,,,,,,,,,space,0.482,,,,,,,,,,,,,,,,,,,,,,,,,,,,,,,,,,,,,,,,,,,,,,,,,,,,,,,,,,,,
,,,,647412,001,2023-10-10_01h49.49.509,fluency,2022.2.4,Win32,74.96251874,,,,,,,,,,,,,,,,,,,,,,,6,7,img/B07_06.jpg,CONTROL,Press K as soon as you see a face, ,KJ,,,,,,,,,,,,,,,,,,,,,,,,,,,,,,,,,,,,,,,,,,,,,,918.394,0,98,98,72,1,109,0,0,0,0,1,98,,,,,,,,,,,,,,,,,,,,,,,,,,,,,,,,,,,,,,,,,,,,,,,,,,,,,,,,,,,,,,,,,,,
,,,,647412,001,2023-10-10_01h49.49.509,fluency,2022.2.4,Win32,74.96251874,,,,,,,,,,,,,,,,,,,,,,,,,,,,,,,,,,,,,,,,,,,,,,,,,,,,,,,,,,,,,,,,,,,,,,,,,,,,,,,,,,0,0,0,0,1,,"[""k""]",[0.27099999999995816],0,"[""k""]",[0.27099999999995816],,,,,,,,,,,,,,,,,,,,,,,,,,,,,,,,,,,,,,,,,,,,,,,,,,,,,,,,,,,,,,
,,,,647412,001,2023-10-10_01h49.49.509,fluency,2022.2.4,Win32,74.96251874,,,,,,,,,,,,,,,,,,,,,,,6,7,img/B07_06.jpg,CONTROL,Press K as soon as you see a face, ,KJ,,,,,,,,,,,,,,,,,,,,,,,,,,,,,,,,4,0.304,,,,,,,,,,,,,,0,98,98,72,1,,,,,,,,,,,,,space,0.374,,,,,,,,,,,,,,,,,,,,,,,,,,,,,,,,,,,,,,,,,,,,,,,,,,,,,,,,,,,,
,,,,647412,001,2023-10-10_01h49.49.509,fluency,2022.2.4,Win32,74.96251874,,,,,,,,,,,,,,,,,,,,,,,3,1,img/B01_03.jpg,CONTROL,Press K as soon as you see a face, ,KJ,,,,,,,,,,,,,,,,,,,,,,,,,,,,,,,,,,,,,,,,,,,,,,924.109,0,99,99,3,1,109,0,0,0,0,1,98,,,,,,,,,,,,,,,,,,,,,,,,,,,,,,,,,,,,,,,,,,,,,,,,,,,,,,,,,,,,,,,,,,,
,,,,647412,001,2023-10-10_01h49.49.509,fluency,2022.2.4,Win32,74.96251874,,,,,,,,,,,,,,,,,,,,,,,,,,,,,,,,,,,,,,,,,,,,,,,,,,,,,,,,,,,,,,,,,,,,,,,,,,,,,,,,,,0,0,0,0,1,,"[""k""]",[0.48500000000001364],0,"[""k""]",[0.48500000000001364],,,,,,,,,,,,,,,,,,,,,,,,,,,,,,,,,,,,,,,,,,,,,,,,,,,,,,,,,,,,,,
,,,,647412,001,2023-10-10_01h49.49.509,fluency,2022.2.4,Win32,74.96251874,,,,,,,,,,,,,,,,,,,,,,,3,1,img/B01_03.jpg,CONTROL,Press K as soon as you see a face, ,KJ,,,,,,,,,,,,,,,,,,,,,,,,,,,,,,,,1,0.639,,,,,,,,,,,,,,0,99,99,3,1,,,,,,,,,,,,,space,0.46,,,,,,,,,,,,,,,,,,,,,,,,,,,,,,,,,,,,,,,,,,,,,,,,,,,,,,,,,,,,
,,,,647412,001,2023-10-10_01h49.49.509,fluency,2022.2.4,Win32,74.96251874,,,,,,,,,,,,,,,,,,,,,,,6,1,img/B01_06.jpg,CONTROL,Press K as soon as you see a face, ,KJ,,,,,,,,,,,,,,,,,,,,,,,,,,,,,,,,,,,,,,,,,,,,,,929.235,0,100,100,6,1,109,0,0,0,0,1,98,,,,,,,,,,,,,,,,,,,,,,,,,,,,,,,,,,,,,,,,,,,,,,,,,,,,,,,,,,,,,,,,,,,
,,,,647412,001,2023-10-10_01h49.49.509,fluency,2022.2.4,Win32,74.96251874,,,,,,,,,,,,,,,,,,,,,,,,,,,,,,,,,,,,,,,,,,,,,,,,,,,,,,,,,,,,,,,,,,,,,,,,,,,,,,,,,,0,0,0,0,1,,"[""k""]",[0.33399999999994634],0,"[""k""]",[0.33399999999994634],,,,,,,,,,,,,,,,,,,,,,,,,,,,,,,,,,,,,,,,,,,,,,,,,,,,,,,,,,,,,,
,,,,647412,001,2023-10-10_01h49.49.509,fluency,2022.2.4,Win32,74.96251874,,,,,,,,,,,,,,,,,,,,,,,6,1,img/B01_06.jpg,CONTROL,Press K as soon as you see a face, ,KJ,,,,,,,,,,,,,,,,,,,,,,,,,,,,,,,,1,0.536,,,,,,,,,,,,,,0,100,100,6,1,,,,,,,,,,,,,space,0.602,,,,,,,,,,,,,,,,,,,,,,,,,,,,,,,,,,,,,,,,,,,,,,,,,,,,,,,,,,,,
,,,,647412,001,2023-10-10_01h49.49.509,fluency,2022.2.4,Win32,74.96251874,,,,,,,,,,,,,,,,,,,,,,,1,10,img/B10_01.jpg,CONTROL,Press K as soon as you see a face, ,KJ,,,,,,,,,,,,,,,,,,,,,,,,,,,,,,,,,,,,,,,,,,,,,,935.403,0,101,101,100,1,109,0,0,0,0,1,98,,,,,,,,,,,,,,,,,,,,,,,,,,,,,,,,,,,,,,,,,,,,,,,,,,,,,,,,,,,,,,,,,,,
,,,,647412,001,2023-10-10_01h49.49.509,fluency,2022.2.4,Win32,74.96251874,,,,,,,,,,,,,,,,,,,,,,,,,,,,,,,,,,,,,,,,,,,,,,,,,,,,,,,,,,,,,,,,,,,,,,,,,,,,,,,,,,0,0,0,0,1,,"[""k""]",[0.2560000000000855],0,"[""k""]",[0.2560000000000855],,,,,,,,,,,,,,,,,,,,,,,,,,,,,,,,,,,,,,,,,,,,,,,,,,,,,,,,,,,,,,
,,,,647412,001,2023-10-10_01h49.49.509,fluency,2022.2.4,Win32,74.96251874,,,,,,,,,,,,,,,,,,,,,,,1,10,img/B10_01.jpg,CONTROL,Press K as soon as you see a face, ,KJ,,,,,,,,,,,,,,,,,,,,,,,,,,,,,,,,3,0.399,,,,,,,,,,,,,,0,101,101,100,1,,,,,,,,,,,,,space,0.44,,,,,,,,,,,,,,,,,,,,,,,,,,,,,,,,,,,,,,,,,,,,,,,,,,,,,,,,,,,,
,,,,647412,001,2023-10-10_01h49.49.509,fluency,2022.2.4,Win32,74.96251874,,,,,,,,,,,,,,,,,,,,,,,10,1,img/B01_10.jpg,CONTROL,Press K as soon as you see a face, ,KJ,,,,,,,,,,,,,,,,,,,,,,,,,,,,,,,,,,,,,,,,,,,,,,941.278,0,102,102,10,1,109,0,0,0,0,1,98,,,,,,,,,,,,,,,,,,,,,,,,,,,,,,,,,,,,,,,,,,,,,,,,,,,,,,,,,,,,,,,,,,,
,,,,647412,001,2023-10-10_01h49.49.509,fluency,2022.2.4,Win32,74.96251874,,,,,,,,,,,,,,,,,,,,,,,,,,,,,,,,,,,,,,,,,,,,,,,,,,,,,,,,,,,,,,,,,,,,,,,,,,,,,,,,,,0,0,0,0,1,,"[""k""]",[0.29300000000000637],0,"[""k""]",[0.29300000000000637],,,,,,,,,,,,,,,,,,,,,,,,,,,,,,,,,,,,,,,,,,,,,,,,,,,,,,,,,,,,,,
