idTextbox.text,welcomeDone.numClicks,welcomeDone.timesOn,welcomeDone.timesOff,participant,session,date,expName,psychopyVersion,OS,frameRate,consent_advance.keys,consent_advance.rt,consent_advance_2.keys,consent_advance_2.rt,consentClick.x,consentClick.y,consentClick.leftButton,consentClick.midButton,consentClick.rightButton,consentClick.time,consentClick.clicked_name,instr_advance_3.keys,instr_advance_3.rt,spec_instr_adv.keys,spec_instr_adv.rt,spec_instr_adv2.keys,spec_instr_adv2.rt,instrLoop.thisRepN,instrLoop.thisTrialN,instrLoop.thisN,instrLoop.thisIndex,instrLoop.ran,steps,fams,face_file,cond,instr,term,key_map,attnKeyResp1.keys,attnKeyResp1.rt,q1.thisRepN,q1.thisTrialN,q1.thisN,q1.thisIndex,q1.ran,attnKeyResp2.keys,attnKeyResp2.rt,q2.thisRepN,q2.thisTrialN,q2.thisN,q2.thisIndex,q2.ran,attnKeyResp3.keys,attnKeyResp3.rt,q3.thisRepN,q3.thisTrialN,q3.thisN,q3.thisIndex,q3.ran,practiceStart.keys,practiceStart.rt,practiceResp.keys,practiceResp.rt,timesRedone,practiceRepeat.thisRepN,practiceRepeat.thisTrialN,practiceRepeat.thisN,practiceRepeat.thisIndex,practiceRepeat.ran,attrRating.keys,attrRating.rt,practiceTrial.thisRepN,practiceTrial.thisTrialN,practiceTrial.thisN,practiceTrial.thisIndex,practiceTrial.ran,key_resp_3.keys,key_resp_3.rt,attnChecker.thisRepN,attnChecker.thisTrialN,attnChecker.thisN,attnChecker.thisIndex,attnChecker.ran,faceOnsetTime,trials.thisRepN,trials.thisTrialN,trials.thisN,trials.thisIndex,trials.ran,trials.order,repeat_loop.thisRepN,repeat_loop.thisTrialN,repeat_loop.thisN,repeat_loop.thisIndex,repeat_loop.ran,repeat_loop.order,catResp.keys,catResp.rt,globalTimesRedone,catAllKeys.keys,catAllKeys.rt,contResp.keys,contResp.rt,redo_keypress.keys,redo_keypress.rt,redo_feedback_loop.thisRepN,redo_feedback_loop.thisTrialN,redo_feedback_loop.thisN,redo_feedback_loop.thisIndex,redo_feedback_loop.ran,redo_feedback_loop.order
614c57497a3f1ea67576e461,1,[110.12679999999702],[110.12679999999702],178154,001,2023-09-28_16h36.02.141,fluency,2022.2.5,MacIntel,30.02101471,,,,,,,,,,,,,,,,,,,,,,,,,,,,,,,,,,,,,,,,,,,,,,,,,,,,,,,,,,,,,,,,,,,,,,,,,,,,,,,,,,,,,,,,,,,,,,,,,,,,,,
,,,,178154,001,2023-09-28_16h36.02.141,fluency,2022.2.5,MacIntel,30.02101471,space,105.7069,,,,,,,,,,,,,,,,,,,,,,,,,,,,,,,,,,,,,,,,,,,,,,,,,,,,,,,,,,,,,,,,,,,,,,,,,,,,,,,,,,,,,,,,,,,,,,,,,,,,
,,,,178154,001,2023-09-28_16h36.02.141,fluency,2022.2.5,MacIntel,30.02101471,,,space,64.4807,,,,,,,,,,,,,,,,,,,,,,,,,,,,,,,,,,,,,,,,,,,,,,,,,,,,,,,,,,,,,,,,,,,,,,,,,,,,,,,,,,,,,,,,,,,,,,,,,,
,,,,178154,001,2023-09-28_16h36.02.141,fluency,2022.2.5,MacIntel,30.02101471,,,,,0.279106988,-0.330882417,1,0,0,63.0674,iAgree,,,,,,,,,,,,,,,,,,,,,,,,,,,,,,,,,,,,,,,,,,,,,,,,,,,,,,,,,,,,,,,,,,,,,,,,,,,,,,,,,,,,,,,,,,,
,,,,178154,001,2023-09-28_16h36.02.141,fluency,2022.2.5,MacIntel,30.02101471,,,,,,,,,,,,space,28.2423,,,,,,,,,,,,,,,,,,,,,,,,,,,,,,,,,,,,,,,,,,,,,,,,,,,,,,,,,,,,,,,,,,,,,,,,,,,,,,,,,,,,,,,,,
,,,,178154,001,2023-09-28_16h36.02.141,fluency,2022.2.5,MacIntel,30.02101471,,,,,,,,,,,,,,space,43.16,space,16.8359,0,0,0,103,1,4,10,img/B10_04.jpg,GCNB,Press J if the face is GENDER-CONFORMING and K if the face is NONBINARY,Gender-conforming means that the face appears to be a typical example of its gender. Nonbinary means that the face does not conform to any particular gender norms.,JK,,,,,,,,,,,,,,,,,,,,,,,,,,,,,,,,,,,,,,,,,,,,,,,,,,,,,,,,,,,,,,,,,,,,,,,,,
,,,,178154,001,2023-09-28_16h36.02.141,fluency,2022.2.5,MacIntel,30.02101471,,,,,,,,,,,,,,,,,,,,,,,,,,,,,,c,9.3576,0,0,0,0,1,,,,,,,,,,,,,,,,,,,,,,,,,,,,,,,,,,,,,,,,,,,,,,,,,,,,,,,,,,,,,,,,,,
,,,,178154,001,2023-09-28_16h36.02.141,fluency,2022.2.5,MacIntel,30.02101471,,,,,,,,,,,,,,,,,,,,,,,,,,,,,,,,,,,,,a,8.5811,0,0,0,0,1,,,,,,,,,,,,,,,,,,,,,,,,,,,,,,,,,,,,,,,,,,,,,,,,,,,,,,,,,,,
,,,,178154,001,2023-09-28_16h36.02.141,fluency,2022.2.5,MacIntel,30.02101471,,,,,,,,,,,,,,,,,,,,,,,,,,,,,,,,,,,,,,,,,,,,c,7.5328,0,0,0,0,1,,,,,,,,,,,,,,,,,,,,,,,,,,,,,,,,,,,,,,,,,,,,,,,,,,,,
,,,,178154,001,2023-09-28_16h36.02.141,fluency,2022.2.5,MacIntel,30.02101471,,,,,,,,,,,,,,,,,,,,,,,,,,,,,,,,,,,,,,,,,,,,,,,,,,,space,4.2865,j,2.6532,0,0,0,0,0,1,,,,,,,,,,,,,,,,,,,,,,,,,,,,,,,,,,,,,,,,,,
,,,,178154,001,2023-09-28_16h36.02.141,fluency,2022.2.5,MacIntel,30.02101471,,,,,,,,,,,,,,,,,,,,,,,,,,,,,,,,,,,,,,,,,,,,,,,,,,,,,,,,,,,,,4,2.9756,0,0,0,0,1,,,,,,,,,,,,,,,,,,,,,,,,,,,,,,,,,,,
,,,,178154,001,2023-09-28_16h36.02.141,fluency,2022.2.5,MacIntel,30.02101471,,,,,,,,,,,,,,,,,,,,,,,,,,,,,,,,,,,,,,,,,,,,,,,,,,,,,,,,,,,,,,,,,,,,space,10.2964,0,0,0,0,1,,,,,,,,,,,,,,,,,,,,,,,,,,,,
,,,,178154,001,2023-09-28_16h36.02.141,fluency,2022.2.5,MacIntel,30.02101471,,,,,,,,,,,,,,,,,,,,,,,2,7,img/B07_02.jpg,GCNB,Press J if the face is GENDER-CONFORMING and K if the face is NONBINARY,Gender-conforming means that the face appears to be a typical example of its gender. Nonbinary means that the face does not conform to any particular gender norms.,JK,,,,,,,,,,,,,,,,,,,,,,,,,,,,,,,,,,,,,,,,,,,,,,498.3194,0,0,0,68,1,109,0,0,0,0,1,98,,,,,,,,,,,,,,,
,,,,178154,001,2023-09-28_16h36.02.141,fluency,2022.2.5,MacIntel,30.02101471,,,,,,,,,,,,,,,,,,,,,,,,,,,,,,,,,,,,,,,,,,,,,,,,,,,,,,,,,,,,,,,,,,,,,,,,,,,,,,,,,,0,0,0,0,1,,"[""j""]",[1.3857999999970616],0,"[""j""]",[1.3857000000029984],,,,,,,,,,
,,,,178154,001,2023-09-28_16h36.02.141,fluency,2022.2.5,MacIntel,30.02101471,,,,,,,,,,,,,,,,,,,,,,,2,7,img/B07_02.jpg,GCNB,Press J if the face is GENDER-CONFORMING and K if the face is NONBINARY,Gender-conforming means that the face appears to be a typical example of its gender. Nonbinary means that the face does not conform to any particular gender norms.,JK,,,,,,,,,,,,,,,,,,,,,,,,,,,,,,,,3,0.6576,,,,,,,,,,,,,,0,0,0,68,1,,,,,,,,,,,,,space,88.96,,,,,,,,
,,,,178154,001,2023-09-28_16h36.02.141,fluency,2022.2.5,MacIntel,30.02101471,,,,,,,,,,,,,,,,,,,,,,,9,9,img/B09_09.jpg,GCNB,Press J if the face is GENDER-CONFORMING and K if the face is NONBINARY,Gender-conforming means that the face appears to be a typical example of its gender. Nonbinary means that the face does not conform to any particular gender norms.,JK,,,,,,,,,,,,,,,,,,,,,,,,,,,,,,,,,,,,,,,,,,,,,,593.088,0,1,1,97,1,109,0,0,0,0,1,98,,,,,,,,,,,,,,,
,,,,178154,001,2023-09-28_16h36.02.141,fluency,2022.2.5,MacIntel,30.02101471,,,,,,,,,,,,,,,,,,,,,,,,,,,,,,,,,,,,,,,,,,,,,,,,,,,,,,,,,,,,,,,,,,,,,,,,,,,,,,,,,,0,0,0,0,1,,"[""j""]",[1.6887999999969452],0,"[""j""]",[1.6886000000014292],,,,,,,,,,
,,,,178154,001,2023-09-28_16h36.02.141,fluency,2022.2.5,MacIntel,30.02101471,,,,,,,,,,,,,,,,,,,,,,,9,9,img/B09_09.jpg,GCNB,Press J if the face is GENDER-CONFORMING and K if the face is NONBINARY,Gender-conforming means that the face appears to be a typical example of its gender. Nonbinary means that the face does not conform to any particular gender norms.,JK,,,,,,,,,,,,,,,,,,,,,,,,,,,,,,,,4,1.8317,,,,,,,,,,,,,,0,1,1,97,1,,,,,,,,,,,,,space,6.0267,,,,,,,,
,,,,178154,001,2023-09-28_16h36.02.141,fluency,2022.2.5,MacIntel,30.02101471,,,,,,,,,,,,,,,,,,,,,,,2,9,img/B09_02.jpg,GCNB,Press J if the face is GENDER-CONFORMING and K if the face is NONBINARY,Gender-conforming means that the face appears to be a typical example of its gender. Nonbinary means that the face does not conform to any particular gender norms.,JK,,,,,,,,,,,,,,,,,,,,,,,,,,,,,,,,,,,,,,,,,,,,,,606.0451,0,2,2,90,1,109,0,0,0,0,1,98,,,,,,,,,,,,,,,
,,,,178154,001,2023-09-28_16h36.02.141,fluency,2022.2.5,MacIntel,30.02101471,,,,,,,,,,,,,,,,,,,,,,,,,,,,,,,,,,,,,,,,,,,,,,,,,,,,,,,,,,,,,,,,,,,,,,,,,,,,,,,,,,,,,,,,,,1,,,,,space,5.7241,0,0,0,0,1,
,,,,178154,001,2023-09-28_16h36.02.141,fluency,2022.2.5,MacIntel,30.02101471,,,,,,,,,,,,,,,,,,,,,,,,,,,,,,,,,,,,,,,,,,,,,,,,,,,,,,,,,,,,,,,,,,,,,,,,,,,,,,,,,,0,0,0,0,1,,,,,,,,,,,,,,,,
,,,,178154,001,2023-09-28_16h36.02.141,fluency,2022.2.5,MacIntel,30.02101471,,,,,,,,,,,,,,,,,,,,,,,2,9,img/B09_02.jpg,GCNB,Press J if the face is GENDER-CONFORMING and K if the face is NONBINARY,Gender-conforming means that the face appears to be a typical example of its gender. Nonbinary means that the face does not conform to any particular gender norms.,JK,,,,,,,,,,,,,,,,,,,,,,,,,,,,,,,,,,,,,,,,,,,,,,616.8231,0,2,2,90,1,109,1,0,1,0,1,98,,,,,,,,,,,,,,,
,,,,178154,001,2023-09-28_16h36.02.141,fluency,2022.2.5,MacIntel,30.02101471,,,,,,,,,,,,,,,,,,,,,,,,,,,,,,,,,,,,,,,,,,,,,,,,,,,,,,,,,,,,,,,,,,,,,,,,,,,,,,,,,,1,0,1,0,1,,"[""k""]",[0.5673999999985426],1,"[""k""]",[0.5673999999985426],,,,,,,,,,
,,,,178154,001,2023-09-28_16h36.02.141,fluency,2022.2.5,MacIntel,30.02101471,,,,,,,,,,,,,,,,,,,,,,,2,9,img/B09_02.jpg,GCNB,Press J if the face is GENDER-CONFORMING and K if the face is NONBINARY,Gender-conforming means that the face appears to be a typical example of its gender. Nonbinary means that the face does not conform to any particular gender norms.,JK,,,,,,,,,,,,,,,,,,,,,,,,,,,,,,,,4,0.0619,,,,,,,,,,,,,,0,2,2,90,1,,,,,,,,,,,,,space,3.0027,,,,,,,,
,,,,178154,001,2023-09-28_16h36.02.141,fluency,2022.2.5,MacIntel,30.02101471,,,,,,,,,,,,,,,,,,,,,,,4,5,img/B05_04.jpg,GCNB,Press J if the face is GENDER-CONFORMING and K if the face is NONBINARY,Gender-conforming means that the face appears to be a typical example of its gender. Nonbinary means that the face does not conform to any particular gender norms.,JK,,,,,,,,,,,,,,,,,,,,,,,,,,,,,,,,,,,,,,,,,,,,,,623.9845,0,3,3,48,1,109,0,0,0,0,1,98,,,,,,,,,,,,,,,
,,,,178154,001,2023-09-28_16h36.02.141,fluency,2022.2.5,MacIntel,30.02101471,,,,,,,,,,,,,,,,,,,,,,,,,,,,,,,,,,,,,,,,,,,,,,,,,,,,,,,,,,,,,,,,,,,,,,,,,,,,,,,,,,0,0,0,0,1,,"[""k""]",[1.024699999995505],1,"[""k"",""3""]","[1.0230000000000246,2.255700000003003]",,,,,,,,,,
,,,,178154,001,2023-09-28_16h36.02.141,fluency,2022.2.5,MacIntel,30.02101471,,,,,,,,,,,,,,,,,,,,,,,4,5,img/B05_04.jpg,GCNB,Press J if the face is GENDER-CONFORMING and K if the face is NONBINARY,Gender-conforming means that the face appears to be a typical example of its gender. Nonbinary means that the face does not conform to any particular gender norms.,JK,,,,,,,,,,,,,,,,,,,,,,,,,,,,,,,,3,0.3219,,,,,,,,,,,,,,0,3,3,48,1,,,,,,,,,,,,,space,2.2922,,,,,,,,
,,,,178154,001,2023-09-28_16h36.02.141,fluency,2022.2.5,MacIntel,30.02101471,,,,,,,,,,,,,,,,,,,,,,,8,3,img/B03_08.jpg,GCNB,Press J if the face is GENDER-CONFORMING and K if the face is NONBINARY,Gender-conforming means that the face appears to be a typical example of its gender. Nonbinary means that the face does not conform to any particular gender norms.,JK,,,,,,,,,,,,,,,,,,,,,,,,,,,,,,,,,,,,,,,,,,,,,,630.6805,0,4,4,30,1,109,0,0,0,0,1,98,,,,,,,,,,,,,,,
,,,,178154,001,2023-09-28_16h36.02.141,fluency,2022.2.5,MacIntel,30.02101471,,,,,,,,,,,,,,,,,,,,,,,,,,,,,,,,,,,,,,,,,,,,,,,,,,,,,,,,,,,,,,,,,,,,,,,,,,,,,,,,,,0,0,0,0,1,,"[""j""]",[0.8402000000029375],1,"[""j""]",[0.8400000000000318],,,,,,,,,,
,,,,178154,001,2023-09-28_16h36.02.141,fluency,2022.2.5,MacIntel,30.02101471,,,,,,,,,,,,,,,,,,,,,,,8,3,img/B03_08.jpg,GCNB,Press J if the face is GENDER-CONFORMING and K if the face is NONBINARY,Gender-conforming means that the face appears to be a typical example of its gender. Nonbinary means that the face does not conform to any particular gender norms.,JK,,,,,,,,,,,,,,,,,,,,,,,,,,,,,,,,6,0.8426,,,,,,,,,,,,,,0,4,4,30,1,,,,,,,,,,,,,space,1.6706,,,,,,,,
,,,,178154,001,2023-09-28_16h36.02.141,fluency,2022.2.5,MacIntel,30.02101471,,,,,,,,,,,,,,,,,,,,,,,7,9,img/B09_07.jpg,GCNB,Press J if the face is GENDER-CONFORMING and K if the face is NONBINARY,Gender-conforming means that the face appears to be a typical example of its gender. Nonbinary means that the face does not conform to any particular gender norms.,JK,,,,,,,,,,,,,,,,,,,,,,,,,,,,,,,,,,,,,,,,,,,,,,637.2939,0,5,5,95,1,109,0,0,0,0,1,98,,,,,,,,,,,,,,,
,,,,178154,001,2023-09-28_16h36.02.141,fluency,2022.2.5,MacIntel,30.02101471,,,,,,,,,,,,,,,,,,,,,,,,,,,,,,,,,,,,,,,,,,,,,,,,,,,,,,,,,,,,,,,,,,,,,,,,,,,,,,,,,,0,0,0,0,1,,"[""k""]",[2.085100000001489],1,"[""k""]",[2.085100000001489],,,,,,,,,,
,,,,178154,001,2023-09-28_16h36.02.141,fluency,2022.2.5,MacIntel,30.02101471,,,,,,,,,,,,,,,,,,,,,,,7,9,img/B09_07.jpg,GCNB,Press J if the face is GENDER-CONFORMING and K if the face is NONBINARY,Gender-conforming means that the face appears to be a typical example of its gender. Nonbinary means that the face does not conform to any particular gender norms.,JK,,,,,,,,,,,,,,,,,,,,,,,,,,,,,,,,4,0.4294,,,,,,,,,,,,,,0,5,5,95,1,,,,,,,,,,,,,space,1.2423,,,,,,,,
,,,,178154,001,2023-09-28_16h36.02.141,fluency,2022.2.5,MacIntel,30.02101471,,,,,,,,,,,,,,,,,,,,,,,2,10,img/B10_02.jpg,GCNB,Press J if the face is GENDER-CONFORMING and K if the face is NONBINARY,Gender-conforming means that the face appears to be a typical example of its gender. Nonbinary means that the face does not conform to any particular gender norms.,JK,,,,,,,,,,,,,,,,,,,,,,,,,,,,,,,,,,,,,,,,,,,,,,643.0552,0,6,6,101,1,109,0,0,0,0,1,98,,,,,,,,,,,,,,,
,,,,178154,001,2023-09-28_16h36.02.141,fluency,2022.2.5,MacIntel,30.02101471,,,,,,,,,,,,,,,,,,,,,,,,,,,,,,,,,,,,,,,,,,,,,,,,,,,,,,,,,,,,,,,,,,,,,,,,,,,,,,,,,,0,0,0,0,1,,"[""j""]",[1.0257000000029848],1,"[""j""]",[1.0257000000029848],,,,,,,,,,
,,,,178154,001,2023-09-28_16h36.02.141,fluency,2022.2.5,MacIntel,30.02101471,,,,,,,,,,,,,,,,,,,,,,,2,10,img/B10_02.jpg,GCNB,Press J if the face is GENDER-CONFORMING and K if the face is NONBINARY,Gender-conforming means that the face appears to be a typical example of its gender. Nonbinary means that the face does not conform to any particular gender norms.,JK,,,,,,,,,,,,,,,,,,,,,,,,,,,,,,,,6,0.5296,,,,,,,,,,,,,,0,6,6,101,1,,,,,,,,,,,,,space,3.6355,,,,,,,,
,,,,178154,001,2023-09-28_16h36.02.141,fluency,2022.2.5,MacIntel,30.02101471,,,,,,,,,,,,,,,,,,,,,,,10,5,img/B05_10.jpg,GCNB,Press J if the face is GENDER-CONFORMING and K if the face is NONBINARY,Gender-conforming means that the face appears to be a typical example of its gender. Nonbinary means that the face does not conform to any particular gender norms.,JK,,,,,,,,,,,,,,,,,,,,,,,,,,,,,,,,,,,,,,,,,,,,,,652.3164,0,7,7,54,1,109,0,0,0,0,1,98,,,,,,,,,,,,,,,
,,,,178154,001,2023-09-28_16h36.02.141,fluency,2022.2.5,MacIntel,30.02101471,,,,,,,,,,,,,,,,,,,,,,,,,,,,,,,,,,,,,,,,,,,,,,,,,,,,,,,,,,,,,,,,,,,,,,,,,,,,,,,,,,0,0,0,0,1,,"[""j""]",[1.9507000000029393],1,"[""j""]",[1.9506000000014865],,,,,,,,,,
,,,,178154,001,2023-09-28_16h36.02.141,fluency,2022.2.5,MacIntel,30.02101471,,,,,,,,,,,,,,,,,,,,,,,10,5,img/B05_10.jpg,GCNB,Press J if the face is GENDER-CONFORMING and K if the face is NONBINARY,Gender-conforming means that the face appears to be a typical example of its gender. Nonbinary means that the face does not conform to any particular gender norms.,JK,,,,,,,,,,,,,,,,,,,,,,,,,,,,,,,,3,0.5482,,,,,,,,,,,,,,0,7,7,54,1,,,,,,,,,,,,,space,1.9036,,,,,,,,
,,,,178154,001,2023-09-28_16h36.02.141,fluency,2022.2.5,MacIntel,30.02101471,,,,,,,,,,,,,,,,,,,,,,,0,7,img/B07_00.jpg,GCNB,Press J if the face is GENDER-CONFORMING and K if the face is NONBINARY,Gender-conforming means that the face appears to be a typical example of its gender. Nonbinary means that the face does not conform to any particular gender norms.,JK,,,,,,,,,,,,,,,,,,,,,,,,,,,,,,,,,,,,,,,,,,,,,,659.8622,0,8,8,66,1,109,0,0,0,0,1,98,,,,,,,,,,,,,,,
,,,,178154,001,2023-09-28_16h36.02.141,fluency,2022.2.5,MacIntel,30.02101471,,,,,,,,,,,,,,,,,,,,,,,,,,,,,,,,,,,,,,,,,,,,,,,,,,,,,,,,,,,,,,,,,,,,,,,,,,,,,,,,,,0,0,0,0,1,,"[""j""]",[1.325300000004404],1,"[""j""]",[1.3251000000014983],,,,,,,,,,
,,,,178154,001,2023-09-28_16h36.02.141,fluency,2022.2.5,MacIntel,30.02101471,,,,,,,,,,,,,,,,,,,,,,,0,7,img/B07_00.jpg,GCNB,Press J if the face is GENDER-CONFORMING and K if the face is NONBINARY,Gender-conforming means that the face appears to be a typical example of its gender. Nonbinary means that the face does not conform to any particular gender norms.,JK,,,,,,,,,,,,,,,,,,,,,,,,,,,,,,,,4,0.8455,,,,,,,,,,,,,,0,8,8,66,1,,,,,,,,,,,,,space,0.9379,,,,,,,,
,,,,178154,001,2023-09-28_16h36.02.141,fluency,2022.2.5,MacIntel,30.02101471,,,,,,,,,,,,,,,,,,,,,,,2,3,img/B03_02.jpg,GCNB,Press J if the face is GENDER-CONFORMING and K if the face is NONBINARY,Gender-conforming means that the face appears to be a typical example of its gender. Nonbinary means that the face does not conform to any particular gender norms.,JK,,,,,,,,,,,,,,,,,,,,,,,,,,,,,,,,,,,,,,,,,,,,,,666.7379,0,9,9,24,1,109,0,0,0,0,1,98,,,,,,,,,,,,,,,
,,,,178154,001,2023-09-28_16h36.02.141,fluency,2022.2.5,MacIntel,30.02101471,,,,,,,,,,,,,,,,,,,,,,,,,,,,,,,,,,,,,,,,,,,,,,,,,,,,,,,,,,,,,,,,,,,,,,,,,,,,,,,,,,0,0,0,0,1,,"[""j""]",[0.9031000000014728],1,"[""j""]",[0.9032000000029257],,,,,,,,,,
,,,,178154,001,2023-09-28_16h36.02.141,fluency,2022.2.5,MacIntel,30.02101471,,,,,,,,,,,,,,,,,,,,,,,2,3,img/B03_02.jpg,GCNB,Press J if the face is GENDER-CONFORMING and K if the face is NONBINARY,Gender-conforming means that the face appears to be a typical example of its gender. Nonbinary means that the face does not conform to any particular gender norms.,JK,,,,,,,,,,,,,,,,,,,,,,,,,,,,,,,,6,0.4153,,,,,,,,,,,,,,0,9,9,24,1,,,,,,,,,,,,,space,1.4699,,,,,,,,
,,,,178154,001,2023-09-28_16h36.02.141,fluency,2022.2.5,MacIntel,30.02101471,,,,,,,,,,,,,,,,,,,,,,,1,9,img/B09_01.jpg,GCNB,Press J if the face is GENDER-CONFORMING and K if the face is NONBINARY,Gender-conforming means that the face appears to be a typical example of its gender. Nonbinary means that the face does not conform to any particular gender norms.,JK,,,,,,,,,,,,,,,,,,,,,,,,,,,,,,,,,,,,,,,,,,,,,,673.7173,0,10,10,89,1,109,0,0,0,0,1,98,,,,,,,,,,,,,,,
,,,,178154,001,2023-09-28_16h36.02.141,fluency,2022.2.5,MacIntel,30.02101471,,,,,,,,,,,,,,,,,,,,,,,,,,,,,,,,,,,,,,,,,,,,,,,,,,,,,,,,,,,,,,,,,,,,,,,,,,,,,,,,,,0,0,0,0,1,,"[""k""]",[1.0740000000000691],1,"[""k""]",[1.0740000000000691],,,,,,,,,,
,,,,178154,001,2023-09-28_16h36.02.141,fluency,2022.2.5,MacIntel,30.02101471,,,,,,,,,,,,,,,,,,,,,,,1,9,img/B09_01.jpg,GCNB,Press J if the face is GENDER-CONFORMING and K if the face is NONBINARY,Gender-conforming means that the face appears to be a typical example of its gender. Nonbinary means that the face does not conform to any particular gender norms.,JK,,,,,,,,,,,,,,,,,,,,,,,,,,,,,,,,3,0.5503,,,,,,,,,,,,,,0,10,10,89,1,,,,,,,,,,,,,space,16.2462,,,,,,,,
,,,,178154,001,2023-09-28_16h36.02.141,fluency,2022.2.5,MacIntel,30.02101471,,,,,,,,,,,,,,,,,,,,,,,8,6,img/B06_08.jpg,GCNB,Press J if the face is GENDER-CONFORMING and K if the face is NONBINARY,Gender-conforming means that the face appears to be a typical example of its gender. Nonbinary means that the face does not conform to any particular gender norms.,JK,,,,,,,,,,,,,,,,,,,,,,,,,,,,,,,,,,,,,,,,,,,,,,695.6234,0,11,11,63,1,109,0,0,0,0,1,98,,,,,,,,,,,,,,,
,,,,178154,001,2023-09-28_16h36.02.141,fluency,2022.2.5,MacIntel,30.02101471,,,,,,,,,,,,,,,,,,,,,,,,,,,,,,,,,,,,,,,,,,,,,,,,,,,,,,,,,,,,,,,,,,,,,,,,,,,,,,,,,,0,0,0,0,1,,"[""j""]",[1.5191000000014583],1,"[""j""]",[1.5190000000000055],,,,,,,,,,
,,,,178154,001,2023-09-28_16h36.02.141,fluency,2022.2.5,MacIntel,30.02101471,,,,,,,,,,,,,,,,,,,,,,,8,6,img/B06_08.jpg,GCNB,Press J if the face is GENDER-CONFORMING and K if the face is NONBINARY,Gender-conforming means that the face appears to be a typical example of its gender. Nonbinary means that the face does not conform to any particular gender norms.,JK,,,,,,,,,,,,,,,,,,,,,,,,,,,,,,,,5,1.2389,,,,,,,,,,,,,,0,11,11,63,1,,,,,,,,,,,,,space,2.6971,,,,,,,,
,,,,178154,001,2023-09-28_16h36.02.141,fluency,2022.2.5,MacIntel,30.02101471,,,,,,,,,,,,,,,,,,,,,,,7,7,img/B07_07.jpg,GCNB,Press J if the face is GENDER-CONFORMING and K if the face is NONBINARY,Gender-conforming means that the face appears to be a typical example of its gender. Nonbinary means that the face does not conform to any particular gender norms.,JK,,,,,,,,,,,,,,,,,,,,,,,,,,,,,,,,,,,,,,,,,,,,,,703.6641,0,12,12,73,1,109,0,0,0,0,1,98,,,,,,,,,,,,,,,
,,,,178154,001,2023-09-28_16h36.02.141,fluency,2022.2.5,MacIntel,30.02101471,,,,,,,,,,,,,,,,,,,,,,,,,,,,,,,,,,,,,,,,,,,,,,,,,,,,,,,,,,,,,,,,,,,,,,,,,,,,,,,,,,0,0,0,0,1,,"[""k""]",[1.253599999994094],1,"[""k""]",[1.2536000000014837],,,,,,,,,,
,,,,178154,001,2023-09-28_16h36.02.141,fluency,2022.2.5,MacIntel,30.02101471,,,,,,,,,,,,,,,,,,,,,,,7,7,img/B07_07.jpg,GCNB,Press J if the face is GENDER-CONFORMING and K if the face is NONBINARY,Gender-conforming means that the face appears to be a typical example of its gender. Nonbinary means that the face does not conform to any particular gender norms.,JK,,,,,,,,,,,,,,,,,,,,,,,,,,,,,,,,5,0.7721,,,,,,,,,,,,,,0,12,12,73,1,,,,,,,,,,,,,space,3.0717,,,,,,,,
,,,,178154,001,2023-09-28_16h36.02.141,fluency,2022.2.5,MacIntel,30.02101471,,,,,,,,,,,,,,,,,,,,,,,9,2,img/B02_09.jpg,GCNB,Press J if the face is GENDER-CONFORMING and K if the face is NONBINARY,Gender-conforming means that the face appears to be a typical example of its gender. Nonbinary means that the face does not conform to any particular gender norms.,JK,,,,,,,,,,,,,,,,,,,,,,,,,,,,,,,,,,,,,,,,,,,,,,712.6088,0,13,13,20,1,109,0,0,0,0,1,98,,,,,,,,,,,,,,,
,,,,178154,001,2023-09-28_16h36.02.141,fluency,2022.2.5,MacIntel,30.02101471,,,,,,,,,,,,,,,,,,,,,,,,,,,,,,,,,,,,,,,,,,,,,,,,,,,,,,,,,,,,,,,,,,,,,,,,,,,,,,,,,,0,0,0,0,1,,"[""j""]",[2.183999999999969],1,"[""j""]",[2.1838999999985163],,,,,,,,,,
,,,,178154,001,2023-09-28_16h36.02.141,fluency,2022.2.5,MacIntel,30.02101471,,,,,,,,,,,,,,,,,,,,,,,9,2,img/B02_09.jpg,GCNB,Press J if the face is GENDER-CONFORMING and K if the face is NONBINARY,Gender-conforming means that the face appears to be a typical example of its gender. Nonbinary means that the face does not conform to any particular gender norms.,JK,,,,,,,,,,,,,,,,,,,,,,,,,,,,,,,,4,0.932,,,,,,,,,,,,,,0,13,13,20,1,,,,,,,,,,,,,space,2.5638,,,,,,,,
,,,,178154,001,2023-09-28_16h36.02.141,fluency,2022.2.5,MacIntel,30.02101471,,,,,,,,,,,,,,,,,,,,,,,6,5,img/B05_06.jpg,GCNB,Press J if the face is GENDER-CONFORMING and K if the face is NONBINARY,Gender-conforming means that the face appears to be a typical example of its gender. Nonbinary means that the face does not conform to any particular gender norms.,JK,,,,,,,,,,,,,,,,,,,,,,,,,,,,,,,,,,,,,,,,,,,,,,720.2018,0,14,14,50,1,109,0,0,0,0,1,98,,,,,,,,,,,,,,,
,,,,178154,001,2023-09-28_16h36.02.141,fluency,2022.2.5,MacIntel,30.02101471,,,,,,,,,,,,,,,,,,,,,,,,,,,,,,,,,,,,,,,,,,,,,,,,,,,,,,,,,,,,,,,,,,,,,,,,,,,,,,,,,,0,0,0,0,1,,"[""k""]",[1.1842000000029884],1,"[""k""]",[1.1842000000029884],,,,,,,,,,
,,,,178154,001,2023-09-28_16h36.02.141,fluency,2022.2.5,MacIntel,30.02101471,,,,,,,,,,,,,,,,,,,,,,,6,5,img/B05_06.jpg,GCNB,Press J if the face is GENDER-CONFORMING and K if the face is NONBINARY,Gender-conforming means that the face appears to be a typical example of its gender. Nonbinary means that the face does not conform to any particular gender norms.,JK,,,,,,,,,,,,,,,,,,,,,,,,,,,,,,,,3,0.5711,,,,,,,,,,,,,,0,14,14,50,1,,,,,,,,,,,,,space,5.2347,,,,,,,,
,,,,178154,001,2023-09-28_16h36.02.141,fluency,2022.2.5,MacIntel,30.02101471,,,,,,,,,,,,,,,,,,,,,,,10,6,img/B06_10.jpg,GCNB,Press J if the face is GENDER-CONFORMING and K if the face is NONBINARY,Gender-conforming means that the face appears to be a typical example of its gender. Nonbinary means that the face does not conform to any particular gender norms.,JK,,,,,,,,,,,,,,,,,,,,,,,,,,,,,,,,,,,,,,,,,,,,,,730.1127,0,15,15,65,1,109,0,0,0,0,1,98,,,,,,,,,,,,,,,
,,,,178154,001,2023-09-28_16h36.02.141,fluency,2022.2.5,MacIntel,30.02101471,,,,,,,,,,,,,,,,,,,,,,,,,,,,,,,,,,,,,,,,,,,,,,,,,,,,,,,,,,,,,,,,,,,,,,,,,,,,,,,,,,0,0,0,0,1,,"[""j""]",[2.241899999998509],1,"[""j""]",[2.241999999999962],,,,,,,,,,
,,,,178154,001,2023-09-28_16h36.02.141,fluency,2022.2.5,MacIntel,30.02101471,,,,,,,,,,,,,,,,,,,,,,,10,6,img/B06_10.jpg,GCNB,Press J if the face is GENDER-CONFORMING and K if the face is NONBINARY,Gender-conforming means that the face appears to be a typical example of its gender. Nonbinary means that the face does not conform to any particular gender norms.,JK,,,,,,,,,,,,,,,,,,,,,,,,,,,,,,,,4,1.1945,,,,,,,,,,,,,,0,15,15,65,1,,,,,,,,,,,,,space,4.3734,,,,,,,,
,,,,178154,001,2023-09-28_16h36.02.141,fluency,2022.2.5,MacIntel,30.02101471,,,,,,,,,,,,,,,,,,,,,,,3,1,img/B01_03.jpg,GCNB,Press J if the face is GENDER-CONFORMING and K if the face is NONBINARY,Gender-conforming means that the face appears to be a typical example of its gender. Nonbinary means that the face does not conform to any particular gender norms.,JK,,,,,,,,,,,,,,,,,,,,,,,,,,,,,,,,,,,,,,,,,,,,,,740.7895,0,16,16,3,1,109,0,0,0,0,1,98,,,,,,,,,,,,,,,
,,,,178154,001,2023-09-28_16h36.02.141,fluency,2022.2.5,MacIntel,30.02101471,,,,,,,,,,,,,,,,,,,,,,,,,,,,,,,,,,,,,,,,,,,,,,,,,,,,,,,,,,,,,,,,,,,,,,,,,,,,,,,,,,0,0,0,0,1,,"[""j""]",[2.6257999999970707],1,"[""j""]",[2.6258999999985235],,,,,,,,,,
,,,,178154,001,2023-09-28_16h36.02.141,fluency,2022.2.5,MacIntel,30.02101471,,,,,,,,,,,,,,,,,,,,,,,3,1,img/B01_03.jpg,GCNB,Press J if the face is GENDER-CONFORMING and K if the face is NONBINARY,Gender-conforming means that the face appears to be a typical example of its gender. Nonbinary means that the face does not conform to any particular gender norms.,JK,,,,,,,,,,,,,,,,,,,,,,,,,,,,,,,,1,1.1286,,,,,,,,,,,,,,0,16,16,3,1,,,,,,,,,,,,,space,6.7458,,,,,,,,
,,,,178154,001,2023-09-28_16h36.02.141,fluency,2022.2.5,MacIntel,30.02101471,,,,,,,,,,,,,,,,,,,,,,,5,8,img/B08_05.jpg,GCNB,Press J if the face is GENDER-CONFORMING and K if the face is NONBINARY,Gender-conforming means that the face appears to be a typical example of its gender. Nonbinary means that the face does not conform to any particular gender norms.,JK,,,,,,,,,,,,,,,,,,,,,,,,,,,,,,,,,,,,,,,,,,,,,,752.768,0,17,17,82,1,109,0,0,0,0,1,98,,,,,,,,,,,,,,,
,,,,178154,001,2023-09-28_16h36.02.141,fluency,2022.2.5,MacIntel,30.02101471,,,,,,,,,,,,,,,,,,,,,,,,,,,,,,,,,,,,,,,,,,,,,,,,,,,,,,,,,,,,,,,,,,,,,,,,,,,,,,,,,,0,0,0,0,1,,"[""k""]",[1.3000000000000682],1,"[""k""]",[1.2998999999985017],,,,,,,,,,
,,,,178154,001,2023-09-28_16h36.02.141,fluency,2022.2.5,MacIntel,30.02101471,,,,,,,,,,,,,,,,,,,,,,,5,8,img/B08_05.jpg,GCNB,Press J if the face is GENDER-CONFORMING and K if the face is NONBINARY,Gender-conforming means that the face appears to be a typical example of its gender. Nonbinary means that the face does not conform to any particular gender norms.,JK,,,,,,,,,,,,,,,,,,,,,,,,,,,,,,,,3,0.9402,,,,,,,,,,,,,,0,17,17,82,1,,,,,,,,,,,,,space,7.9663,,,,,,,,
,,,,178154,001,2023-09-28_16h36.02.141,fluency,2022.2.5,MacIntel,30.02101471,,,,,,,,,,,,,,,,,,,,,,,3,5,img/B05_03.jpg,GCNB,Press J if the face is GENDER-CONFORMING and K if the face is NONBINARY,Gender-conforming means that the face appears to be a typical example of its gender. Nonbinary means that the face does not conform to any particular gender norms.,JK,,,,,,,,,,,,,,,,,,,,,,,,,,,,,,,,,,,,,,,,,,,,,,766.7739,0,18,18,47,1,109,0,0,0,0,1,98,,,,,,,,,,,,,,,
,,,,178154,001,2023-09-28_16h36.02.141,fluency,2022.2.5,MacIntel,30.02101471,,,,,,,,,,,,,,,,,,,,,,,,,,,,,,,,,,,,,,,,,,,,,,,,,,,,,,,,,,,,,,,,,,,,,,,,,,,,,,,,,,0,0,0,0,1,,"[""k""]",[2.37039999999854],1,"[""k""]",[2.370299999997087],,,,,,,,,,
,,,,178154,001,2023-09-28_16h36.02.141,fluency,2022.2.5,MacIntel,30.02101471,,,,,,,,,,,,,,,,,,,,,,,3,5,img/B05_03.jpg,GCNB,Press J if the face is GENDER-CONFORMING and K if the face is NONBINARY,Gender-conforming means that the face appears to be a typical example of its gender. Nonbinary means that the face does not conform to any particular gender norms.,JK,,,,,,,,,,,,,,,,,,,,,,,,,,,,,,,,3,0.8101,,,,,,,,,,,,,,0,18,18,47,1,,,,,,,,,,,,,space,3.6517,,,,,,,,
,,,,178154,001,2023-09-28_16h36.02.141,fluency,2022.2.5,MacIntel,30.02101471,,,,,,,,,,,,,,,,,,,,,,,1,8,img/B08_01.jpg,GCNB,Press J if the face is GENDER-CONFORMING and K if the face is NONBINARY,Gender-conforming means that the face appears to be a typical example of its gender. Nonbinary means that the face does not conform to any particular gender norms.,JK,,,,,,,,,,,,,,,,,,,,,,,,,,,,,,,,,,,,,,,,,,,,,,776.3341,0,19,19,78,1,109,0,0,0,0,1,98,,,,,,,,,,,,,,,
,,,,178154,001,2023-09-28_16h36.02.141,fluency,2022.2.5,MacIntel,30.02101471,,,,,,,,,,,,,,,,,,,,,,,,,,,,,,,,,,,,,,,,,,,,,,,,,,,,,,,,,,,,,,,,,,,,,,,,,,,,,,,,,,0,0,0,0,1,,"[""j""]",[1.9191000000015492],1,"[""j"",""3""]","[1.9191000000015492,2.884200000003034]",,,,,,,,,,
,,,,178154,001,2023-09-28_16h36.02.141,fluency,2022.2.5,MacIntel,30.02101471,,,,,,,,,,,,,,,,,,,,,,,1,8,img/B08_01.jpg,GCNB,Press J if the face is GENDER-CONFORMING and K if the face is NONBINARY,Gender-conforming means that the face appears to be a typical example of its gender. Nonbinary means that the face does not conform to any particular gender norms.,JK,,,,,,,,,,,,,,,,,,,,,,,,,,,,,,,,3,1.72,,,,,,,,,,,,,,0,19,19,78,1,,,,,,,,,,,,,space,0.6848,,,,,,,,
,,,,178154,001,2023-09-28_16h36.02.141,fluency,2022.2.5,MacIntel,30.02101471,,,,,,,,,,,,,,,,,,,,,,,9,7,img/B07_09.jpg,GCNB,Press J if the face is GENDER-CONFORMING and K if the face is NONBINARY,Gender-conforming means that the face appears to be a typical example of its gender. Nonbinary means that the face does not conform to any particular gender norms.,JK,,,,,,,,,,,,,,,,,,,,,,,,,,,,,,,,,,,,,,,,,,,,,,783.8443,0,20,20,75,1,109,0,0,0,0,1,98,,,,,,,,,,,,,,,
,,,,178154,001,2023-09-28_16h36.02.141,fluency,2022.2.5,MacIntel,30.02101471,,,,,,,,,,,,,,,,,,,,,,,,,,,,,,,,,,,,,,,,,,,,,,,,,,,,,,,,,,,,,,,,,,,,,,,,,,,,,,,,,,0,0,0,0,1,,"[""j""]",[1.9560000000000173],1,"[""j""]",[1.9560000000000173],,,,,,,,,,
,,,,178154,001,2023-09-28_16h36.02.141,fluency,2022.2.5,MacIntel,30.02101471,,,,,,,,,,,,,,,,,,,,,,,9,7,img/B07_09.jpg,GCNB,Press J if the face is GENDER-CONFORMING and K if the face is NONBINARY,Gender-conforming means that the face appears to be a typical example of its gender. Nonbinary means that the face does not conform to any particular gender norms.,JK,,,,,,,,,,,,,,,,,,,,,,,,,,,,,,,,5,1.6243,,,,,,,,,,,,,,0,20,20,75,1,,,,,,,,,,,,,space,0.9518,,,,,,,,
,,,,178154,001,2023-09-28_16h36.02.141,fluency,2022.2.5,MacIntel,30.02101471,,,,,,,,,,,,,,,,,,,,,,,3,8,img/B08_03.jpg,GCNB,Press J if the face is GENDER-CONFORMING and K if the face is NONBINARY,Gender-conforming means that the face appears to be a typical example of its gender. Nonbinary means that the face does not conform to any particular gender norms.,JK,,,,,,,,,,,,,,,,,,,,,,,,,,,,,,,,,,,,,,,,,,,,,,791.5226,0,21,21,80,1,109,0,0,0,0,1,98,,,,,,,,,,,,,,,
,,,,178154,001,2023-09-28_16h36.02.141,fluency,2022.2.5,MacIntel,30.02101471,,,,,,,,,,,,,,,,,,,,,,,,,,,,,,,,,,,,,,,,,,,,,,,,,,,,,,,,,,,,,,,,,,,,,,,,,,,,,,,,,,,,,,,,,,2,,,,,space,1.2054,0,0,0,0,1,
,,,,178154,001,2023-09-28_16h36.02.141,fluency,2022.2.5,MacIntel,30.02101471,,,,,,,,,,,,,,,,,,,,,,,,,,,,,,,,,,,,,,,,,,,,,,,,,,,,,,,,,,,,,,,,,,,,,,,,,,,,,,,,,,0,0,0,0,1,,,,,,,,,,,,,,,,
,,,,178154,001,2023-09-28_16h36.02.141,fluency,2022.2.5,MacIntel,30.02101471,,,,,,,,,,,,,,,,,,,,,,,3,8,img/B08_03.jpg,GCNB,Press J if the face is GENDER-CONFORMING and K if the face is NONBINARY,Gender-conforming means that the face appears to be a typical example of its gender. Nonbinary means that the face does not conform to any particular gender norms.,JK,,,,,,,,,,,,,,,,,,,,,,,,,,,,,,,,,,,,,,,,,,,,,,796.7367,0,21,21,80,1,109,1,0,1,0,1,98,,,,,,,,,,,,,,,
,,,,178154,001,2023-09-28_16h36.02.141,fluency,2022.2.5,MacIntel,30.02101471,,,,,,,,,,,,,,,,,,,,,,,,,,,,,,,,,,,,,,,,,,,,,,,,,,,,,,,,,,,,,,,,,,,,,,,,,,,,,,,,,,1,0,1,0,1,,"[""j""]",[1.1252999999969688],2,"[""j"",""3""]","[1.1253999999984217,1.384999999999991]",,,,,,,,,,
,,,,178154,001,2023-09-28_16h36.02.141,fluency,2022.2.5,MacIntel,30.02101471,,,,,,,,,,,,,,,,,,,,,,,3,8,img/B08_03.jpg,GCNB,Press J if the face is GENDER-CONFORMING and K if the face is NONBINARY,Gender-conforming means that the face appears to be a typical example of its gender. Nonbinary means that the face does not conform to any particular gender norms.,JK,,,,,,,,,,,,,,,,,,,,,,,,,,,,,,,,3,0.7378,,,,,,,,,,,,,,0,21,21,80,1,,,,,,,,,,,,,space,5.2848,,,,,,,,
,,,,178154,001,2023-09-28_16h36.02.141,fluency,2022.2.5,MacIntel,30.02101471,,,,,,,,,,,,,,,,,,,,,,,2,8,img/B08_02.jpg,GCNB,Press J if the face is GENDER-CONFORMING and K if the face is NONBINARY,Gender-conforming means that the face appears to be a typical example of its gender. Nonbinary means that the face does not conform to any particular gender norms.,JK,,,,,,,,,,,,,,,,,,,,,,,,,,,,,,,,,,,,,,,,,,,,,,807.864,0,22,22,79,1,109,0,0,0,0,1,98,,,,,,,,,,,,,,,
,,,,178154,001,2023-09-28_16h36.02.141,fluency,2022.2.5,MacIntel,30.02101471,,,,,,,,,,,,,,,,,,,,,,,,,,,,,,,,,,,,,,,,,,,,,,,,,,,,,,,,,,,,,,,,,,,,,,,,,,,,,,,,,,0,0,0,0,1,,"[""j""]",[1.9678000000044449],2,"[""j""]",[1.9678000000044449],,,,,,,,,,
,,,,178154,001,2023-09-28_16h36.02.141,fluency,2022.2.5,MacIntel,30.02101471,,,,,,,,,,,,,,,,,,,,,,,2,8,img/B08_02.jpg,GCNB,Press J if the face is GENDER-CONFORMING and K if the face is NONBINARY,Gender-conforming means that the face appears to be a typical example of its gender. Nonbinary means that the face does not conform to any particular gender norms.,JK,,,,,,,,,,,,,,,,,,,,,,,,,,,,,,,,3,0.9057,,,,,,,,,,,,,,0,22,22,79,1,,,,,,,,,,,,,space,12.0507,,,,,,,,
,,,,178154,001,2023-09-28_16h36.02.141,fluency,2022.2.5,MacIntel,30.02101471,,,,,,,,,,,,,,,,,,,,,,,6,3,img/B03_06.jpg,GCNB,Press J if the face is GENDER-CONFORMING and K if the face is NONBINARY,Gender-conforming means that the face appears to be a typical example of its gender. Nonbinary means that the face does not conform to any particular gender norms.,JK,,,,,,,,,,,,,,,,,,,,,,,,,,,,,,,,,,,,,,,,,,,,,,824.9507,0,23,23,28,1,109,0,0,0,0,1,98,,,,,,,,,,,,,,,
,,,,178154,001,2023-09-28_16h36.02.141,fluency,2022.2.5,MacIntel,30.02101471,,,,,,,,,,,,,,,,,,,,,,,,,,,,,,,,,,,,,,,,,,,,,,,,,,,,,,,,,,,,,,,,,,,,,,,,,,,,,,,,,,0,0,0,0,1,,"[""k""]",[1.1178000000044221],2,"[""k""]",[1.1176000000015165],,,,,,,,,,
,,,,178154,001,2023-09-28_16h36.02.141,fluency,2022.2.5,MacIntel,30.02101471,,,,,,,,,,,,,,,,,,,,,,,6,3,img/B03_06.jpg,GCNB,Press J if the face is GENDER-CONFORMING and K if the face is NONBINARY,Gender-conforming means that the face appears to be a typical example of its gender. Nonbinary means that the face does not conform to any particular gender norms.,JK,,,,,,,,,,,,,,,,,,,,,,,,,,,,,,,,5,1.0877,,,,,,,,,,,,,,0,23,23,28,1,,,,,,,,,,,,,space,1.5818,,,,,,,,
,,,,178154,001,2023-09-28_16h36.02.141,fluency,2022.2.5,MacIntel,30.02101471,,,,,,,,,,,,,,,,,,,,,,,3,6,img/B06_03.jpg,GCNB,Press J if the face is GENDER-CONFORMING and K if the face is NONBINARY,Gender-conforming means that the face appears to be a typical example of its gender. Nonbinary means that the face does not conform to any particular gender norms.,JK,,,,,,,,,,,,,,,,,,,,,,,,,,,,,,,,,,,,,,,,,,,,,,832.7292,0,24,24,58,1,109,0,0,0,0,1,98,,,,,,,,,,,,,,,
,,,,178154,001,2023-09-28_16h36.02.141,fluency,2022.2.5,MacIntel,30.02101471,,,,,,,,,,,,,,,,,,,,,,,,,,,,,,,,,,,,,,,,,,,,,,,,,,,,,,,,,,,,,,,,,,,,,,,,,,,,,,,,,,0,0,0,0,1,,"[""j""]",[2.3023999999984426],2,"[""j""]",[2.3023999999985563],,,,,,,,,,
,,,,178154,001,2023-09-28_16h36.02.141,fluency,2022.2.5,MacIntel,30.02101471,,,,,,,,,,,,,,,,,,,,,,,3,6,img/B06_03.jpg,GCNB,Press J if the face is GENDER-CONFORMING and K if the face is NONBINARY,Gender-conforming means that the face appears to be a typical example of its gender. Nonbinary means that the face does not conform to any particular gender norms.,JK,,,,,,,,,,,,,,,,,,,,,,,,,,,,,,,,4,0.4736,,,,,,,,,,,,,,0,24,24,58,1,,,,,,,,,,,,,space,4.439,,,,,,,,
,,,,178154,001,2023-09-28_16h36.02.141,fluency,2022.2.5,MacIntel,30.02101471,,,,,,,,,,,,,,,,,,,,,,,6,4,img/B04_06.jpg,GCNB,Press J if the face is GENDER-CONFORMING and K if the face is NONBINARY,Gender-conforming means that the face appears to be a typical example of its gender. Nonbinary means that the face does not conform to any particular gender norms.,JK,,,,,,,,,,,,,,,,,,,,,,,,,,,,,,,,,,,,,,,,,,,,,,842.8415,0,25,25,39,1,109,0,0,0,0,1,98,,,,,,,,,,,,,,,
,,,,178154,001,2023-09-28_16h36.02.141,fluency,2022.2.5,MacIntel,30.02101471,,,,,,,,,,,,,,,,,,,,,,,,,,,,,,,,,,,,,,,,,,,,,,,,,,,,,,,,,,,,,,,,,,,,,,,,,,,,,,,,,,0,0,0,0,1,,"[""k""]",[0.9331000000015592],2,"[""k""]",[0.9331000000014456],,,,,,,,,,
,,,,178154,001,2023-09-28_16h36.02.141,fluency,2022.2.5,MacIntel,30.02101471,,,,,,,,,,,,,,,,,,,,,,,6,4,img/B04_06.jpg,GCNB,Press J if the face is GENDER-CONFORMING and K if the face is NONBINARY,Gender-conforming means that the face appears to be a typical example of its gender. Nonbinary means that the face does not conform to any particular gender norms.,JK,,,,,,,,,,,,,,,,,,,,,,,,,,,,,,,,4,0.1921,,,,,,,,,,,,,,0,25,25,39,1,,,,,,,,,,,,,space,1.4757,,,,,,,,
,,,,178154,001,2023-09-28_16h36.02.141,fluency,2022.2.5,MacIntel,30.02101471,,,,,,,,,,,,,,,,,,,,,,,6,7,img/B07_06.jpg,GCNB,Press J if the face is GENDER-CONFORMING and K if the face is NONBINARY,Gender-conforming means that the face appears to be a typical example of its gender. Nonbinary means that the face does not conform to any particular gender norms.,JK,,,,,,,,,,,,,,,,,,,,,,,,,,,,,,,,,,,,,,,,,,,,,,848.6513,0,26,26,72,1,109,0,0,0,0,1,98,,,,,,,,,,,,,,,
,,,,178154,001,2023-09-28_16h36.02.141,fluency,2022.2.5,MacIntel,30.02101471,,,,,,,,,,,,,,,,,,,,,,,,,,,,,,,,,,,,,,,,,,,,,,,,,,,,,,,,,,,,,,,,,,,,,,,,,,,,,,,,,,,,,,,,,,3,,,,,space,0.9314,0,0,0,0,1,
,,,,178154,001,2023-09-28_16h36.02.141,fluency,2022.2.5,MacIntel,30.02101471,,,,,,,,,,,,,,,,,,,,,,,,,,,,,,,,,,,,,,,,,,,,,,,,,,,,,,,,,,,,,,,,,,,,,,,,,,,,,,,,,,0,0,0,0,1,,,,,,,,,,,,,,,,
,,,,178154,001,2023-09-28_16h36.02.141,fluency,2022.2.5,MacIntel,30.02101471,,,,,,,,,,,,,,,,,,,,,,,6,7,img/B07_06.jpg,GCNB,Press J if the face is GENDER-CONFORMING and K if the face is NONBINARY,Gender-conforming means that the face appears to be a typical example of its gender. Nonbinary means that the face does not conform to any particular gender norms.,JK,,,,,,,,,,,,,,,,,,,,,,,,,,,,,,,,,,,,,,,,,,,,,,854.6144,0,26,26,72,1,109,1,0,1,0,1,98,,,,,,,,,,,,,,,
,,,,178154,001,2023-09-28_16h36.02.141,fluency,2022.2.5,MacIntel,30.02101471,,,,,,,,,,,,,,,,,,,,,,,,,,,,,,,,,,,,,,,,,,,,,,,,,,,,,,,,,,,,,,,,,,,,,,,,,,,,,,,,,,1,0,1,0,1,,"[""k""]",[0.3843000000044867],3,"[""k"",""4""]","[0.3842000000029202,1.4608999999984462]",,,,,,,,,,
,,,,178154,001,2023-09-28_16h36.02.141,fluency,2022.2.5,MacIntel,30.02101471,,,,,,,,,,,,,,,,,,,,,,,6,7,img/B07_06.jpg,GCNB,Press J if the face is GENDER-CONFORMING and K if the face is NONBINARY,Gender-conforming means that the face appears to be a typical example of its gender. Nonbinary means that the face does not conform to any particular gender norms.,JK,,,,,,,,,,,,,,,,,,,,,,,,,,,,,,,,4,0.4765,,,,,,,,,,,,,,0,26,26,72,1,,,,,,,,,,,,,space,2.9659,,,,,,,,
,,,,178154,001,2023-09-28_16h36.02.141,fluency,2022.2.5,MacIntel,30.02101471,,,,,,,,,,,,,,,,,,,,,,,7,2,img/B02_07.jpg,GCNB,Press J if the face is GENDER-CONFORMING and K if the face is NONBINARY,Gender-conforming means that the face appears to be a typical example of its gender. Nonbinary means that the face does not conform to any particular gender norms.,JK,,,,,,,,,,,,,,,,,,,,,,,,,,,,,,,,,,,,,,,,,,,,,,862.1607,0,27,27,18,1,109,0,0,0,0,1,98,,,,,,,,,,,,,,,
,,,,178154,001,2023-09-28_16h36.02.141,fluency,2022.2.5,MacIntel,30.02101471,,,,,,,,,,,,,,,,,,,,,,,,,,,,,,,,,,,,,,,,,,,,,,,,,,,,,,,,,,,,,,,,,,,,,,,,,,,,,,,,,,0,0,0,0,1,,"[""j""]",[1.3327000000028875],3,"[""j""]",[1.3327000000030012],,,,,,,,,,
,,,,178154,001,2023-09-28_16h36.02.141,fluency,2022.2.5,MacIntel,30.02101471,,,,,,,,,,,,,,,,,,,,,,,7,2,img/B02_07.jpg,GCNB,Press J if the face is GENDER-CONFORMING and K if the face is NONBINARY,Gender-conforming means that the face appears to be a typical example of its gender. Nonbinary means that the face does not conform to any particular gender norms.,JK,,,,,,,,,,,,,,,,,,,,,,,,,,,,,,,,5,0.1145,,,,,,,,,,,,,,0,27,27,18,1,,,,,,,,,,,,,space,2.0678,,,,,,,,
,,,,178154,001,2023-09-28_16h36.02.141,fluency,2022.2.5,MacIntel,30.02101471,,,,,,,,,,,,,,,,,,,,,,,3,3,img/B03_03.jpg,GCNB,Press J if the face is GENDER-CONFORMING and K if the face is NONBINARY,Gender-conforming means that the face appears to be a typical example of its gender. Nonbinary means that the face does not conform to any particular gender norms.,JK,,,,,,,,,,,,,,,,,,,,,,,,,,,,,,,,,,,,,,,,,,,,,,869.4383,0,28,28,25,1,109,0,0,0,0,1,98,,,,,,,,,,,,,,,
,,,,178154,001,2023-09-28_16h36.02.141,fluency,2022.2.5,MacIntel,30.02101471,,,,,,,,,,,,,,,,,,,,,,,,,,,,,,,,,,,,,,,,,,,,,,,,,,,,,,,,,,,,,,,,,,,,,,,,,,,,,,,,,,,,,,,,,,4,,,,,space,1.0331,0,0,0,0,1,
,,,,178154,001,2023-09-28_16h36.02.141,fluency,2022.2.5,MacIntel,30.02101471,,,,,,,,,,,,,,,,,,,,,,,,,,,,,,,,,,,,,,,,,,,,,,,,,,,,,,,,,,,,,,,,,,,,,,,,,,,,,,,,,,0,0,0,0,1,,,,,,,,,,,,,,,,
,,,,178154,001,2023-09-28_16h36.02.141,fluency,2022.2.5,MacIntel,30.02101471,,,,,,,,,,,,,,,,,,,,,,,3,3,img/B03_03.jpg,GCNB,Press J if the face is GENDER-CONFORMING and K if the face is NONBINARY,Gender-conforming means that the face appears to be a typical example of its gender. Nonbinary means that the face does not conform to any particular gender norms.,JK,,,,,,,,,,,,,,,,,,,,,,,,,,,,,,,,,,,,,,,,,,,,,,875.5011,0,28,28,25,1,109,1,0,1,0,1,98,,,,,,,,,,,,,,,
,,,,178154,001,2023-09-28_16h36.02.141,fluency,2022.2.5,MacIntel,30.02101471,,,,,,,,,,,,,,,,,,,,,,,,,,,,,,,,,,,,,,,,,,,,,,,,,,,,,,,,,,,,,,,,,,,,,,,,,,,,,,,,,,1,0,1,0,1,,"[""j""]",[0.2837999999969725],4,"[""j"",""6""]","[0.28379999999708616,2.5993999999985817]",,,,,,,,,,
,,,,178154,001,2023-09-28_16h36.02.141,fluency,2022.2.5,MacIntel,30.02101471,,,,,,,,,,,,,,,,,,,,,,,3,3,img/B03_03.jpg,GCNB,Press J if the face is GENDER-CONFORMING and K if the face is NONBINARY,Gender-conforming means that the face appears to be a typical example of its gender. Nonbinary means that the face does not conform to any particular gender norms.,JK,,,,,,,,,,,,,,,,,,,,,,,,,,,,,,,,6,0.6789,,,,,,,,,,,,,,0,28,28,25,1,,,,,,,,,,,,,space,1.2497,,,,,,,,
,,,,178154,001,2023-09-28_16h36.02.141,fluency,2022.2.5,MacIntel,30.02101471,,,,,,,,,,,,,,,,,,,,,,,7,4,img/B04_07.jpg,GCNB,Press J if the face is GENDER-CONFORMING and K if the face is NONBINARY,Gender-conforming means that the face appears to be a typical example of its gender. Nonbinary means that the face does not conform to any particular gender norms.,JK,,,,,,,,,,,,,,,,,,,,,,,,,,,,,,,,,,,,,,,,,,,,,,881.5293,0,29,29,40,1,109,0,0,0,0,1,98,,,,,,,,,,,,,,,
,,,,178154,001,2023-09-28_16h36.02.141,fluency,2022.2.5,MacIntel,30.02101471,,,,,,,,,,,,,,,,,,,,,,,,,,,,,,,,,,,,,,,,,,,,,,,,,,,,,,,,,,,,,,,,,,,,,,,,,,,,,,,,,,0,0,0,0,1,,"[""k""]",[1.153400000005945],4,"[""k"",""4""]","[1.153400000005945,2.7453000000044767]",,,,,,,,,,
,,,,178154,001,2023-09-28_16h36.02.141,fluency,2022.2.5,MacIntel,30.02101471,,,,,,,,,,,,,,,,,,,,,,,7,4,img/B04_07.jpg,GCNB,Press J if the face is GENDER-CONFORMING and K if the face is NONBINARY,Gender-conforming means that the face appears to be a typical example of its gender. Nonbinary means that the face does not conform to any particular gender norms.,JK,,,,,,,,,,,,,,,,,,,,,,,,,,,,,,,,4,0.326,,,,,,,,,,,,,,0,29,29,40,1,,,,,,,,,,,,,space,0.8344,,,,,,,,
,,,,178154,001,2023-09-28_16h36.02.141,fluency,2022.2.5,MacIntel,30.02101471,,,,,,,,,,,,,,,,,,,,,,,9,6,img/B06_09.jpg,GCNB,Press J if the face is GENDER-CONFORMING and K if the face is NONBINARY,Gender-conforming means that the face appears to be a typical example of its gender. Nonbinary means that the face does not conform to any particular gender norms.,JK,,,,,,,,,,,,,,,,,,,,,,,,,,,,,,,,,,,,,,,,,,,,,,886.7809,0,30,30,64,1,109,0,0,0,0,1,98,,,,,,,,,,,,,,,
,,,,178154,001,2023-09-28_16h36.02.141,fluency,2022.2.5,MacIntel,30.02101471,,,,,,,,,,,,,,,,,,,,,,,,,,,,,,,,,,,,,,,,,,,,,,,,,,,,,,,,,,,,,,,,,,,,,,,,,,,,,,,,,,0,0,0,0,1,,"[""j""]",[1.1023999999985108],4,"[""j""]",[1.1021999999956051],,,,,,,,,,
,,,,178154,001,2023-09-28_16h36.02.141,fluency,2022.2.5,MacIntel,30.02101471,,,,,,,,,,,,,,,,,,,,,,,9,6,img/B06_09.jpg,GCNB,Press J if the face is GENDER-CONFORMING and K if the face is NONBINARY,Gender-conforming means that the face appears to be a typical example of its gender. Nonbinary means that the face does not conform to any particular gender norms.,JK,,,,,,,,,,,,,,,,,,,,,,,,,,,,,,,,5,0.4046,,,,,,,,,,,,,,0,30,30,64,1,,,,,,,,,,,,,space,5.2661,,,,,,,,
,,,,178154,001,2023-09-28_16h36.02.141,fluency,2022.2.5,MacIntel,30.02101471,,,,,,,,,,,,,,,,,,,,,,,10,9,img/B09_10.jpg,GCNB,Press J if the face is GENDER-CONFORMING and K if the face is NONBINARY,Gender-conforming means that the face appears to be a typical example of its gender. Nonbinary means that the face does not conform to any particular gender norms.,JK,,,,,,,,,,,,,,,,,,,,,,,,,,,,,,,,,,,,,,,,,,,,,,896.5531,0,31,31,98,1,109,0,0,0,0,1,98,,,,,,,,,,,,,,,
,,,,178154,001,2023-09-28_16h36.02.141,fluency,2022.2.5,MacIntel,30.02101471,,,,,,,,,,,,,,,,,,,,,,,,,,,,,,,,,,,,,,,,,,,,,,,,,,,,,,,,,,,,,,,,,,,,,,,,,,,,,,,,,,0,0,0,0,1,,"[""j""]",[1.8413999999985435],4,"[""j"",""1""]","[1.8412999999970907,2.9583999999985053]",,,,,,,,,,
,,,,178154,001,2023-09-28_16h36.02.141,fluency,2022.2.5,MacIntel,30.02101471,,,,,,,,,,,,,,,,,,,,,,,10,9,img/B09_10.jpg,GCNB,Press J if the face is GENDER-CONFORMING and K if the face is NONBINARY,Gender-conforming means that the face appears to be a typical example of its gender. Nonbinary means that the face does not conform to any particular gender norms.,JK,,,,,,,,,,,,,,,,,,,,,,,,,,,,,,,,1,0.4447,,,,,,,,,,,,,,0,31,31,98,1,,,,,,,,,,,,,space,6.8565,,,,,,,,
,,,,178154,001,2023-09-28_16h36.02.141,fluency,2022.2.5,MacIntel,30.02101471,,,,,,,,,,,,,,,,,,,,,,,9,10,img/B10_09.jpg,GCNB,Press J if the face is GENDER-CONFORMING and K if the face is NONBINARY,Gender-conforming means that the face appears to be a typical example of its gender. Nonbinary means that the face does not conform to any particular gender norms.,JK,,,,,,,,,,,,,,,,,,,,,,,,,,,,,,,,,,,,,,,,,,,,,,908.2141,0,32,32,108,1,109,0,0,0,0,1,98,,,,,,,,,,,,,,,
,,,,178154,001,2023-09-28_16h36.02.141,fluency,2022.2.5,MacIntel,30.02101471,,,,,,,,,,,,,,,,,,,,,,,,,,,,,,,,,,,,,,,,,,,,,,,,,,,,,,,,,,,,,,,,,,,,,,,,,,,,,,,,,,0,0,0,0,1,,"[""j""]",[1.1055000000000064],4,"[""j""]",[1.1055000000000064],,,,,,,,,,
,,,,178154,001,2023-09-28_16h36.02.141,fluency,2022.2.5,MacIntel,30.02101471,,,,,,,,,,,,,,,,,,,,,,,9,10,img/B10_09.jpg,GCNB,Press J if the face is GENDER-CONFORMING and K if the face is NONBINARY,Gender-conforming means that the face appears to be a typical example of its gender. Nonbinary means that the face does not conform to any particular gender norms.,JK,,,,,,,,,,,,,,,,,,,,,,,,,,,,,,,,3,0.3518,,,,,,,,,,,,,,0,32,32,108,1,,,,,,,,,,,,,space,298.6353,,,,,,,,
,,,,178154,001,2023-09-28_16h36.02.141,fluency,2022.2.5,MacIntel,30.02101471,,,,,,,,,,,,,,,,,,,,,,,9,1,img/B01_09.jpg,GCNB,Press J if the face is GENDER-CONFORMING and K if the face is NONBINARY,Gender-conforming means that the face appears to be a typical example of its gender. Nonbinary means that the face does not conform to any particular gender norms.,JK,,,,,,,,,,,,,,,,,,,,,,,,,,,,,,,,,,,,,,,,,,,,,,1212.3105,0,33,33,9,1,109,0,0,0,0,1,98,,,,,,,,,,,,,,,
,,,,178154,001,2023-09-28_16h36.02.141,fluency,2022.2.5,MacIntel,30.02101471,,,,,,,,,,,,,,,,,,,,,,,,,,,,,,,,,,,,,,,,,,,,,,,,,,,,,,,,,,,,,,,,,,,,,,,,,,,,,,,,,,0,0,0,0,1,,"[""k""]",[1.2478000000044176],4,"[""k""]",[1.2477999999971416],,,,,,,,,,
,,,,178154,001,2023-09-28_16h36.02.141,fluency,2022.2.5,MacIntel,30.02101471,,,,,,,,,,,,,,,,,,,,,,,9,1,img/B01_09.jpg,GCNB,Press J if the face is GENDER-CONFORMING and K if the face is NONBINARY,Gender-conforming means that the face appears to be a typical example of its gender. Nonbinary means that the face does not conform to any particular gender norms.,JK,,,,,,,,,,,,,,,,,,,,,,,,,,,,,,,,5,1.2676,,,,,,,,,,,,,,0,33,33,9,1,,,,,,,,,,,,,space,2.8187,,,,,,,,
,,,,178154,001,2023-09-28_16h36.02.141,fluency,2022.2.5,MacIntel,30.02101471,,,,,,,,,,,,,,,,,,,,,,,2,5,img/B05_02.jpg,GCNB,Press J if the face is GENDER-CONFORMING and K if the face is NONBINARY,Gender-conforming means that the face appears to be a typical example of its gender. Nonbinary means that the face does not conform to any particular gender norms.,JK,,,,,,,,,,,,,,,,,,,,,,,,,,,,,,,,,,,,,,,,,,,,,,1220.5062,0,34,34,46,1,109,0,0,0,0,1,98,,,,,,,,,,,,,,,
,,,,178154,001,2023-09-28_16h36.02.141,fluency,2022.2.5,MacIntel,30.02101471,,,,,,,,,,,,,,,,,,,,,,,,,,,,,,,,,,,,,,,,,,,,,,,,,,,,,,,,,,,,,,,,,,,,,,,,,,,,,,,,,,0,0,0,0,1,,"[""k""]",[0.7203000000044995],4,"[""k""]",[0.7202000000029329],,,,,,,,,,
,,,,178154,001,2023-09-28_16h36.02.141,fluency,2022.2.5,MacIntel,30.02101471,,,,,,,,,,,,,,,,,,,,,,,2,5,img/B05_02.jpg,GCNB,Press J if the face is GENDER-CONFORMING and K if the face is NONBINARY,Gender-conforming means that the face appears to be a typical example of its gender. Nonbinary means that the face does not conform to any particular gender norms.,JK,,,,,,,,,,,,,,,,,,,,,,,,,,,,,,,,3,0.416,,,,,,,,,,,,,,0,34,34,46,1,,,,,,,,,,,,,space,3.8466,,,,,,,,
,,,,178154,001,2023-09-28_16h36.02.141,fluency,2022.2.5,MacIntel,30.02101471,,,,,,,,,,,,,,,,,,,,,,,8,7,img/B07_08.jpg,GCNB,Press J if the face is GENDER-CONFORMING and K if the face is NONBINARY,Gender-conforming means that the face appears to be a typical example of its gender. Nonbinary means that the face does not conform to any particular gender norms.,JK,,,,,,,,,,,,,,,,,,,,,,,,,,,,,,,,,,,,,,,,,,,,,,1229.8825,0,35,35,74,1,109,0,0,0,0,1,98,,,,,,,,,,,,,,,
,,,,178154,001,2023-09-28_16h36.02.141,fluency,2022.2.5,MacIntel,30.02101471,,,,,,,,,,,,,,,,,,,,,,,,,,,,,,,,,,,,,,,,,,,,,,,,,,,,,,,,,,,,,,,,,,,,,,,,,,,,,,,,,,0,0,0,0,1,,"[""j""]",[1.7713000000046577],4,"[""j""]",[1.7713000000046577],,,,,,,,,,
,,,,178154,001,2023-09-28_16h36.02.141,fluency,2022.2.5,MacIntel,30.02101471,,,,,,,,,,,,,,,,,,,,,,,8,7,img/B07_08.jpg,GCNB,Press J if the face is GENDER-CONFORMING and K if the face is NONBINARY,Gender-conforming means that the face appears to be a typical example of its gender. Nonbinary means that the face does not conform to any particular gender norms.,JK,,,,,,,,,,,,,,,,,,,,,,,,,,,,,,,,5,1.1666,,,,,,,,,,,,,,0,35,35,74,1,,,,,,,,,,,,,space,14.3951,,,,,,,,
,,,,178154,001,2023-09-28_16h36.02.141,fluency,2022.2.5,MacIntel,30.02101471,,,,,,,,,,,,,,,,,,,,,,,0,2,img/B02_00.jpg,GCNB,Press J if the face is GENDER-CONFORMING and K if the face is NONBINARY,Gender-conforming means that the face appears to be a typical example of its gender. Nonbinary means that the face does not conform to any particular gender norms.,JK,,,,,,,,,,,,,,,,,,,,,,,,,,,,,,,,,,,,,,,,,,,,,,1249.5519,0,36,36,11,1,109,0,0,0,0,1,98,,,,,,,,,,,,,,,
,,,,178154,001,2023-09-28_16h36.02.141,fluency,2022.2.5,MacIntel,30.02101471,,,,,,,,,,,,,,,,,,,,,,,,,,,,,,,,,,,,,,,,,,,,,,,,,,,,,,,,,,,,,,,,,,,,,,,,,,,,,,,,,,0,0,0,0,1,,"[""j""]",[1.1394999999999982],4,"[""j""]",[1.1394999999999982],,,,,,,,,,
,,,,178154,001,2023-09-28_16h36.02.141,fluency,2022.2.5,MacIntel,30.02101471,,,,,,,,,,,,,,,,,,,,,,,0,2,img/B02_00.jpg,GCNB,Press J if the face is GENDER-CONFORMING and K if the face is NONBINARY,Gender-conforming means that the face appears to be a typical example of its gender. Nonbinary means that the face does not conform to any particular gender norms.,JK,,,,,,,,,,,,,,,,,,,,,,,,,,,,,,,,1,0.9548,,,,,,,,,,,,,,0,36,36,11,1,,,,,,,,,,,,,space,1.5157,,,,,,,,
,,,,178154,001,2023-09-28_16h36.02.141,fluency,2022.2.5,MacIntel,30.02101471,,,,,,,,,,,,,,,,,,,,,,,4,9,img/B09_04.jpg,GCNB,Press J if the face is GENDER-CONFORMING and K if the face is NONBINARY,Gender-conforming means that the face appears to be a typical example of its gender. Nonbinary means that the face does not conform to any particular gender norms.,JK,,,,,,,,,,,,,,,,,,,,,,,,,,,,,,,,,,,,,,,,,,,,,,1256.1144,0,37,37,92,1,109,0,0,0,0,1,98,,,,,,,,,,,,,,,
,,,,178154,001,2023-09-28_16h36.02.141,fluency,2022.2.5,MacIntel,30.02101471,,,,,,,,,,,,,,,,,,,,,,,,,,,,,,,,,,,,,,,,,,,,,,,,,,,,,,,,,,,,,,,,,,,,,,,,,,,,,,,,,,0,0,0,0,1,,"[""k""]",[1.0016999999954805],4,"[""k""]",[1.001599999993914],,,,,,,,,,
,,,,178154,001,2023-09-28_16h36.02.141,fluency,2022.2.5,MacIntel,30.02101471,,,,,,,,,,,,,,,,,,,,,,,4,9,img/B09_04.jpg,GCNB,Press J if the face is GENDER-CONFORMING and K if the face is NONBINARY,Gender-conforming means that the face appears to be a typical example of its gender. Nonbinary means that the face does not conform to any particular gender norms.,JK,,,,,,,,,,,,,,,,,,,,,,,,,,,,,,,,3,2.4187,,,,,,,,,,,,,,0,37,37,92,1,,,,,,,,,,,,,space,21.1562,,,,,,,,
,,,,178154,001,2023-09-28_16h36.02.141,fluency,2022.2.5,MacIntel,30.02101471,,,,,,,,,,,,,,,,,,,,,,,10,8,img/B08_10.jpg,GCNB,Press J if the face is GENDER-CONFORMING and K if the face is NONBINARY,Gender-conforming means that the face appears to be a typical example of its gender. Nonbinary means that the face does not conform to any particular gender norms.,JK,,,,,,,,,,,,,,,,,,,,,,,,,,,,,,,,,,,,,,,,,,,,,,1283.797,0,38,38,87,1,109,0,0,0,0,1,98,,,,,,,,,,,,,,,
,,,,178154,001,2023-09-28_16h36.02.141,fluency,2022.2.5,MacIntel,30.02101471,,,,,,,,,,,,,,,,,,,,,,,,,,,,,,,,,,,,,,,,,,,,,,,,,,,,,,,,,,,,,,,,,,,,,,,,,,,,,,,,,,0,0,0,0,1,,"[""j""]",[1.017399999998588],4,"[""j""]",[1.0172999999970216],,,,,,,,,,
,,,,178154,001,2023-09-28_16h36.02.141,fluency,2022.2.5,MacIntel,30.02101471,,,,,,,,,,,,,,,,,,,,,,,10,8,img/B08_10.jpg,GCNB,Press J if the face is GENDER-CONFORMING and K if the face is NONBINARY,Gender-conforming means that the face appears to be a typical example of its gender. Nonbinary means that the face does not conform to any particular gender norms.,JK,,,,,,,,,,,,,,,,,,,,,,,,,,,,,,,,2,2.8379,,,,,,,,,,,,,,0,38,38,87,1,,,,,,,,,,,,,space,2.2505,,,,,,,,
,,,,178154,001,2023-09-28_16h36.02.141,fluency,2022.2.5,MacIntel,30.02101471,,,,,,,,,,,,,,,,,,,,,,,3,10,img/B10_03.jpg,GCNB,Press J if the face is GENDER-CONFORMING and K if the face is NONBINARY,Gender-conforming means that the face appears to be a typical example of its gender. Nonbinary means that the face does not conform to any particular gender norms.,JK,,,,,,,,,,,,,,,,,,,,,,,,,,,,,,,,,,,,,,,,,,,,,,1293.9889,0,39,39,102,1,109,0,0,0,0,1,98,,,,,,,,,,,,,,,
,,,,178154,001,2023-09-28_16h36.02.141,fluency,2022.2.5,MacIntel,30.02101471,,,,,,,,,,,,,,,,,,,,,,,,,,,,,,,,,,,,,,,,,,,,,,,,,,,,,,,,,,,,,,,,,,,,,,,,,,,,,,,,,,,,,,,,,,5,,,,,space,1.4043,0,0,0,0,1,
,,,,178154,001,2023-09-28_16h36.02.141,fluency,2022.2.5,MacIntel,30.02101471,,,,,,,,,,,,,,,,,,,,,,,,,,,,,,,,,,,,,,,,,,,,,,,,,,,,,,,,,,,,,,,,,,,,,,,,,,,,,,,,,,0,0,0,0,1,,,,,,,,,,,,,,,,
,,,,178154,001,2023-09-28_16h36.02.141,fluency,2022.2.5,MacIntel,30.02101471,,,,,,,,,,,,,,,,,,,,,,,3,10,img/B10_03.jpg,GCNB,Press J if the face is GENDER-CONFORMING and K if the face is NONBINARY,Gender-conforming means that the face appears to be a typical example of its gender. Nonbinary means that the face does not conform to any particular gender norms.,JK,,,,,,,,,,,,,,,,,,,,,,,,,,,,,,,,,,,,,,,,,,,,,,1300.4192,0,39,39,102,1,109,1,0,1,0,1,98,,,,,,,,,,,,,,,
,,,,178154,001,2023-09-28_16h36.02.141,fluency,2022.2.5,MacIntel,30.02101471,,,,,,,,,,,,,,,,,,,,,,,,,,,,,,,,,,,,,,,,,,,,,,,,,,,,,,,,,,,,,,,,,,,,,,,,,,,,,,,,,,1,0,1,0,1,,"[""j""]",[0.6843999999985044],5,"[""j""]",[0.6843999999985044],,,,,,,,,,
,,,,178154,001,2023-09-28_16h36.02.141,fluency,2022.2.5,MacIntel,30.02101471,,,,,,,,,,,,,,,,,,,,,,,3,10,img/B10_03.jpg,GCNB,Press J if the face is GENDER-CONFORMING and K if the face is NONBINARY,Gender-conforming means that the face appears to be a typical example of its gender. Nonbinary means that the face does not conform to any particular gender norms.,JK,,,,,,,,,,,,,,,,,,,,,,,,,,,,,,,,5,0.8206,,,,,,,,,,,,,,0,39,39,102,1,,,,,,,,,,,,,space,1.2188,,,,,,,,
,,,,178154,001,2023-09-28_16h36.02.141,fluency,2022.2.5,MacIntel,30.02101471,,,,,,,,,,,,,,,,,,,,,,,10,7,img/B07_10.jpg,GCNB,Press J if the face is GENDER-CONFORMING and K if the face is NONBINARY,Gender-conforming means that the face appears to be a typical example of its gender. Nonbinary means that the face does not conform to any particular gender norms.,JK,,,,,,,,,,,,,,,,,,,,,,,,,,,,,,,,,,,,,,,,,,,,,,1306.5667,0,40,40,76,1,109,0,0,0,0,1,98,,,,,,,,,,,,,,,
,,,,178154,001,2023-09-28_16h36.02.141,fluency,2022.2.5,MacIntel,30.02101471,,,,,,,,,,,,,,,,,,,,,,,,,,,,,,,,,,,,,,,,,,,,,,,,,,,,,,,,,,,,,,,,,,,,,,,,,,,,,,,,,,0,0,0,0,1,,"[""j""]",[0.8752000000029057],5,"[""j""]",[0.8752000000029057],,,,,,,,,,
,,,,178154,001,2023-09-28_16h36.02.141,fluency,2022.2.5,MacIntel,30.02101471,,,,,,,,,,,,,,,,,,,,,,,10,7,img/B07_10.jpg,GCNB,Press J if the face is GENDER-CONFORMING and K if the face is NONBINARY,Gender-conforming means that the face appears to be a typical example of its gender. Nonbinary means that the face does not conform to any particular gender norms.,JK,,,,,,,,,,,,,,,,,,,,,,,,,,,,,,,,6,0.3841,,,,,,,,,,,,,,0,40,40,76,1,,,,,,,,,,,,,space,2.6341,,,,,,,,
,,,,178154,001,2023-09-28_16h36.02.141,fluency,2022.2.5,MacIntel,30.02101471,,,,,,,,,,,,,,,,,,,,,,,7,3,img/B03_07.jpg,GCNB,Press J if the face is GENDER-CONFORMING and K if the face is NONBINARY,Gender-conforming means that the face appears to be a typical example of its gender. Nonbinary means that the face does not conform to any particular gender norms.,JK,,,,,,,,,,,,,,,,,,,,,,,,,,,,,,,,,,,,,,,,,,,,,,1314.6923,0,41,41,29,1,109,0,0,0,0,1,98,,,,,,,,,,,,,,,
,,,,178154,001,2023-09-28_16h36.02.141,fluency,2022.2.5,MacIntel,30.02101471,,,,,,,,,,,,,,,,,,,,,,,,,,,,,,,,,,,,,,,,,,,,,,,,,,,,,,,,,,,,,,,,,,,,,,,,,,,,,,,,,,0,0,0,0,1,,"[""j""]",[1.0428999999985535],5,"[""j""]",[1.0428999999985535],,,,,,,,,,
,,,,178154,001,2023-09-28_16h36.02.141,fluency,2022.2.5,MacIntel,30.02101471,,,,,,,,,,,,,,,,,,,,,,,7,3,img/B03_07.jpg,GCNB,Press J if the face is GENDER-CONFORMING and K if the face is NONBINARY,Gender-conforming means that the face appears to be a typical example of its gender. Nonbinary means that the face does not conform to any particular gender norms.,JK,,,,,,,,,,,,,,,,,,,,,,,,,,,,,,,,7,0.49,,,,,,,,,,,,,,0,41,41,29,1,,,,,,,,,,,,,space,14.2477,,,,,,,,
,,,,178154,001,2023-09-28_16h36.02.141,fluency,2022.2.5,MacIntel,30.02101471,,,,,,,,,,,,,,,,,,,,,,,8,2,img/B02_08.jpg,GCNB,Press J if the face is GENDER-CONFORMING and K if the face is NONBINARY,Gender-conforming means that the face appears to be a typical example of its gender. Nonbinary means that the face does not conform to any particular gender norms.,JK,,,,,,,,,,,,,,,,,,,,,,,,,,,,,,,,,,,,,,,,,,,,,,1334.5287,0,42,42,19,1,109,0,0,0,0,1,98,,,,,,,,,,,,,,,
,,,,178154,001,2023-09-28_16h36.02.141,fluency,2022.2.5,MacIntel,30.02101471,,,,,,,,,,,,,,,,,,,,,,,,,,,,,,,,,,,,,,,,,,,,,,,,,,,,,,,,,,,,,,,,,,,,,,,,,,,,,,,,,,0,0,0,0,1,,"[""j""]",[0.7908999999986008],5,"[""j""]",[0.7908999999986008],,,,,,,,,,
,,,,178154,001,2023-09-28_16h36.02.141,fluency,2022.2.5,MacIntel,30.02101471,,,,,,,,,,,,,,,,,,,,,,,8,2,img/B02_08.jpg,GCNB,Press J if the face is GENDER-CONFORMING and K if the face is NONBINARY,Gender-conforming means that the face appears to be a typical example of its gender. Nonbinary means that the face does not conform to any particular gender norms.,JK,,,,,,,,,,,,,,,,,,,,,,,,,,,,,,,,4,0.4831,,,,,,,,,,,,,,0,42,42,19,1,,,,,,,,,,,,,space,5.3707,,,,,,,,
,,,,178154,001,2023-09-28_16h36.02.141,fluency,2022.2.5,MacIntel,30.02101471,,,,,,,,,,,,,,,,,,,,,,,6,6,img/B06_06.jpg,GCNB,Press J if the face is GENDER-CONFORMING and K if the face is NONBINARY,Gender-conforming means that the face appears to be a typical example of its gender. Nonbinary means that the face does not conform to any particular gender norms.,JK,,,,,,,,,,,,,,,,,,,,,,,,,,,,,,,,,,,,,,,,,,,,,,1344.4722,0,43,43,61,1,109,0,0,0,0,1,98,,,,,,,,,,,,,,,
,,,,178154,001,2023-09-28_16h36.02.141,fluency,2022.2.5,MacIntel,30.02101471,,,,,,,,,,,,,,,,,,,,,,,,,,,,,,,,,,,,,,,,,,,,,,,,,,,,,,,,,,,,,,,,,,,,,,,,,,,,,,,,,,0,0,0,0,1,,"[""j""]",[1.8616000000015447],5,"[""j""]",[1.8616999999956079],,,,,,,,,,
,,,,178154,001,2023-09-28_16h36.02.141,fluency,2022.2.5,MacIntel,30.02101471,,,,,,,,,,,,,,,,,,,,,,,6,6,img/B06_06.jpg,GCNB,Press J if the face is GENDER-CONFORMING and K if the face is NONBINARY,Gender-conforming means that the face appears to be a typical example of its gender. Nonbinary means that the face does not conform to any particular gender norms.,JK,,,,,,,,,,,,,,,,,,,,,,,,,,,,,,,,3,0.7055,,,,,,,,,,,,,,0,43,43,61,1,,,,,,,,,,,,,space,2.5206,,,,,,,,
,,,,178154,001,2023-09-28_16h36.02.141,fluency,2022.2.5,MacIntel,30.02101471,,,,,,,,,,,,,,,,,,,,,,,1,4,img/B04_01.jpg,GCNB,Press J if the face is GENDER-CONFORMING and K if the face is NONBINARY,Gender-conforming means that the face appears to be a typical example of its gender. Nonbinary means that the face does not conform to any particular gender norms.,JK,,,,,,,,,,,,,,,,,,,,,,,,,,,,,,,,,,,,,,,,,,,,,,1352.8004,0,44,44,34,1,109,0,0,0,0,1,98,,,,,,,,,,,,,,,
,,,,178154,001,2023-09-28_16h36.02.141,fluency,2022.2.5,MacIntel,30.02101471,,,,,,,,,,,,,,,,,,,,,,,,,,,,,,,,,,,,,,,,,,,,,,,,,,,,,,,,,,,,,,,,,,,,,,,,,,,,,,,,,,0,0,0,0,1,,"[""j""]",[2.037700000003042],5,"[""j""]",[2.037700000003042],,,,,,,,,,
,,,,178154,001,2023-09-28_16h36.02.141,fluency,2022.2.5,MacIntel,30.02101471,,,,,,,,,,,,,,,,,,,,,,,1,4,img/B04_01.jpg,GCNB,Press J if the face is GENDER-CONFORMING and K if the face is NONBINARY,Gender-conforming means that the face appears to be a typical example of its gender. Nonbinary means that the face does not conform to any particular gender norms.,JK,,,,,,,,,,,,,,,,,,,,,,,,,,,,,,,,6,1.0919,,,,,,,,,,,,,,0,44,44,34,1,,,,,,,,,,,,,space,2.2499,,,,,,,,
,,,,178154,001,2023-09-28_16h36.02.141,fluency,2022.2.5,MacIntel,30.02101471,,,,,,,,,,,,,,,,,,,,,,,1,1,img/B01_01.jpg,GCNB,Press J if the face is GENDER-CONFORMING and K if the face is NONBINARY,Gender-conforming means that the face appears to be a typical example of its gender. Nonbinary means that the face does not conform to any particular gender norms.,JK,,,,,,,,,,,,,,,,,,,,,,,,,,,,,,,,,,,,,,,,,,,,,,1361.2454,0,45,45,1,1,109,0,0,0,0,1,98,,,,,,,,,,,,,,,
,,,,178154,001,2023-09-28_16h36.02.141,fluency,2022.2.5,MacIntel,30.02101471,,,,,,,,,,,,,,,,,,,,,,,,,,,,,,,,,,,,,,,,,,,,,,,,,,,,,,,,,,,,,,,,,,,,,,,,,,,,,,,,,,0,0,0,0,1,,"[""j""]",[2.6146000000014737],5,"[""j""]",[2.6145000000001346],,,,,,,,,,
,,,,178154,001,2023-09-28_16h36.02.141,fluency,2022.2.5,MacIntel,30.02101471,,,,,,,,,,,,,,,,,,,,,,,1,1,img/B01_01.jpg,GCNB,Press J if the face is GENDER-CONFORMING and K if the face is NONBINARY,Gender-conforming means that the face appears to be a typical example of its gender. Nonbinary means that the face does not conform to any particular gender norms.,JK,,,,,,,,,,,,,,,,,,,,,,,,,,,,,,,,2,0.6585,,,,,,,,,,,,,,0,45,45,1,1,,,,,,,,,,,,,space,0.6599,,,,,,,,
,,,,178154,001,2023-09-28_16h36.02.141,fluency,2022.2.5,MacIntel,30.02101471,,,,,,,,,,,,,,,,,,,,,,,10,4,img/B04_10.jpg,GCNB,Press J if the face is GENDER-CONFORMING and K if the face is NONBINARY,Gender-conforming means that the face appears to be a typical example of its gender. Nonbinary means that the face does not conform to any particular gender norms.,JK,,,,,,,,,,,,,,,,,,,,,,,,,,,,,,,,,,,,,,,,,,,,,,1366.6589,0,46,46,43,1,109,0,0,0,0,1,98,,,,,,,,,,,,,,,
,,,,178154,001,2023-09-28_16h36.02.141,fluency,2022.2.5,MacIntel,30.02101471,,,,,,,,,,,,,,,,,,,,,,,,,,,,,,,,,,,,,,,,,,,,,,,,,,,,,,,,,,,,,,,,,,,,,,,,,,,,,,,,,,0,0,0,0,1,,"[""k""]",[1.500600000001441],5,"[""k""]",[1.5004999999998745],,,,,,,,,,
,,,,178154,001,2023-09-28_16h36.02.141,fluency,2022.2.5,MacIntel,30.02101471,,,,,,,,,,,,,,,,,,,,,,,10,4,img/B04_10.jpg,GCNB,Press J if the face is GENDER-CONFORMING and K if the face is NONBINARY,Gender-conforming means that the face appears to be a typical example of its gender. Nonbinary means that the face does not conform to any particular gender norms.,JK,,,,,,,,,,,,,,,,,,,,,,,,,,,,,,,,4,0.6413,,,,,,,,,,,,,,0,46,46,43,1,,,,,,,,,,,,,space,0.9015,,,,,,,,
,,,,178154,001,2023-09-28_16h36.02.141,fluency,2022.2.5,MacIntel,30.02101471,,,,,,,,,,,,,,,,,,,,,,,1,10,img/B10_01.jpg,GCNB,Press J if the face is GENDER-CONFORMING and K if the face is NONBINARY,Gender-conforming means that the face appears to be a typical example of its gender. Nonbinary means that the face does not conform to any particular gender norms.,JK,,,,,,,,,,,,,,,,,,,,,,,,,,,,,,,,,,,,,,,,,,,,,,1372.3039,0,47,47,100,1,109,0,0,0,0,1,98,,,,,,,,,,,,,,,
,,,,178154,001,2023-09-28_16h36.02.141,fluency,2022.2.5,MacIntel,30.02101471,,,,,,,,,,,,,,,,,,,,,,,,,,,,,,,,,,,,,,,,,,,,,,,,,,,,,,,,,,,,,,,,,,,,,,,,,,,,,,,,,,0,0,0,0,1,,"[""j""]",[0.8018999999985681],5,"[""j""]",[0.8017999999970016],,,,,,,,,,
,,,,178154,001,2023-09-28_16h36.02.141,fluency,2022.2.5,MacIntel,30.02101471,,,,,,,,,,,,,,,,,,,,,,,1,10,img/B10_01.jpg,GCNB,Press J if the face is GENDER-CONFORMING and K if the face is NONBINARY,Gender-conforming means that the face appears to be a typical example of its gender. Nonbinary means that the face does not conform to any particular gender norms.,JK,,,,,,,,,,,,,,,,,,,,,,,,,,,,,,,,6,0.4753,,,,,,,,,,,,,,0,47,47,100,1,,,,,,,,,,,,,space,0.5551,,,,,,,,
,,,,178154,001,2023-09-28_16h36.02.141,fluency,2022.2.5,MacIntel,30.02101471,,,,,,,,,,,,,,,,,,,,,,,0,4,img/B04_00.jpg,GCNB,Press J if the face is GENDER-CONFORMING and K if the face is NONBINARY,Gender-conforming means that the face appears to be a typical example of its gender. Nonbinary means that the face does not conform to any particular gender norms.,JK,,,,,,,,,,,,,,,,,,,,,,,,,,,,,,,,,,,,,,,,,,,,,,1377.434,0,48,48,33,1,109,0,0,0,0,1,98,,,,,,,,,,,,,,,
,,,,178154,001,2023-09-28_16h36.02.141,fluency,2022.2.5,MacIntel,30.02101471,,,,,,,,,,,,,,,,,,,,,,,,,,,,,,,,,,,,,,,,,,,,,,,,,,,,,,,,,,,,,,,,,,,,,,,,,,,,,,,,,,0,0,0,0,1,,"[""j""]",[1.040000000000191],5,"[""j""]",[1.0399999999999636],,,,,,,,,,
,,,,178154,001,2023-09-28_16h36.02.141,fluency,2022.2.5,MacIntel,30.02101471,,,,,,,,,,,,,,,,,,,,,,,0,4,img/B04_00.jpg,GCNB,Press J if the face is GENDER-CONFORMING and K if the face is NONBINARY,Gender-conforming means that the face appears to be a typical example of its gender. Nonbinary means that the face does not conform to any particular gender norms.,JK,,,,,,,,,,,,,,,,,,,,,,,,,,,,,,,,6,0.4,,,,,,,,,,,,,,0,48,48,33,1,,,,,,,,,,,,,space,0.3513,,,,,,,,
,,,,178154,001,2023-09-28_16h36.02.141,fluency,2022.2.5,MacIntel,30.02101471,,,,,,,,,,,,,,,,,,,,,,,0,8,img/B08_00.jpg,GCNB,Press J if the face is GENDER-CONFORMING and K if the face is NONBINARY,Gender-conforming means that the face appears to be a typical example of its gender. Nonbinary means that the face does not conform to any particular gender norms.,JK,,,,,,,,,,,,,,,,,,,,,,,,,,,,,,,,,,,,,,,,,,,,,,1382.2801,0,49,49,77,1,109,0,0,0,0,1,98,,,,,,,,,,,,,,,
,,,,178154,001,2023-09-28_16h36.02.141,fluency,2022.2.5,MacIntel,30.02101471,,,,,,,,,,,,,,,,,,,,,,,,,,,,,,,,,,,,,,,,,,,,,,,,,,,,,,,,,,,,,,,,,,,,,,,,,,,,,,,,,,0,0,0,0,1,,"[""j""]",[1.906500000000051],5,"[""j""]",[1.9064000000059877],,,,,,,,,,
,,,,178154,001,2023-09-28_16h36.02.141,fluency,2022.2.5,MacIntel,30.02101471,,,,,,,,,,,,,,,,,,,,,,,0,8,img/B08_00.jpg,GCNB,Press J if the face is GENDER-CONFORMING and K if the face is NONBINARY,Gender-conforming means that the face appears to be a typical example of its gender. Nonbinary means that the face does not conform to any particular gender norms.,JK,,,,,,,,,,,,,,,,,,,,,,,,,,,,,,,,3,0.3946,,,,,,,,,,,,,,0,49,49,77,1,,,,,,,,,,,,,space,0.7853,,,,,,,,
,,,,178154,001,2023-09-28_16h36.02.141,fluency,2022.2.5,MacIntel,30.02101471,,,,,,,,,,,,,,,,,,,,,,,1,7,img/B07_01.jpg,GCNB,Press J if the face is GENDER-CONFORMING and K if the face is NONBINARY,Gender-conforming means that the face appears to be a typical example of its gender. Nonbinary means that the face does not conform to any particular gender norms.,JK,,,,,,,,,,,,,,,,,,,,,,,,,,,,,,,,,,,,,,,,,,,,,,1388.5619,0,50,50,67,1,109,0,0,0,0,1,98,,,,,,,,,,,,,,,
,,,,178154,001,2023-09-28_16h36.02.141,fluency,2022.2.5,MacIntel,30.02101471,,,,,,,,,,,,,,,,,,,,,,,,,,,,,,,,,,,,,,,,,,,,,,,,,,,,,,,,,,,,,,,,,,,,,,,,,,,,,,,,,,0,0,0,0,1,,"[""j""]",[1.3029000000060478],5,"[""j""]",[1.3028999999985444],,,,,,,,,,
,,,,178154,001,2023-09-28_16h36.02.141,fluency,2022.2.5,MacIntel,30.02101471,,,,,,,,,,,,,,,,,,,,,,,1,7,img/B07_01.jpg,GCNB,Press J if the face is GENDER-CONFORMING and K if the face is NONBINARY,Gender-conforming means that the face appears to be a typical example of its gender. Nonbinary means that the face does not conform to any particular gender norms.,JK,,,,,,,,,,,,,,,,,,,,,,,,,,,,,,,,3,0.8794,,,,,,,,,,,,,,0,50,50,67,1,,,,,,,,,,,,,space,1.1912,,,,,,,,
,,,,178154,001,2023-09-28_16h36.02.141,fluency,2022.2.5,MacIntel,30.02101471,,,,,,,,,,,,,,,,,,,,,,,8,4,img/B04_08.jpg,GCNB,Press J if the face is GENDER-CONFORMING and K if the face is NONBINARY,Gender-conforming means that the face appears to be a typical example of its gender. Nonbinary means that the face does not conform to any particular gender norms.,JK,,,,,,,,,,,,,,,,,,,,,,,,,,,,,,,,,,,,,,,,,,,,,,1394.722,0,51,51,41,1,109,0,0,0,0,1,98,,,,,,,,,,,,,,,
,,,,178154,001,2023-09-28_16h36.02.141,fluency,2022.2.5,MacIntel,30.02101471,,,,,,,,,,,,,,,,,,,,,,,,,,,,,,,,,,,,,,,,,,,,,,,,,,,,,,,,,,,,,,,,,,,,,,,,,,,,,,,,,,0,0,0,0,1,,"[""k""]",[1.7422000000028675],5,"[""k""]",[1.7422000000028675],,,,,,,,,,
,,,,178154,001,2023-09-28_16h36.02.141,fluency,2022.2.5,MacIntel,30.02101471,,,,,,,,,,,,,,,,,,,,,,,8,4,img/B04_08.jpg,GCNB,Press J if the face is GENDER-CONFORMING and K if the face is NONBINARY,Gender-conforming means that the face appears to be a typical example of its gender. Nonbinary means that the face does not conform to any particular gender norms.,JK,,,,,,,,,,,,,,,,,,,,,,,,,,,,,,,,5,0.9294,,,,,,,,,,,,,,0,51,51,41,1,,,,,,,,,,,,,space,1.71,,,,,,,,
,,,,178154,001,2023-09-28_16h36.02.141,fluency,2022.2.5,MacIntel,30.02101471,,,,,,,,,,,,,,,,,,,,,,,2,2,img/B02_02.jpg,GCNB,Press J if the face is GENDER-CONFORMING and K if the face is NONBINARY,Gender-conforming means that the face appears to be a typical example of its gender. Nonbinary means that the face does not conform to any particular gender norms.,JK,,,,,,,,,,,,,,,,,,,,,,,,,,,,,,,,,,,,,,,,,,,,,,1401.4527,0,52,52,13,1,109,0,0,0,0,1,98,,,,,,,,,,,,,,,
,,,,178154,001,2023-09-28_16h36.02.141,fluency,2022.2.5,MacIntel,30.02101471,,,,,,,,,,,,,,,,,,,,,,,,,,,,,,,,,,,,,,,,,,,,,,,,,,,,,,,,,,,,,,,,,,,,,,,,,,,,,,,,,,0,0,0,0,1,,"[""j""]",[2.0496000000016465],5,"[""j""]",[2.048200000003135],,,,,,,,,,
,,,,178154,001,2023-09-28_16h36.02.141,fluency,2022.2.5,MacIntel,30.02101471,,,,,,,,,,,,,,,,,,,,,,,2,2,img/B02_02.jpg,GCNB,Press J if the face is GENDER-CONFORMING and K if the face is NONBINARY,Gender-conforming means that the face appears to be a typical example of its gender. Nonbinary means that the face does not conform to any particular gender norms.,JK,,,,,,,,,,,,,,,,,,,,,,,,,,,,,,,,4,1.2671,,,,,,,,,,,,,,0,52,52,13,1,,,,,,,,,,,,,space,2.686,,,,,,,,
,,,,178154,001,2023-09-28_16h36.02.141,fluency,2022.2.5,MacIntel,30.02101471,,,,,,,,,,,,,,,,,,,,,,,6,8,img/B08_06.jpg,GCNB,Press J if the face is GENDER-CONFORMING and K if the face is NONBINARY,Gender-conforming means that the face appears to be a typical example of its gender. Nonbinary means that the face does not conform to any particular gender norms.,JK,,,,,,,,,,,,,,,,,,,,,,,,,,,,,,,,,,,,,,,,,,,,,,1410.4831,0,53,53,83,1,109,0,0,0,0,1,98,,,,,,,,,,,,,,,
,,,,178154,001,2023-09-28_16h36.02.141,fluency,2022.2.5,MacIntel,30.02101471,,,,,,,,,,,,,,,,,,,,,,,,,,,,,,,,,,,,,,,,,,,,,,,,,,,,,,,,,,,,,,,,,,,,,,,,,,,,,,,,,,0,0,0,0,1,,"[""k""]",[1.023899999998548],5,"[""k""]",[1.023899999998548],,,,,,,,,,
,,,,178154,001,2023-09-28_16h36.02.141,fluency,2022.2.5,MacIntel,30.02101471,,,,,,,,,,,,,,,,,,,,,,,6,8,img/B08_06.jpg,GCNB,Press J if the face is GENDER-CONFORMING and K if the face is NONBINARY,Gender-conforming means that the face appears to be a typical example of its gender. Nonbinary means that the face does not conform to any particular gender norms.,JK,,,,,,,,,,,,,,,,,,,,,,,,,,,,,,,,3,0.4154,,,,,,,,,,,,,,0,53,53,83,1,,,,,,,,,,,,,space,3.2067,,,,,,,,
,,,,178154,001,2023-09-28_16h36.02.141,fluency,2022.2.5,MacIntel,30.02101471,,,,,,,,,,,,,,,,,,,,,,,5,7,img/B07_05.jpg,GCNB,Press J if the face is GENDER-CONFORMING and K if the face is NONBINARY,Gender-conforming means that the face appears to be a typical example of its gender. Nonbinary means that the face does not conform to any particular gender norms.,JK,,,,,,,,,,,,,,,,,,,,,,,,,,,,,,,,,,,,,,,,,,,,,,1419.1894,0,54,54,71,1,109,0,0,0,0,1,98,,,,,,,,,,,,,,,
,,,,178154,001,2023-09-28_16h36.02.141,fluency,2022.2.5,MacIntel,30.02101471,,,,,,,,,,,,,,,,,,,,,,,,,,,,,,,,,,,,,,,,,,,,,,,,,,,,,,,,,,,,,,,,,,,,,,,,,,,,,,,,,,0,0,0,0,1,,"[""k""]",[1.0352999999970507],5,"[""k""]",[1.0352999999970507],,,,,,,,,,
,,,,178154,001,2023-09-28_16h36.02.141,fluency,2022.2.5,MacIntel,30.02101471,,,,,,,,,,,,,,,,,,,,,,,5,7,img/B07_05.jpg,GCNB,Press J if the face is GENDER-CONFORMING and K if the face is NONBINARY,Gender-conforming means that the face appears to be a typical example of its gender. Nonbinary means that the face does not conform to any particular gender norms.,JK,,,,,,,,,,,,,,,,,,,,,,,,,,,,,,,,5,3.3111,,,,,,,,,,,,,,0,54,54,71,1,,,,,,,,,,,,,space,2.4179,,,,,,,,
,,,,178154,001,2023-09-28_16h36.02.141,fluency,2022.2.5,MacIntel,30.02101471,,,,,,,,,,,,,,,,,,,,,,,0,9,img/B09_00.jpg,GCNB,Press J if the face is GENDER-CONFORMING and K if the face is NONBINARY,Gender-conforming means that the face appears to be a typical example of its gender. Nonbinary means that the face does not conform to any particular gender norms.,JK,,,,,,,,,,,,,,,,,,,,,,,,,,,,,,,,,,,,,,,,,,,,,,1429.0179,0,55,55,88,1,109,0,0,0,0,1,98,,,,,,,,,,,,,,,
,,,,178154,001,2023-09-28_16h36.02.141,fluency,2022.2.5,MacIntel,30.02101471,,,,,,,,,,,,,,,,,,,,,,,,,,,,,,,,,,,,,,,,,,,,,,,,,,,,,,,,,,,,,,,,,,,,,,,,,,,,,,,,,,0,0,0,0,1,,"[""k""]",[0.8526000000015301],5,"[""k""]",[0.8526000000015301],,,,,,,,,,
,,,,178154,001,2023-09-28_16h36.02.141,fluency,2022.2.5,MacIntel,30.02101471,,,,,,,,,,,,,,,,,,,,,,,0,9,img/B09_00.jpg,GCNB,Press J if the face is GENDER-CONFORMING and K if the face is NONBINARY,Gender-conforming means that the face appears to be a typical example of its gender. Nonbinary means that the face does not conform to any particular gender norms.,JK,,,,,,,,,,,,,,,,,,,,,,,,,,,,,,,,4,1.8481,,,,,,,,,,,,,,0,55,55,88,1,,,,,,,,,,,,,space,1.8836,,,,,,,,
,,,,178154,001,2023-09-28_16h36.02.141,fluency,2022.2.5,MacIntel,30.02101471,,,,,,,,,,,,,,,,,,,,,,,8,1,img/B01_08.jpg,GCNB,Press J if the face is GENDER-CONFORMING and K if the face is NONBINARY,Gender-conforming means that the face appears to be a typical example of its gender. Nonbinary means that the face does not conform to any particular gender norms.,JK,,,,,,,,,,,,,,,,,,,,,,,,,,,,,,,,,,,,,,,,,,,,,,1436.8446,0,56,56,8,1,109,0,0,0,0,1,98,,,,,,,,,,,,,,,
,,,,178154,001,2023-09-28_16h36.02.141,fluency,2022.2.5,MacIntel,30.02101471,,,,,,,,,,,,,,,,,,,,,,,,,,,,,,,,,,,,,,,,,,,,,,,,,,,,,,,,,,,,,,,,,,,,,,,,,,,,,,,,,,0,0,0,0,1,,"[""k""]",[1.8215000000000146],5,"[""k""]",[1.8215000000000146],,,,,,,,,,
,,,,178154,001,2023-09-28_16h36.02.141,fluency,2022.2.5,MacIntel,30.02101471,,,,,,,,,,,,,,,,,,,,,,,8,1,img/B01_08.jpg,GCNB,Press J if the face is GENDER-CONFORMING and K if the face is NONBINARY,Gender-conforming means that the face appears to be a typical example of its gender. Nonbinary means that the face does not conform to any particular gender norms.,JK,,,,,,,,,,,,,,,,,,,,,,,,,,,,,,,,3,0.3639,,,,,,,,,,,,,,0,56,56,8,1,,,,,,,,,,,,,space,0.8697,,,,,,,,
,,,,178154,001,2023-09-28_16h36.02.141,fluency,2022.2.5,MacIntel,30.02101471,,,,,,,,,,,,,,,,,,,,,,,9,8,img/B08_09.jpg,GCNB,Press J if the face is GENDER-CONFORMING and K if the face is NONBINARY,Gender-conforming means that the face appears to be a typical example of its gender. Nonbinary means that the face does not conform to any particular gender norms.,JK,,,,,,,,,,,,,,,,,,,,,,,,,,,,,,,,,,,,,,,,,,,,,,1442.1764,0,57,57,86,1,109,0,0,0,0,1,98,,,,,,,,,,,,,,,
,,,,178154,001,2023-09-28_16h36.02.141,fluency,2022.2.5,MacIntel,30.02101471,,,,,,,,,,,,,,,,,,,,,,,,,,,,,,,,,,,,,,,,,,,,,,,,,,,,,,,,,,,,,,,,,,,,,,,,,,,,,,,,,,0,0,0,0,1,,"[""j""]",[1.7551999999955115],5,"[""j""]",[1.755099999993945],,,,,,,,,,
,,,,178154,001,2023-09-28_16h36.02.141,fluency,2022.2.5,MacIntel,30.02101471,,,,,,,,,,,,,,,,,,,,,,,9,8,img/B08_09.jpg,GCNB,Press J if the face is GENDER-CONFORMING and K if the face is NONBINARY,Gender-conforming means that the face appears to be a typical example of its gender. Nonbinary means that the face does not conform to any particular gender norms.,JK,,,,,,,,,,,,,,,,,,,,,,,,,,,,,,,,2,0.4806,,,,,,,,,,,,,,0,57,57,86,1,,,,,,,,,,,,,space,1.9184,,,,,,,,
,,,,178154,001,2023-09-28_16h36.02.141,fluency,2022.2.5,MacIntel,30.02101471,,,,,,,,,,,,,,,,,,,,,,,6,9,img/B09_06.jpg,GCNB,Press J if the face is GENDER-CONFORMING and K if the face is NONBINARY,Gender-conforming means that the face appears to be a typical example of its gender. Nonbinary means that the face does not conform to any particular gender norms.,JK,,,,,,,,,,,,,,,,,,,,,,,,,,,,,,,,,,,,,,,,,,,,,,1448.6712,0,58,58,94,1,109,0,0,0,0,1,98,,,,,,,,,,,,,,,
,,,,178154,001,2023-09-28_16h36.02.141,fluency,2022.2.5,MacIntel,30.02101471,,,,,,,,,,,,,,,,,,,,,,,,,,,,,,,,,,,,,,,,,,,,,,,,,,,,,,,,,,,,,,,,,,,,,,,,,,,,,,,,,,0,0,0,0,1,,"[""j""]",[1.899199999995517],5,"[""j""]",[1.899199999995517],,,,,,,,,,
,,,,178154,001,2023-09-28_16h36.02.141,fluency,2022.2.5,MacIntel,30.02101471,,,,,,,,,,,,,,,,,,,,,,,6,9,img/B09_06.jpg,GCNB,Press J if the face is GENDER-CONFORMING and K if the face is NONBINARY,Gender-conforming means that the face appears to be a typical example of its gender. Nonbinary means that the face does not conform to any particular gender norms.,JK,,,,,,,,,,,,,,,,,,,,,,,,,,,,,,,,5,0.1484,,,,,,,,,,,,,,0,58,58,94,1,,,,,,,,,,,,,space,0.6202,,,,,,,,
,,,,178154,001,2023-09-28_16h36.02.141,fluency,2022.2.5,MacIntel,30.02101471,,,,,,,,,,,,,,,,,,,,,,,10,3,img/B03_10.jpg,GCNB,Press J if the face is GENDER-CONFORMING and K if the face is NONBINARY,Gender-conforming means that the face appears to be a typical example of its gender. Nonbinary means that the face does not conform to any particular gender norms.,JK,,,,,,,,,,,,,,,,,,,,,,,,,,,,,,,,,,,,,,,,,,,,,,1453.5341,0,59,59,32,1,109,0,0,0,0,1,98,,,,,,,,,,,,,,,
,,,,178154,001,2023-09-28_16h36.02.141,fluency,2022.2.5,MacIntel,30.02101471,,,,,,,,,,,,,,,,,,,,,,,,,,,,,,,,,,,,,,,,,,,,,,,,,,,,,,,,,,,,,,,,,,,,,,,,,,,,,,,,,,0,0,0,0,1,,"[""j""]",[0.936699999995426],5,"[""j""]",[0.9365999999940868],,,,,,,,,,
,,,,178154,001,2023-09-28_16h36.02.141,fluency,2022.2.5,MacIntel,30.02101471,,,,,,,,,,,,,,,,,,,,,,,10,3,img/B03_10.jpg,GCNB,Press J if the face is GENDER-CONFORMING and K if the face is NONBINARY,Gender-conforming means that the face appears to be a typical example of its gender. Nonbinary means that the face does not conform to any particular gender norms.,JK,,,,,,,,,,,,,,,,,,,,,,,,,,,,,,,,7,0.4127,,,,,,,,,,,,,,0,59,59,32,1,,,,,,,,,,,,,space,0.4542,,,,,,,,
,,,,178154,001,2023-09-28_16h36.02.141,fluency,2022.2.5,MacIntel,30.02101471,,,,,,,,,,,,,,,,,,,,,,,3,7,img/B07_03.jpg,GCNB,Press J if the face is GENDER-CONFORMING and K if the face is NONBINARY,Gender-conforming means that the face appears to be a typical example of its gender. Nonbinary means that the face does not conform to any particular gender norms.,JK,,,,,,,,,,,,,,,,,,,,,,,,,,,,,,,,,,,,,,,,,,,,,,1458.4983,0,60,60,69,1,109,0,0,0,0,1,98,,,,,,,,,,,,,,,
,,,,178154,001,2023-09-28_16h36.02.141,fluency,2022.2.5,MacIntel,30.02101471,,,,,,,,,,,,,,,,,,,,,,,,,,,,,,,,,,,,,,,,,,,,,,,,,,,,,,,,,,,,,,,,,,,,,,,,,,,,,,,,,,0,0,0,0,1,,"[""j""]",[1.6562000000028547],5,"[""j""]",[1.6561999999955788],,,,,,,,,,
,,,,178154,001,2023-09-28_16h36.02.141,fluency,2022.2.5,MacIntel,30.02101471,,,,,,,,,,,,,,,,,,,,,,,3,7,img/B07_03.jpg,GCNB,Press J if the face is GENDER-CONFORMING and K if the face is NONBINARY,Gender-conforming means that the face appears to be a typical example of its gender. Nonbinary means that the face does not conform to any particular gender norms.,JK,,,,,,,,,,,,,,,,,,,,,,,,,,,,,,,,3,0.2465,,,,,,,,,,,,,,0,60,60,69,1,,,,,,,,,,,,,space,0.5581,,,,,,,,
,,,,178154,001,2023-09-28_16h36.02.141,fluency,2022.2.5,MacIntel,30.02101471,,,,,,,,,,,,,,,,,,,,,,,7,8,img/B08_07.jpg,GCNB,Press J if the face is GENDER-CONFORMING and K if the face is NONBINARY,Gender-conforming means that the face appears to be a typical example of its gender. Nonbinary means that the face does not conform to any particular gender norms.,JK,,,,,,,,,,,,,,,,,,,,,,,,,,,,,,,,,,,,,,,,,,,,,,1464.394,0,61,61,84,1,109,0,0,0,0,1,98,,,,,,,,,,,,,,,
,,,,178154,001,2023-09-28_16h36.02.141,fluency,2022.2.5,MacIntel,30.02101471,,,,,,,,,,,,,,,,,,,,,,,,,,,,,,,,,,,,,,,,,,,,,,,,,,,,,,,,,,,,,,,,,,,,,,,,,,,,,,,,,,0,0,0,0,1,,"[""j""]",[1.2761000000014064],5,"[""j""]",[1.2761000000014064],,,,,,,,,,
,,,,178154,001,2023-09-28_16h36.02.141,fluency,2022.2.5,MacIntel,30.02101471,,,,,,,,,,,,,,,,,,,,,,,7,8,img/B08_07.jpg,GCNB,Press J if the face is GENDER-CONFORMING and K if the face is NONBINARY,Gender-conforming means that the face appears to be a typical example of its gender. Nonbinary means that the face does not conform to any particular gender norms.,JK,,,,,,,,,,,,,,,,,,,,,,,,,,,,,,,,3,0.6148,,,,,,,,,,,,,,0,61,61,84,1,,,,,,,,,,,,,space,0.4343,,,,,,,,
,,,,178154,001,2023-09-28_16h36.02.141,fluency,2022.2.5,MacIntel,30.02101471,,,,,,,,,,,,,,,,,,,,,,,7,1,img/B01_07.jpg,GCNB,Press J if the face is GENDER-CONFORMING and K if the face is NONBINARY,Gender-conforming means that the face appears to be a typical example of its gender. Nonbinary means that the face does not conform to any particular gender norms.,JK,,,,,,,,,,,,,,,,,,,,,,,,,,,,,,,,,,,,,,,,,,,,,,1469.5412,0,62,62,7,1,109,0,0,0,0,1,98,,,,,,,,,,,,,,,
,,,,178154,001,2023-09-28_16h36.02.141,fluency,2022.2.5,MacIntel,30.02101471,,,,,,,,,,,,,,,,,,,,,,,,,,,,,,,,,,,,,,,,,,,,,,,,,,,,,,,,,,,,,,,,,,,,,,,,,,,,,,,,,,0,0,0,0,1,,"[""k""]",[1.6531000000013591],5,"[""k""]",[1.6531000000013591],,,,,,,,,,
,,,,178154,001,2023-09-28_16h36.02.141,fluency,2022.2.5,MacIntel,30.02101471,,,,,,,,,,,,,,,,,,,,,,,7,1,img/B01_07.jpg,GCNB,Press J if the face is GENDER-CONFORMING and K if the face is NONBINARY,Gender-conforming means that the face appears to be a typical example of its gender. Nonbinary means that the face does not conform to any particular gender norms.,JK,,,,,,,,,,,,,,,,,,,,,,,,,,,,,,,,4,0.3994,,,,,,,,,,,,,,0,62,62,7,1,,,,,,,,,,,,,space,0.4217,,,,,,,,
,,,,178154,001,2023-09-28_16h36.02.141,fluency,2022.2.5,MacIntel,30.02101471,,,,,,,,,,,,,,,,,,,,,,,0,3,img/B03_00.jpg,GCNB,Press J if the face is GENDER-CONFORMING and K if the face is NONBINARY,Gender-conforming means that the face appears to be a typical example of its gender. Nonbinary means that the face does not conform to any particular gender norms.,JK,,,,,,,,,,,,,,,,,,,,,,,,,,,,,,,,,,,,,,,,,,,,,,1474.4543,0,63,63,22,1,109,0,0,0,0,1,98,,,,,,,,,,,,,,,
,,,,178154,001,2023-09-28_16h36.02.141,fluency,2022.2.5,MacIntel,30.02101471,,,,,,,,,,,,,,,,,,,,,,,,,,,,,,,,,,,,,,,,,,,,,,,,,,,,,,,,,,,,,,,,,,,,,,,,,,,,,,,,,,0,0,0,0,1,,"[""j""]",[1.675300000004654],5,"[""j""]",[1.675300000004654],,,,,,,,,,
,,,,178154,001,2023-09-28_16h36.02.141,fluency,2022.2.5,MacIntel,30.02101471,,,,,,,,,,,,,,,,,,,,,,,0,3,img/B03_00.jpg,GCNB,Press J if the face is GENDER-CONFORMING and K if the face is NONBINARY,Gender-conforming means that the face appears to be a typical example of its gender. Nonbinary means that the face does not conform to any particular gender norms.,JK,,,,,,,,,,,,,,,,,,,,,,,,,,,,,,,,5,0.3501,,,,,,,,,,,,,,0,63,63,22,1,,,,,,,,,,,,,space,0.4141,,,,,,,,
,,,,178154,001,2023-09-28_16h36.02.141,fluency,2022.2.5,MacIntel,30.02101471,,,,,,,,,,,,,,,,,,,,,,,9,3,img/B03_09.jpg,GCNB,Press J if the face is GENDER-CONFORMING and K if the face is NONBINARY,Gender-conforming means that the face appears to be a typical example of its gender. Nonbinary means that the face does not conform to any particular gender norms.,JK,,,,,,,,,,,,,,,,,,,,,,,,,,,,,,,,,,,,,,,,,,,,,,1480.3004,0,64,64,31,1,109,0,0,0,0,1,98,,,,,,,,,,,,,,,
,,,,178154,001,2023-09-28_16h36.02.141,fluency,2022.2.5,MacIntel,30.02101471,,,,,,,,,,,,,,,,,,,,,,,,,,,,,,,,,,,,,,,,,,,,,,,,,,,,,,,,,,,,,,,,,,,,,,,,,,,,,,,,,,0,0,0,0,1,,"[""j""]",[1.372600000001512],5,"[""j""]",[1.372600000001512],,,,,,,,,,
,,,,178154,001,2023-09-28_16h36.02.141,fluency,2022.2.5,MacIntel,30.02101471,,,,,,,,,,,,,,,,,,,,,,,9,3,img/B03_09.jpg,GCNB,Press J if the face is GENDER-CONFORMING and K if the face is NONBINARY,Gender-conforming means that the face appears to be a typical example of its gender. Nonbinary means that the face does not conform to any particular gender norms.,JK,,,,,,,,,,,,,,,,,,,,,,,,,,,,,,,,7,0.3841,,,,,,,,,,,,,,0,64,64,31,1,,,,,,,,,,,,,space,0.4666,,,,,,,,
,,,,178154,001,2023-09-28_16h36.02.141,fluency,2022.2.5,MacIntel,30.02101471,,,,,,,,,,,,,,,,,,,,,,,5,6,img/B06_05.jpg,GCNB,Press J if the face is GENDER-CONFORMING and K if the face is NONBINARY,Gender-conforming means that the face appears to be a typical example of its gender. Nonbinary means that the face does not conform to any particular gender norms.,JK,,,,,,,,,,,,,,,,,,,,,,,,,,,,,,,,,,,,,,,,,,,,,,1486.2455,0,65,65,60,1,109,0,0,0,0,1,98,,,,,,,,,,,,,,,
,,,,178154,001,2023-09-28_16h36.02.141,fluency,2022.2.5,MacIntel,30.02101471,,,,,,,,,,,,,,,,,,,,,,,,,,,,,,,,,,,,,,,,,,,,,,,,,,,,,,,,,,,,,,,,,,,,,,,,,,,,,,,,,,0,0,0,0,1,,"[""k""]",[2.6900999999938904],5,"[""k""]",[2.689999999999827],,,,,,,,,,
,,,,178154,001,2023-09-28_16h36.02.141,fluency,2022.2.5,MacIntel,30.02101471,,,,,,,,,,,,,,,,,,,,,,,5,6,img/B06_05.jpg,GCNB,Press J if the face is GENDER-CONFORMING and K if the face is NONBINARY,Gender-conforming means that the face appears to be a typical example of its gender. Nonbinary means that the face does not conform to any particular gender norms.,JK,,,,,,,,,,,,,,,,,,,,,,,,,,,,,,,,5,1.0922,,,,,,,,,,,,,,0,65,65,60,1,,,,,,,,,,,,,space,0.3514,,,,,,,,
,,,,178154,001,2023-09-28_16h36.02.141,fluency,2022.2.5,MacIntel,30.02101471,,,,,,,,,,,,,,,,,,,,,,,10,10,img/B10_10.jpg,GCNB,Press J if the face is GENDER-CONFORMING and K if the face is NONBINARY,Gender-conforming means that the face appears to be a typical example of its gender. Nonbinary means that the face does not conform to any particular gender norms.,JK,,,,,,,,,,,,,,,,,,,,,,,,,,,,,,,,,,,,,,,,,,,,,,1492.7906,0,66,66,109,1,109,0,0,0,0,1,98,,,,,,,,,,,,,,,
,,,,178154,001,2023-09-28_16h36.02.141,fluency,2022.2.5,MacIntel,30.02101471,,,,,,,,,,,,,,,,,,,,,,,,,,,,,,,,,,,,,,,,,,,,,,,,,,,,,,,,,,,,,,,,,,,,,,,,,,,,,,,,,,0,0,0,0,1,,"[""j""]",[0.8193999999984953],5,"[""j""]",[0.8192999999969288],,,,,,,,,,
,,,,178154,001,2023-09-28_16h36.02.141,fluency,2022.2.5,MacIntel,30.02101471,,,,,,,,,,,,,,,,,,,,,,,10,10,img/B10_10.jpg,GCNB,Press J if the face is GENDER-CONFORMING and K if the face is NONBINARY,Gender-conforming means that the face appears to be a typical example of its gender. Nonbinary means that the face does not conform to any particular gender norms.,JK,,,,,,,,,,,,,,,,,,,,,,,,,,,,,,,,5,0.3846,,,,,,,,,,,,,,0,66,66,109,1,,,,,,,,,,,,,space,0.2866,,,,,,,,
,,,,178154,001,2023-09-28_16h36.02.141,fluency,2022.2.5,MacIntel,30.02101471,,,,,,,,,,,,,,,,,,,,,,,3,9,img/B09_03.jpg,GCNB,Press J if the face is GENDER-CONFORMING and K if the face is NONBINARY,Gender-conforming means that the face appears to be a typical example of its gender. Nonbinary means that the face does not conform to any particular gender norms.,JK,,,,,,,,,,,,,,,,,,,,,,,,,,,,,,,,,,,,,,,,,,,,,,1497.556,0,67,67,91,1,109,0,0,0,0,1,98,,,,,,,,,,,,,,,
,,,,178154,001,2023-09-28_16h36.02.141,fluency,2022.2.5,MacIntel,30.02101471,,,,,,,,,,,,,,,,,,,,,,,,,,,,,,,,,,,,,,,,,,,,,,,,,,,,,,,,,,,,,,,,,,,,,,,,,,,,,,,,,,0,0,0,0,1,,"[""j""]",[1.0857999999968797],5,"[""j""]",[1.085700000003044],,,,,,,,,,
,,,,178154,001,2023-09-28_16h36.02.141,fluency,2022.2.5,MacIntel,30.02101471,,,,,,,,,,,,,,,,,,,,,,,3,9,img/B09_03.jpg,GCNB,Press J if the face is GENDER-CONFORMING and K if the face is NONBINARY,Gender-conforming means that the face appears to be a typical example of its gender. Nonbinary means that the face does not conform to any particular gender norms.,JK,,,,,,,,,,,,,,,,,,,,,,,,,,,,,,,,3,0.6154,,,,,,,,,,,,,,0,67,67,91,1,,,,,,,,,,,,,space,0.3674,,,,,,,,
,,,,178154,001,2023-09-28_16h36.02.141,fluency,2022.2.5,MacIntel,30.02101471,,,,,,,,,,,,,,,,,,,,,,,2,4,img/B04_02.jpg,GCNB,Press J if the face is GENDER-CONFORMING and K if the face is NONBINARY,Gender-conforming means that the face appears to be a typical example of its gender. Nonbinary means that the face does not conform to any particular gender norms.,JK,,,,,,,,,,,,,,,,,,,,,,,,,,,,,,,,,,,,,,,,,,,,,,1503.6354,0,68,68,35,1,109,0,0,0,0,1,98,,,,,,,,,,,,,,,
,,,,178154,001,2023-09-28_16h36.02.141,fluency,2022.2.5,MacIntel,30.02101471,,,,,,,,,,,,,,,,,,,,,,,,,,,,,,,,,,,,,,,,,,,,,,,,,,,,,,,,,,,,,,,,,,,,,,,,,,,,,,,,,,0,0,0,0,1,,"[""j""]",[0.8287999999970452],5,"[""j""]",[0.8287999999970452],,,,,,,,,,
,,,,178154,001,2023-09-28_16h36.02.141,fluency,2022.2.5,MacIntel,30.02101471,,,,,,,,,,,,,,,,,,,,,,,2,4,img/B04_02.jpg,GCNB,Press J if the face is GENDER-CONFORMING and K if the face is NONBINARY,Gender-conforming means that the face appears to be a typical example of its gender. Nonbinary means that the face does not conform to any particular gender norms.,JK,,,,,,,,,,,,,,,,,,,,,,,,,,,,,,,,7,0.4462,,,,,,,,,,,,,,0,68,68,35,1,,,,,,,,,,,,,space,0.3699,,,,,,,,
,,,,178154,001,2023-09-28_16h36.02.141,fluency,2022.2.5,MacIntel,30.02101471,,,,,,,,,,,,,,,,,,,,,,,0,5,img/B05_00.jpg,GCNB,Press J if the face is GENDER-CONFORMING and K if the face is NONBINARY,Gender-conforming means that the face appears to be a typical example of its gender. Nonbinary means that the face does not conform to any particular gender norms.,JK,,,,,,,,,,,,,,,,,,,,,,,,,,,,,,,,,,,,,,,,,,,,,,1508.5487,0,69,69,44,1,109,0,0,0,0,1,98,,,,,,,,,,,,,,,
,,,,178154,001,2023-09-28_16h36.02.141,fluency,2022.2.5,MacIntel,30.02101471,,,,,,,,,,,,,,,,,,,,,,,,,,,,,,,,,,,,,,,,,,,,,,,,,,,,,,,,,,,,,,,,,,,,,,,,,,,,,,,,,,0,0,0,0,1,,"[""j""]",[0.9057999999970434],5,"[""j""]",[0.9057999999970434],,,,,,,,,,
,,,,178154,001,2023-09-28_16h36.02.141,fluency,2022.2.5,MacIntel,30.02101471,,,,,,,,,,,,,,,,,,,,,,,0,5,img/B05_00.jpg,GCNB,Press J if the face is GENDER-CONFORMING and K if the face is NONBINARY,Gender-conforming means that the face appears to be a typical example of its gender. Nonbinary means that the face does not conform to any particular gender norms.,JK,,,,,,,,,,,,,,,,,,,,,,,,,,,,,,,,3,0.2854,,,,,,,,,,,,,,0,69,69,44,1,,,,,,,,,,,,,space,0.4748,,,,,,,,
,,,,178154,001,2023-09-28_16h36.02.141,fluency,2022.2.5,MacIntel,30.02101471,,,,,,,,,,,,,,,,,,,,,,,4,1,img/B01_04.jpg,GCNB,Press J if the face is GENDER-CONFORMING and K if the face is NONBINARY,Gender-conforming means that the face appears to be a typical example of its gender. Nonbinary means that the face does not conform to any particular gender norms.,JK,,,,,,,,,,,,,,,,,,,,,,,,,,,,,,,,,,,,,,,,,,,,,,1514.3929,0,70,70,4,1,109,0,0,0,0,1,98,,,,,,,,,,,,,,,
,,,,178154,001,2023-09-28_16h36.02.141,fluency,2022.2.5,MacIntel,30.02101471,,,,,,,,,,,,,,,,,,,,,,,,,,,,,,,,,,,,,,,,,,,,,,,,,,,,,,,,,,,,,,,,,,,,,,,,,,,,,,,,,,0,0,0,0,1,,"[""j""]",[1.49060000000145],5,"[""j""]",[1.4906999999955133],,,,,,,,,,
,,,,178154,001,2023-09-28_16h36.02.141,fluency,2022.2.5,MacIntel,30.02101471,,,,,,,,,,,,,,,,,,,,,,,4,1,img/B01_04.jpg,GCNB,Press J if the face is GENDER-CONFORMING and K if the face is NONBINARY,Gender-conforming means that the face appears to be a typical example of its gender. Nonbinary means that the face does not conform to any particular gender norms.,JK,,,,,,,,,,,,,,,,,,,,,,,,,,,,,,,,1,0.7363,,,,,,,,,,,,,,0,70,70,4,1,,,,,,,,,,,,,space,0.7134,,,,,,,,
,,,,178154,001,2023-09-28_16h36.02.141,fluency,2022.2.5,MacIntel,30.02101471,,,,,,,,,,,,,,,,,,,,,,,9,5,img/B05_09.jpg,GCNB,Press J if the face is GENDER-CONFORMING and K if the face is NONBINARY,Gender-conforming means that the face appears to be a typical example of its gender. Nonbinary means that the face does not conform to any particular gender norms.,JK,,,,,,,,,,,,,,,,,,,,,,,,,,,,,,,,,,,,,,,,,,,,,,1519.9415,0,71,71,53,1,109,0,0,0,0,1,98,,,,,,,,,,,,,,,
,,,,178154,001,2023-09-28_16h36.02.141,fluency,2022.2.5,MacIntel,30.02101471,,,,,,,,,,,,,,,,,,,,,,,,,,,,,,,,,,,,,,,,,,,,,,,,,,,,,,,,,,,,,,,,,,,,,,,,,,,,,,,,,,0,0,0,0,1,,"[""j""]",[1.352399999998397],5,"[""j""]",[1.3523999999986245],,,,,,,,,,
,,,,178154,001,2023-09-28_16h36.02.141,fluency,2022.2.5,MacIntel,30.02101471,,,,,,,,,,,,,,,,,,,,,,,9,5,img/B05_09.jpg,GCNB,Press J if the face is GENDER-CONFORMING and K if the face is NONBINARY,Gender-conforming means that the face appears to be a typical example of its gender. Nonbinary means that the face does not conform to any particular gender norms.,JK,,,,,,,,,,,,,,,,,,,,,,,,,,,,,,,,3,0.7192,,,,,,,,,,,,,,0,71,71,53,1,,,,,,,,,,,,,space,0.341,,,,,,,,
,,,,178154,001,2023-09-28_16h36.02.141,fluency,2022.2.5,MacIntel,30.02101471,,,,,,,,,,,,,,,,,,,,,,,3,2,img/B02_03.jpg,GCNB,Press J if the face is GENDER-CONFORMING and K if the face is NONBINARY,Gender-conforming means that the face appears to be a typical example of its gender. Nonbinary means that the face does not conform to any particular gender norms.,JK,,,,,,,,,,,,,,,,,,,,,,,,,,,,,,,,,,,,,,,,,,,,,,1525.0864,0,72,72,14,1,109,0,0,0,0,1,98,,,,,,,,,,,,,,,
,,,,178154,001,2023-09-28_16h36.02.141,fluency,2022.2.5,MacIntel,30.02101471,,,,,,,,,,,,,,,,,,,,,,,,,,,,,,,,,,,,,,,,,,,,,,,,,,,,,,,,,,,,,,,,,,,,,,,,,,,,,,,,,,0,0,0,0,1,,"[""k""]",[2.374399999998559],5,"[""k""]",[2.3745000000001255],,,,,,,,,,
,,,,178154,001,2023-09-28_16h36.02.141,fluency,2022.2.5,MacIntel,30.02101471,,,,,,,,,,,,,,,,,,,,,,,3,2,img/B02_03.jpg,GCNB,Press J if the face is GENDER-CONFORMING and K if the face is NONBINARY,Gender-conforming means that the face appears to be a typical example of its gender. Nonbinary means that the face does not conform to any particular gender norms.,JK,,,,,,,,,,,,,,,,,,,,,,,,,,,,,,,,4,0.5368,,,,,,,,,,,,,,0,72,72,14,1,,,,,,,,,,,,,space,0.3516,,,,,,,,
,,,,178154,001,2023-09-28_16h36.02.141,fluency,2022.2.5,MacIntel,30.02101471,,,,,,,,,,,,,,,,,,,,,,,1,6,img/B06_01.jpg,GCNB,Press J if the face is GENDER-CONFORMING and K if the face is NONBINARY,Gender-conforming means that the face appears to be a typical example of its gender. Nonbinary means that the face does not conform to any particular gender norms.,JK,,,,,,,,,,,,,,,,,,,,,,,,,,,,,,,,,,,,,,,,,,,,,,1531.0677,0,73,73,56,1,109,0,0,0,0,1,98,,,,,,,,,,,,,,,
,,,,178154,001,2023-09-28_16h36.02.141,fluency,2022.2.5,MacIntel,30.02101471,,,,,,,,,,,,,,,,,,,,,,,,,,,,,,,,,,,,,,,,,,,,,,,,,,,,,,,,,,,,,,,,,,,,,,,,,,,,,,,,,,0,0,0,0,1,,"[""j""]",[1.2483999999983553],5,"[""j""]",[1.2484999999999218],,,,,,,,,,
,,,,178154,001,2023-09-28_16h36.02.141,fluency,2022.2.5,MacIntel,30.02101471,,,,,,,,,,,,,,,,,,,,,,,1,6,img/B06_01.jpg,GCNB,Press J if the face is GENDER-CONFORMING and K if the face is NONBINARY,Gender-conforming means that the face appears to be a typical example of its gender. Nonbinary means that the face does not conform to any particular gender norms.,JK,,,,,,,,,,,,,,,,,,,,,,,,,,,,,,,,4,0.4661,,,,,,,,,,,,,,0,73,73,56,1,,,,,,,,,,,,,space,0.2994,,,,,,,,
,,,,178154,001,2023-09-28_16h36.02.141,fluency,2022.2.5,MacIntel,30.02101471,,,,,,,,,,,,,,,,,,,,,,,10,2,img/B02_10.jpg,GCNB,Press J if the face is GENDER-CONFORMING and K if the face is NONBINARY,Gender-conforming means that the face appears to be a typical example of its gender. Nonbinary means that the face does not conform to any particular gender norms.,JK,,,,,,,,,,,,,,,,,,,,,,,,,,,,,,,,,,,,,,,,,,,,,,1535.9285,0,74,74,21,1,109,0,0,0,0,1,98,,,,,,,,,,,,,,,
,,,,178154,001,2023-09-28_16h36.02.141,fluency,2022.2.5,MacIntel,30.02101471,,,,,,,,,,,,,,,,,,,,,,,,,,,,,,,,,,,,,,,,,,,,,,,,,,,,,,,,,,,,,,,,,,,,,,,,,,,,,,,,,,0,0,0,0,1,,"[""j""]",[2.3197999999970307],5,"[""j""]",[2.3197000000029675],,,,,,,,,,
,,,,178154,001,2023-09-28_16h36.02.141,fluency,2022.2.5,MacIntel,30.02101471,,,,,,,,,,,,,,,,,,,,,,,10,2,img/B02_10.jpg,GCNB,Press J if the face is GENDER-CONFORMING and K if the face is NONBINARY,Gender-conforming means that the face appears to be a typical example of its gender. Nonbinary means that the face does not conform to any particular gender norms.,JK,,,,,,,,,,,,,,,,,,,,,,,,,,,,,,,,4,3.4453,,,,,,,,,,,,,,0,74,74,21,1,,,,,,,,,,,,,space,3.3658,,,,,,,,
,,,,178154,001,2023-09-28_16h36.02.141,fluency,2022.2.5,MacIntel,30.02101471,,,,,,,,,,,,,,,,,,,,,,,0,6,img/B06_00.jpg,GCNB,Press J if the face is GENDER-CONFORMING and K if the face is NONBINARY,Gender-conforming means that the face appears to be a typical example of its gender. Nonbinary means that the face does not conform to any particular gender norms.,JK,,,,,,,,,,,,,,,,,,,,,,,,,,,,,,,,,,,,,,,,,,,,,,1547.8392,0,75,75,55,1,109,0,0,0,0,1,98,,,,,,,,,,,,,,,
,,,,178154,001,2023-09-28_16h36.02.141,fluency,2022.2.5,MacIntel,30.02101471,,,,,,,,,,,,,,,,,,,,,,,,,,,,,,,,,,,,,,,,,,,,,,,,,,,,,,,,,,,,,,,,,,,,,,,,,,,,,,,,,,0,0,0,0,1,,"[""j""]",[0.7421999999955915],5,"[""j""]",[0.742099999994025],,,,,,,,,,
,,,,178154,001,2023-09-28_16h36.02.141,fluency,2022.2.5,MacIntel,30.02101471,,,,,,,,,,,,,,,,,,,,,,,0,6,img/B06_00.jpg,GCNB,Press J if the face is GENDER-CONFORMING and K if the face is NONBINARY,Gender-conforming means that the face appears to be a typical example of its gender. Nonbinary means that the face does not conform to any particular gender norms.,JK,,,,,,,,,,,,,,,,,,,,,,,,,,,,,,,,4,0.7659,,,,,,,,,,,,,,0,75,75,55,1,,,,,,,,,,,,,space,0.3578,,,,,,,,
,,,,178154,001,2023-09-28_16h36.02.141,fluency,2022.2.5,MacIntel,30.02101471,,,,,,,,,,,,,,,,,,,,,,,0,1,img/B01_00.jpg,GCNB,Press J if the face is GENDER-CONFORMING and K if the face is NONBINARY,Gender-conforming means that the face appears to be a typical example of its gender. Nonbinary means that the face does not conform to any particular gender norms.,JK,,,,,,,,,,,,,,,,,,,,,,,,,,,,,,,,,,,,,,,,,,,,,,1553.0524,0,76,76,0,1,109,0,0,0,0,1,98,,,,,,,,,,,,,,,
,,,,178154,001,2023-09-28_16h36.02.141,fluency,2022.2.5,MacIntel,30.02101471,,,,,,,,,,,,,,,,,,,,,,,,,,,,,,,,,,,,,,,,,,,,,,,,,,,,,,,,,,,,,,,,,,,,,,,,,,,,,,,,,,0,0,0,0,1,,"[""j""]",[1.3692999999971107],5,"[""j""]",[1.3691999999955442],,,,,,,,,,
,,,,178154,001,2023-09-28_16h36.02.141,fluency,2022.2.5,MacIntel,30.02101471,,,,,,,,,,,,,,,,,,,,,,,0,1,img/B01_00.jpg,GCNB,Press J if the face is GENDER-CONFORMING and K if the face is NONBINARY,Gender-conforming means that the face appears to be a typical example of its gender. Nonbinary means that the face does not conform to any particular gender norms.,JK,,,,,,,,,,,,,,,,,,,,,,,,,,,,,,,,2,0.3925,,,,,,,,,,,,,,0,76,76,0,1,,,,,,,,,,,,,space,7.4477,,,,,,,,
,,,,178154,001,2023-09-28_16h36.02.141,fluency,2022.2.5,MacIntel,30.02101471,,,,,,,,,,,,,,,,,,,,,,,5,9,img/B09_05.jpg,GCNB,Press J if the face is GENDER-CONFORMING and K if the face is NONBINARY,Gender-conforming means that the face appears to be a typical example of its gender. Nonbinary means that the face does not conform to any particular gender norms.,JK,,,,,,,,,,,,,,,,,,,,,,,,,,,,,,,,,,,,,,,,,,,,,,1565.9941,0,77,77,93,1,109,0,0,0,0,1,98,,,,,,,,,,,,,,,
,,,,178154,001,2023-09-28_16h36.02.141,fluency,2022.2.5,MacIntel,30.02101471,,,,,,,,,,,,,,,,,,,,,,,,,,,,,,,,,,,,,,,,,,,,,,,,,,,,,,,,,,,,,,,,,,,,,,,,,,,,,,,,,,0,0,0,0,1,,"[""k""]",[1.9495999999942342],5,"[""k""]",[1.949500000000171],,,,,,,,,,
