idTextbox.text,welcomeDone.numClicks,welcomeDone.timesOn,welcomeDone.timesOff,participant,session,date,expName,psychopyVersion,OS,frameRate,consent_advance.keys,consent_advance.rt,consent_advance_2.keys,consent_advance_2.rt,consentClick.x,consentClick.y,consentClick.leftButton,consentClick.midButton,consentClick.rightButton,consentClick.time,consentClick.clicked_name,instr_advance_3.keys,instr_advance_3.rt,spec_instr_adv.keys,spec_instr_adv.rt,spec_instr_adv2.keys,spec_instr_adv2.rt,instrLoop.thisRepN,instrLoop.thisTrialN,instrLoop.thisN,instrLoop.thisIndex,instrLoop.ran,steps,fams,face_file,cond,instr,term,key_map,attnKeyResp1.keys,attnKeyResp1.rt,q1.thisRepN,q1.thisTrialN,q1.thisN,q1.thisIndex,q1.ran,attnKeyResp2.keys,attnKeyResp2.rt,q2.thisRepN,q2.thisTrialN,q2.thisN,q2.thisIndex,q2.ran,attnKeyResp3.keys,attnKeyResp3.rt,q3.thisRepN,q3.thisTrialN,q3.thisN,q3.thisIndex,q3.ran,practiceStart.keys,practiceStart.rt,practiceResp.keys,practiceResp.rt,timesRedone,practiceRepeat.thisRepN,practiceRepeat.thisTrialN,practiceRepeat.thisN,practiceRepeat.thisIndex,practiceRepeat.ran,attrRating.keys,attrRating.rt,practiceTrial.thisRepN,practiceTrial.thisTrialN,practiceTrial.thisN,practiceTrial.thisIndex,practiceTrial.ran,key_resp_3.keys,key_resp_3.rt,attnChecker.thisRepN,attnChecker.thisTrialN,attnChecker.thisN,attnChecker.thisIndex,attnChecker.ran,faceOnsetTime,trials.thisRepN,trials.thisTrialN,trials.thisN,trials.thisIndex,trials.ran,trials.order,repeat_loop.thisRepN,repeat_loop.thisTrialN,repeat_loop.thisN,repeat_loop.thisIndex,repeat_loop.ran,repeat_loop.order,catResp.keys,catResp.rt,globalTimesRedone,catAllKeys.keys,catAllKeys.rt,contResp.keys,contResp.rt,redo_keypress.keys,redo_keypress.rt,redo_feedback_loop.thisRepN,redo_feedback_loop.thisTrialN,redo_feedback_loop.thisN,redo_feedback_loop.thisIndex,redo_feedback_loop.ran,contResp_2.keys,contResp_2.rt,respQ1.response,respQ1.rt,respQ2.response,respQ2.rt,respQ3.response,respQ3.rt,respQ4.response,respQ4.rt,surveyContinue1.numClicks,surveyContinue1.timesOn,surveyContinue1.timesOff,respQ5.response,respQ5.rt,respQ6.response,respQ6.rt,respQ7.response,respQ7.rt,respQ8.response,respQ8.rt,surveyContinue2.numClicks,surveyContinue2.timesOn,surveyContinue2.timesOff,respQ9.response,respQ9.rt,respQ10.response,respQ10.rt,respQ11.response,respQ11.rt,respQ12.response,respQ12.rt,surveyContinue3.numClicks,surveyContinue3.timesOn,surveyContinue3.timesOff,respQ13.response,respQ13.rt,respQ14.response,respQ14.rt,respQ15.response,respQ15.rt,surveyContinue4.numClicks,surveyContinue4.timesOn,surveyContinue4.timesOff,respAge.response,respAge.rt,genderResp1.response,genderResp1.rt,genderResp2.text,demogexitClick.numClicks,demogexitClick.timesOn,demogexitClick.timesOff,textbox.text,openAnswerClick.numClicks,openAnswerClick.timesOn,openAnswerClick.timesOff,debriefEnd.keys,debriefEnd.rt,exitKey.keys,exitKey.rt
650afaaa0f4ea7d481992ebb,1,[3.779399999976164],[3.779500000000013],522522,001,2023-10-09_19h54.26.334,fluency,2022.2.4,Win32,59.90176111,,,,,,,,,,,,,,,,,,,,,,,,,,,,,,,,,,,,,,,,,,,,,,,,,,,,,,,,,,,,,,,,,,,,,,,,,,,,,,,,,,,,,,,,,,,,,,,,,,,,,,,,,,,,,,,,,,,,,,,,,,,,,,,,,,,,,,,,,,,,,,,,,,,,,,,,,,,,,,,,,
,,,,522522,001,2023-10-09_19h54.26.334,fluency,2022.2.4,Win32,59.90176111,space,1.7903,,,,,,,,,,,,,,,,,,,,,,,,,,,,,,,,,,,,,,,,,,,,,,,,,,,,,,,,,,,,,,,,,,,,,,,,,,,,,,,,,,,,,,,,,,,,,,,,,,,,,,,,,,,,,,,,,,,,,,,,,,,,,,,,,,,,,,,,,,,,,,,,,,,,,,,,,,,,,,,
,,,,522522,001,2023-10-09_19h54.26.334,fluency,2022.2.4,Win32,59.90176111,,,space,28.7077,,,,,,,,,,,,,,,,,,,,,,,,,,,,,,,,,,,,,,,,,,,,,,,,,,,,,,,,,,,,,,,,,,,,,,,,,,,,,,,,,,,,,,,,,,,,,,,,,,,,,,,,,,,,,,,,,,,,,,,,,,,,,,,,,,,,,,,,,,,,,,,,,,,,,,,,,,,,,
,,,,522522,001,2023-10-09_19h54.26.334,fluency,2022.2.4,Win32,59.90176111,,,,,0.27870369,-0.354629658,1,0,0,14.5163,iAgree,,,,,,,,,,,,,,,,,,,,,,,,,,,,,,,,,,,,,,,,,,,,,,,,,,,,,,,,,,,,,,,,,,,,,,,,,,,,,,,,,,,,,,,,,,,,,,,,,,,,,,,,,,,,,,,,,,,,,,,,,,,,,,,,,,,,,,,,,,,,,,,,,,,,,,
,,,,522522,001,2023-10-09_19h54.26.334,fluency,2022.2.4,Win32,59.90176111,,,,,,,,,,,,space,9.6722,,,,,,,,,,,,,,,,,,,,,,,,,,,,,,,,,,,,,,,,,,,,,,,,,,,,,,,,,,,,,,,,,,,,,,,,,,,,,,,,,,,,,,,,,,,,,,,,,,,,,,,,,,,,,,,,,,,,,,,,,,,,,,,,,,,,,,,,,,,,,,,,,,,,
,,,,522522,001,2023-10-09_19h54.26.334,fluency,2022.2.4,Win32,59.90176111,,,,,,,,,,,,,,space,16.0542,space,4.7529,0,0,0,109,1,10,10,img/B10_10.jpg,GCNB,Press J if the face is GENDER-CONFORMING and K if the face is NONBINARY,Gender-conforming means that the face appears to be a typical example of its gender. Nonbinary means that the face does not conform to any particular gender norms.,JK,,,,,,,,,,,,,,,,,,,,,,,,,,,,,,,,,,,,,,,,,,,,,,,,,,,,,,,,,,,,,,,,,,,,,,,,,,,,,,,,,,,,,,,,,,,,,,,,,,,,,,,,,,,,,,,,,,,,,,,,,,,,,,,,,,,,
,,,,522522,001,2023-10-09_19h54.26.334,fluency,2022.2.4,Win32,59.90176111,,,,,,,,,,,,,,,,,,,,,,,,,,,,,,c,3.4383,0,0,0,0,1,,,,,,,,,,,,,,,,,,,,,,,,,,,,,,,,,,,,,,,,,,,,,,,,,,,,,,,,,,,,,,,,,,,,,,,,,,,,,,,,,,,,,,,,,,,,,,,,,,,,,,,,,,,,,,,,,,,,,,,,,,,,,
,,,,522522,001,2023-10-09_19h54.26.334,fluency,2022.2.4,Win32,59.90176111,,,,,,,,,,,,,,,,,,,,,,,,,,,,,,,,,,,,,a,2.03,0,0,0,0,1,,,,,,,,,,,,,,,,,,,,,,,,,,,,,,,,,,,,,,,,,,,,,,,,,,,,,,,,,,,,,,,,,,,,,,,,,,,,,,,,,,,,,,,,,,,,,,,,,,,,,,,,,,,,,,,,,,,,,,
,,,,522522,001,2023-10-09_19h54.26.334,fluency,2022.2.4,Win32,59.90176111,,,,,,,,,,,,,,,,,,,,,,,,,,,,,,,,,,,,,,,,,,,,c,4.7739,0,0,0,0,1,,,,,,,,,,,,,,,,,,,,,,,,,,,,,,,,,,,,,,,,,,,,,,,,,,,,,,,,,,,,,,,,,,,,,,,,,,,,,,,,,,,,,,,,,,,,,,,,,,,,,,,,,,,,,,,
,,,,522522,001,2023-10-09_19h54.26.334,fluency,2022.2.4,Win32,59.90176111,,,,,,,,,,,,,,,,,,,,,,,,,,,,,,,,,,,,,,,,,,,,,,,,,,,space,0.5247,j,1.707,0,0,0,0,0,1,,,,,,,,,,,,,,,,,,,,,,,,,,,,,,,,,,,,,,,,,,,,,,,,,,,,,,,,,,,,,,,,,,,,,,,,,,,,,,,,,,,,,,,,,,,,,,,,,,,,,
,,,,522522,001,2023-10-09_19h54.26.334,fluency,2022.2.4,Win32,59.90176111,,,,,,,,,,,,,,,,,,,,,,,,,,,,,,,,,,,,,,,,,,,,,,,,,,,,,,,,,,,,,5,18.605,0,0,0,0,1,,,,,,,,,,,,,,,,,,,,,,,,,,,,,,,,,,,,,,,,,,,,,,,,,,,,,,,,,,,,,,,,,,,,,,,,,,,,,,,,,,,,,,,,,,,,,,
,,,,522522,001,2023-10-09_19h54.26.334,fluency,2022.2.4,Win32,59.90176111,,,,,,,,,,,,,,,,,,,,,,,,,,,,,,,,,,,,,,,,,,,,,,,,,,,,,,,,,,,,,,,,,,,,space,4.5035,0,0,0,0,1,,,,,,,,,,,,,,,,,,,,,,,,,,,,,,,,,,,,,,,,,,,,,,,,,,,,,,,,,,,,,,,,,,,,,,,,,,,,,,,,,,,,,,,
,,,,522522,001,2023-10-09_19h54.26.334,fluency,2022.2.4,Win32,59.90176111,,,,,,,,,,,,,,,,,,,,,,,8,10,img/B10_08.jpg,GCNB,Press J if the face is GENDER-CONFORMING and K if the face is NONBINARY,Gender-conforming means that the face appears to be a typical example of its gender. Nonbinary means that the face does not conform to any particular gender norms.,JK,,,,,,,,,,,,,,,,,,,,,,,,,,,,,,,,,,,,,,,,,,,,,,138.159,0,0,0,107,1,109,0,0,0,0,1,98,,,,,,,,,,,,,,,,,,,,,,,,,,,,,,,,,,,,,,,,,,,,,,,,,,,,,,,,,,,,,,,,,,,,,,,,,,
,,,,522522,001,2023-10-09_19h54.26.334,fluency,2022.2.4,Win32,59.90176111,,,,,,,,,,,,,,,,,,,,,,,,,,,,,,,,,,,,,,,,,,,,,,,,,,,,,,,,,,,,,,,,,,,,,,,,,,,,,,,,,,0,0,0,0,1,,"[""j""]",[1.0918999999761922],0,"[""j""]",[1.0901999999284726],,,,,,,,,,,,,,,,,,,,,,,,,,,,,,,,,,,,,,,,,,,,,,,,,,,,,,,,,,,,,,,,,,,,,
,,,,522522,001,2023-10-09_19h54.26.334,fluency,2022.2.4,Win32,59.90176111,,,,,,,,,,,,,,,,,,,,,,,8,10,img/B10_08.jpg,GCNB,Press J if the face is GENDER-CONFORMING and K if the face is NONBINARY,Gender-conforming means that the face appears to be a typical example of its gender. Nonbinary means that the face does not conform to any particular gender norms.,JK,,,,,,,,,,,,,,,,,,,,,,,,,,,,,,,,5,1.6469,,,,,,,,,,,,,,0,0,0,107,1,,,,,,,,,,,,,space,5.8346,,,,,,,,,,,,,,,,,,,,,,,,,,,,,,,,,,,,,,,,,,,,,,,,,,,,,,,,,,,,,,,,,,,
,,,,522522,001,2023-10-09_19h54.26.334,fluency,2022.2.4,Win32,59.90176111,,,,,,,,,,,,,,,,,,,,,,,7,1,img/B01_07.jpg,GCNB,Press J if the face is GENDER-CONFORMING and K if the face is NONBINARY,Gender-conforming means that the face appears to be a typical example of its gender. Nonbinary means that the face does not conform to any particular gender norms.,JK,,,,,,,,,,,,,,,,,,,,,,,,,,,,,,,,,,,,,,,,,,,,,,150.7645,0,1,1,7,1,109,0,0,0,0,1,98,,,,,,,,,,,,,,,,,,,,,,,,,,,,,,,,,,,,,,,,,,,,,,,,,,,,,,,,,,,,,,,,,,,,,,,,,,
,,,,522522,001,2023-10-09_19h54.26.334,fluency,2022.2.4,Win32,59.90176111,,,,,,,,,,,,,,,,,,,,,,,,,,,,,,,,,,,,,,,,,,,,,,,,,,,,,,,,,,,,,,,,,,,,,,,,,,,,,,,,,,0,0,0,0,1,,"[""k""]",[1.387700000047687],0,"[""k""]",[1.3876000000238378],,,,,,,,,,,,,,,,,,,,,,,,,,,,,,,,,,,,,,,,,,,,,,,,,,,,,,,,,,,,,,,,,,,,,
,,,,522522,001,2023-10-09_19h54.26.334,fluency,2022.2.4,Win32,59.90176111,,,,,,,,,,,,,,,,,,,,,,,7,1,img/B01_07.jpg,GCNB,Press J if the face is GENDER-CONFORMING and K if the face is NONBINARY,Gender-conforming means that the face appears to be a typical example of its gender. Nonbinary means that the face does not conform to any particular gender norms.,JK,,,,,,,,,,,,,,,,,,,,,,,,,,,,,,,,7,1.9175,,,,,,,,,,,,,,0,1,1,7,1,,,,,,,,,,,,,space,4.3278,,,,,,,,,,,,,,,,,,,,,,,,,,,,,,,,,,,,,,,,,,,,,,,,,,,,,,,,,,,,,,,,,,,
,,,,522522,001,2023-10-09_19h54.26.334,fluency,2022.2.4,Win32,59.90176111,,,,,,,,,,,,,,,,,,,,,,,8,7,img/B07_08.jpg,GCNB,Press J if the face is GENDER-CONFORMING and K if the face is NONBINARY,Gender-conforming means that the face appears to be a typical example of its gender. Nonbinary means that the face does not conform to any particular gender norms.,JK,,,,,,,,,,,,,,,,,,,,,,,,,,,,,,,,,,,,,,,,,,,,,,161.1034,0,2,2,74,1,109,0,0,0,0,1,98,,,,,,,,,,,,,,,,,,,,,,,,,,,,,,,,,,,,,,,,,,,,,,,,,,,,,,,,,,,,,,,,,,,,,,,,,,
,,,,522522,001,2023-10-09_19h54.26.334,fluency,2022.2.4,Win32,59.90176111,,,,,,,,,,,,,,,,,,,,,,,,,,,,,,,,,,,,,,,,,,,,,,,,,,,,,,,,,,,,,,,,,,,,,,,,,,,,,,,,,,0,0,0,0,1,,"[""j""]",[1.0494999999999663],0,"[""j""]",[1.0496000000238155],,,,,,,,,,,,,,,,,,,,,,,,,,,,,,,,,,,,,,,,,,,,,,,,,,,,,,,,,,,,,,,,,,,,,
,,,,522522,001,2023-10-09_19h54.26.334,fluency,2022.2.4,Win32,59.90176111,,,,,,,,,,,,,,,,,,,,,,,8,7,img/B07_08.jpg,GCNB,Press J if the face is GENDER-CONFORMING and K if the face is NONBINARY,Gender-conforming means that the face appears to be a typical example of its gender. Nonbinary means that the face does not conform to any particular gender norms.,JK,,,,,,,,,,,,,,,,,,,,,,,,,,,,,,,,6,4.827,,,,,,,,,,,,,,0,2,2,74,1,,,,,,,,,,,,,space,3.3034,,,,,,,,,,,,,,,,,,,,,,,,,,,,,,,,,,,,,,,,,,,,,,,,,,,,,,,,,,,,,,,,,,,
,,,,522522,001,2023-10-09_19h54.26.334,fluency,2022.2.4,Win32,59.90176111,,,,,,,,,,,,,,,,,,,,,,,0,5,img/B05_00.jpg,GCNB,Press J if the face is GENDER-CONFORMING and K if the face is NONBINARY,Gender-conforming means that the face appears to be a typical example of its gender. Nonbinary means that the face does not conform to any particular gender norms.,JK,,,,,,,,,,,,,,,,,,,,,,,,,,,,,,,,,,,,,,,,,,,,,,173.3443,0,3,3,44,1,109,0,0,0,0,1,98,,,,,,,,,,,,,,,,,,,,,,,,,,,,,,,,,,,,,,,,,,,,,,,,,,,,,,,,,,,,,,,,,,,,,,,,,,
,,,,522522,001,2023-10-09_19h54.26.334,fluency,2022.2.4,Win32,59.90176111,,,,,,,,,,,,,,,,,,,,,,,,,,,,,,,,,,,,,,,,,,,,,,,,,,,,,,,,,,,,,,,,,,,,,,,,,,,,,,,,,,0,0,0,0,1,,"[""j""]",[1.0888000000715579],0,"[""j""]",[1.0888000000715579],,,,,,,,,,,,,,,,,,,,,,,,,,,,,,,,,,,,,,,,,,,,,,,,,,,,,,,,,,,,,,,,,,,,,
,,,,522522,001,2023-10-09_19h54.26.334,fluency,2022.2.4,Win32,59.90176111,,,,,,,,,,,,,,,,,,,,,,,0,5,img/B05_00.jpg,GCNB,Press J if the face is GENDER-CONFORMING and K if the face is NONBINARY,Gender-conforming means that the face appears to be a typical example of its gender. Nonbinary means that the face does not conform to any particular gender norms.,JK,,,,,,,,,,,,,,,,,,,,,,,,,,,,,,,,4,1.3298,,,,,,,,,,,,,,0,3,3,44,1,,,,,,,,,,,,,space,2.0769,,,,,,,,,,,,,,,,,,,,,,,,,,,,,,,,,,,,,,,,,,,,,,,,,,,,,,,,,,,,,,,,,,,
,,,,522522,001,2023-10-09_19h54.26.334,fluency,2022.2.4,Win32,59.90176111,,,,,,,,,,,,,,,,,,,,,,,5,7,img/B07_05.jpg,GCNB,Press J if the face is GENDER-CONFORMING and K if the face is NONBINARY,Gender-conforming means that the face appears to be a typical example of its gender. Nonbinary means that the face does not conform to any particular gender norms.,JK,,,,,,,,,,,,,,,,,,,,,,,,,,,,,,,,,,,,,,,,,,,,,,181.832,0,4,4,71,1,109,0,0,0,0,1,98,,,,,,,,,,,,,,,,,,,,,,,,,,,,,,,,,,,,,,,,,,,,,,,,,,,,,,,,,,,,,,,,,,,,,,,,,,
,,,,522522,001,2023-10-09_19h54.26.334,fluency,2022.2.4,Win32,59.90176111,,,,,,,,,,,,,,,,,,,,,,,,,,,,,,,,,,,,,,,,,,,,,,,,,,,,,,,,,,,,,,,,,,,,,,,,,,,,,,,,,,0,0,0,0,1,,"[""k""]",[2.767899999976123],0,"[""k""]",[2.7676999999284817],,,,,,,,,,,,,,,,,,,,,,,,,,,,,,,,,,,,,,,,,,,,,,,,,,,,,,,,,,,,,,,,,,,,,
,,,,522522,001,2023-10-09_19h54.26.334,fluency,2022.2.4,Win32,59.90176111,,,,,,,,,,,,,,,,,,,,,,,5,7,img/B07_05.jpg,GCNB,Press J if the face is GENDER-CONFORMING and K if the face is NONBINARY,Gender-conforming means that the face appears to be a typical example of its gender. Nonbinary means that the face does not conform to any particular gender norms.,JK,,,,,,,,,,,,,,,,,,,,,,,,,,,,,,,,6,3.1695,,,,,,,,,,,,,,0,4,4,71,1,,,,,,,,,,,,,space,1.4858,,,,,,,,,,,,,,,,,,,,,,,,,,,,,,,,,,,,,,,,,,,,,,,,,,,,,,,,,,,,,,,,,,,
,,,,522522,001,2023-10-09_19h54.26.334,fluency,2022.2.4,Win32,59.90176111,,,,,,,,,,,,,,,,,,,,,,,0,6,img/B06_00.jpg,GCNB,Press J if the face is GENDER-CONFORMING and K if the face is NONBINARY,Gender-conforming means that the face appears to be a typical example of its gender. Nonbinary means that the face does not conform to any particular gender norms.,JK,,,,,,,,,,,,,,,,,,,,,,,,,,,,,,,,,,,,,,,,,,,,,,190.5707,0,5,5,55,1,109,0,0,0,0,1,98,,,,,,,,,,,,,,,,,,,,,,,,,,,,,,,,,,,,,,,,,,,,,,,,,,,,,,,,,,,,,,,,,,,,,,,,,,
,,,,522522,001,2023-10-09_19h54.26.334,fluency,2022.2.4,Win32,59.90176111,,,,,,,,,,,,,,,,,,,,,,,,,,,,,,,,,,,,,,,,,,,,,,,,,,,,,,,,,,,,,,,,,,,,,,,,,,,,,,,,,,0,0,0,0,1,,"[""j""]",[0.7967000000476787],0,"[""j""]",[0.7968000000715278],,,,,,,,,,,,,,,,,,,,,,,,,,,,,,,,,,,,,,,,,,,,,,,,,,,,,,,,,,,,,,,,,,,,,
,,,,522522,001,2023-10-09_19h54.26.334,fluency,2022.2.4,Win32,59.90176111,,,,,,,,,,,,,,,,,,,,,,,0,6,img/B06_00.jpg,GCNB,Press J if the face is GENDER-CONFORMING and K if the face is NONBINARY,Gender-conforming means that the face appears to be a typical example of its gender. Nonbinary means that the face does not conform to any particular gender norms.,JK,,,,,,,,,,,,,,,,,,,,,,,,,,,,,,,,4,1.0988,,,,,,,,,,,,,,0,5,5,55,1,,,,,,,,,,,,,space,0.9313,,,,,,,,,,,,,,,,,,,,,,,,,,,,,,,,,,,,,,,,,,,,,,,,,,,,,,,,,,,,,,,,,,,
,,,,522522,001,2023-10-09_19h54.26.334,fluency,2022.2.4,Win32,59.90176111,,,,,,,,,,,,,,,,,,,,,,,1,4,img/B04_01.jpg,GCNB,Press J if the face is GENDER-CONFORMING and K if the face is NONBINARY,Gender-conforming means that the face appears to be a typical example of its gender. Nonbinary means that the face does not conform to any particular gender norms.,JK,,,,,,,,,,,,,,,,,,,,,,,,,,,,,,,,,,,,,,,,,,,,,,197.6917,0,6,6,34,1,109,0,0,0,0,1,98,,,,,,,,,,,,,,,,,,,,,,,,,,,,,,,,,,,,,,,,,,,,,,,,,,,,,,,,,,,,,,,,,,,,,,,,,,
,,,,522522,001,2023-10-09_19h54.26.334,fluency,2022.2.4,Win32,59.90176111,,,,,,,,,,,,,,,,,,,,,,,,,,,,,,,,,,,,,,,,,,,,,,,,,,,,,,,,,,,,,,,,,,,,,,,,,,,,,,,,,,0,0,0,0,1,,"[""j""]",[0.7962000000476905],0,"[""j""]",[0.7961000000238414],,,,,,,,,,,,,,,,,,,,,,,,,,,,,,,,,,,,,,,,,,,,,,,,,,,,,,,,,,,,,,,,,,,,,
,,,,522522,001,2023-10-09_19h54.26.334,fluency,2022.2.4,Win32,59.90176111,,,,,,,,,,,,,,,,,,,,,,,1,4,img/B04_01.jpg,GCNB,Press J if the face is GENDER-CONFORMING and K if the face is NONBINARY,Gender-conforming means that the face appears to be a typical example of its gender. Nonbinary means that the face does not conform to any particular gender norms.,JK,,,,,,,,,,,,,,,,,,,,,,,,,,,,,,,,4,1.6188,,,,,,,,,,,,,,0,6,6,34,1,,,,,,,,,,,,,space,1.7357,,,,,,,,,,,,,,,,,,,,,,,,,,,,,,,,,,,,,,,,,,,,,,,,,,,,,,,,,,,,,,,,,,,
,,,,522522,001,2023-10-09_19h54.26.334,fluency,2022.2.4,Win32,59.90176111,,,,,,,,,,,,,,,,,,,,,,,7,3,img/B03_07.jpg,GCNB,Press J if the face is GENDER-CONFORMING and K if the face is NONBINARY,Gender-conforming means that the face appears to be a typical example of its gender. Nonbinary means that the face does not conform to any particular gender norms.,JK,,,,,,,,,,,,,,,,,,,,,,,,,,,,,,,,,,,,,,,,,,,,,,206.1293,0,7,7,29,1,109,0,0,0,0,1,98,,,,,,,,,,,,,,,,,,,,,,,,,,,,,,,,,,,,,,,,,,,,,,,,,,,,,,,,,,,,,,,,,,,,,,,,,,
,,,,522522,001,2023-10-09_19h54.26.334,fluency,2022.2.4,Win32,59.90176111,,,,,,,,,,,,,,,,,,,,,,,,,,,,,,,,,,,,,,,,,,,,,,,,,,,,,,,,,,,,,,,,,,,,,,,,,,,,,,,,,,0,0,0,0,1,,"[""j""]",[1.680100000023856],0,"[""j""]",[1.6800999999046553],,,,,,,,,,,,,,,,,,,,,,,,,,,,,,,,,,,,,,,,,,,,,,,,,,,,,,,,,,,,,,,,,,,,,
,,,,522522,001,2023-10-09_19h54.26.334,fluency,2022.2.4,Win32,59.90176111,,,,,,,,,,,,,,,,,,,,,,,7,3,img/B03_07.jpg,GCNB,Press J if the face is GENDER-CONFORMING and K if the face is NONBINARY,Gender-conforming means that the face appears to be a typical example of its gender. Nonbinary means that the face does not conform to any particular gender norms.,JK,,,,,,,,,,,,,,,,,,,,,,,,,,,,,,,,5,0.558,,,,,,,,,,,,,,0,7,7,29,1,,,,,,,,,,,,,space,1.1233,,,,,,,,,,,,,,,,,,,,,,,,,,,,,,,,,,,,,,,,,,,,,,,,,,,,,,,,,,,,,,,,,,,
,,,,522522,001,2023-10-09_19h54.26.334,fluency,2022.2.4,Win32,59.90176111,,,,,,,,,,,,,,,,,,,,,,,10,8,img/B08_10.jpg,GCNB,Press J if the face is GENDER-CONFORMING and K if the face is NONBINARY,Gender-conforming means that the face appears to be a typical example of its gender. Nonbinary means that the face does not conform to any particular gender norms.,JK,,,,,,,,,,,,,,,,,,,,,,,,,,,,,,,,,,,,,,,,,,,,,,212.8991,0,8,8,87,1,109,0,0,0,0,1,98,,,,,,,,,,,,,,,,,,,,,,,,,,,,,,,,,,,,,,,,,,,,,,,,,,,,,,,,,,,,,,,,,,,,,,,,,,
,,,,522522,001,2023-10-09_19h54.26.334,fluency,2022.2.4,Win32,59.90176111,,,,,,,,,,,,,,,,,,,,,,,,,,,,,,,,,,,,,,,,,,,,,,,,,,,,,,,,,,,,,,,,,,,,,,,,,,,,,,,,,,0,0,0,0,1,,"[""j""]",[1.4237000000476883],0,"[""j""]",[1.423899999976129],,,,,,,,,,,,,,,,,,,,,,,,,,,,,,,,,,,,,,,,,,,,,,,,,,,,,,,,,,,,,,,,,,,,,
,,,,522522,001,2023-10-09_19h54.26.334,fluency,2022.2.4,Win32,59.90176111,,,,,,,,,,,,,,,,,,,,,,,10,8,img/B08_10.jpg,GCNB,Press J if the face is GENDER-CONFORMING and K if the face is NONBINARY,Gender-conforming means that the face appears to be a typical example of its gender. Nonbinary means that the face does not conform to any particular gender norms.,JK,,,,,,,,,,,,,,,,,,,,,,,,,,,,,,,,2,3.5556,,,,,,,,,,,,,,0,8,8,87,1,,,,,,,,,,,,,space,0.6769,,,,,,,,,,,,,,,,,,,,,,,,,,,,,,,,,,,,,,,,,,,,,,,,,,,,,,,,,,,,,,,,,,,
,,,,522522,001,2023-10-09_19h54.26.334,fluency,2022.2.4,Win32,59.90176111,,,,,,,,,,,,,,,,,,,,,,,8,5,img/B05_08.jpg,GCNB,Press J if the face is GENDER-CONFORMING and K if the face is NONBINARY,Gender-conforming means that the face appears to be a typical example of its gender. Nonbinary means that the face does not conform to any particular gender norms.,JK,,,,,,,,,,,,,,,,,,,,,,,,,,,,,,,,,,,,,,,,,,,,,,221.2378,0,9,9,52,1,109,0,0,0,0,1,98,,,,,,,,,,,,,,,,,,,,,,,,,,,,,,,,,,,,,,,,,,,,,,,,,,,,,,,,,,,,,,,,,,,,,,,,,,
,,,,522522,001,2023-10-09_19h54.26.334,fluency,2022.2.4,Win32,59.90176111,,,,,,,,,,,,,,,,,,,,,,,,,,,,,,,,,,,,,,,,,,,,,,,,,,,,,,,,,,,,,,,,,,,,,,,,,,,,,,,,,,0,0,0,0,1,,"[""j""]",[1.3140000000000214],0,"[""j""]",[1.3138999999761722],,,,,,,,,,,,,,,,,,,,,,,,,,,,,,,,,,,,,,,,,,,,,,,,,,,,,,,,,,,,,,,,,,,,,
,,,,522522,001,2023-10-09_19h54.26.334,fluency,2022.2.4,Win32,59.90176111,,,,,,,,,,,,,,,,,,,,,,,8,5,img/B05_08.jpg,GCNB,Press J if the face is GENDER-CONFORMING and K if the face is NONBINARY,Gender-conforming means that the face appears to be a typical example of its gender. Nonbinary means that the face does not conform to any particular gender norms.,JK,,,,,,,,,,,,,,,,,,,,,,,,,,,,,,,,5,13.3444,,,,,,,,,,,,,,0,9,9,52,1,,,,,,,,,,,,,space,0.8215,,,,,,,,,,,,,,,,,,,,,,,,,,,,,,,,,,,,,,,,,,,,,,,,,,,,,,,,,,,,,,,,,,,
,,,,522522,001,2023-10-09_19h54.26.334,fluency,2022.2.4,Win32,59.90176111,,,,,,,,,,,,,,,,,,,,,,,2,5,img/B05_02.jpg,GCNB,Press J if the face is GENDER-CONFORMING and K if the face is NONBINARY,Gender-conforming means that the face appears to be a typical example of its gender. Nonbinary means that the face does not conform to any particular gender norms.,JK,,,,,,,,,,,,,,,,,,,,,,,,,,,,,,,,,,,,,,,,,,,,,,240.4986,0,10,10,46,1,109,0,0,0,0,1,98,,,,,,,,,,,,,,,,,,,,,,,,,,,,,,,,,,,,,,,,,,,,,,,,,,,,,,,,,,,,,,,,,,,,,,,,,,
,,,,522522,001,2023-10-09_19h54.26.334,fluency,2022.2.4,Win32,59.90176111,,,,,,,,,,,,,,,,,,,,,,,,,,,,,,,,,,,,,,,,,,,,,,,,,,,,,,,,,,,,,,,,,,,,,,,,,,,,,,,,,,0,0,0,0,1,,"[""j""]",[1.6712000000476337],0,"[""j""]",[1.6711999999284899],,,,,,,,,,,,,,,,,,,,,,,,,,,,,,,,,,,,,,,,,,,,,,,,,,,,,,,,,,,,,,,,,,,,,
,,,,522522,001,2023-10-09_19h54.26.334,fluency,2022.2.4,Win32,59.90176111,,,,,,,,,,,,,,,,,,,,,,,2,5,img/B05_02.jpg,GCNB,Press J if the face is GENDER-CONFORMING and K if the face is NONBINARY,Gender-conforming means that the face appears to be a typical example of its gender. Nonbinary means that the face does not conform to any particular gender norms.,JK,,,,,,,,,,,,,,,,,,,,,,,,,,,,,,,,4,12.5363,,,,,,,,,,,,,,0,10,10,46,1,,,,,,,,,,,,,space,3.8873,,,,,,,,,,,,,,,,,,,,,,,,,,,,,,,,,,,,,,,,,,,,,,,,,,,,,,,,,,,,,,,,,,,
,,,,522522,001,2023-10-09_19h54.26.334,fluency,2022.2.4,Win32,59.90176111,,,,,,,,,,,,,,,,,,,,,,,9,10,img/B10_09.jpg,GCNB,Press J if the face is GENDER-CONFORMING and K if the face is NONBINARY,Gender-conforming means that the face appears to be a typical example of its gender. Nonbinary means that the face does not conform to any particular gender norms.,JK,,,,,,,,,,,,,,,,,,,,,,,,,,,,,,,,,,,,,,,,,,,,,,261.027,0,11,11,108,1,109,0,0,0,0,1,98,,,,,,,,,,,,,,,,,,,,,,,,,,,,,,,,,,,,,,,,,,,,,,,,,,,,,,,,,,,,,,,,,,,,,,,,,,
,,,,522522,001,2023-10-09_19h54.26.334,fluency,2022.2.4,Win32,59.90176111,,,,,,,,,,,,,,,,,,,,,,,,,,,,,,,,,,,,,,,,,,,,,,,,,,,,,,,,,,,,,,,,,,,,,,,,,,,,,,,,,,0,0,0,0,1,,"[""j""]",[1.6491999999284417],0,"[""j""]",[1.6492999999522908],,,,,,,,,,,,,,,,,,,,,,,,,,,,,,,,,,,,,,,,,,,,,,,,,,,,,,,,,,,,,,,,,,,,,
,,,,522522,001,2023-10-09_19h54.26.334,fluency,2022.2.4,Win32,59.90176111,,,,,,,,,,,,,,,,,,,,,,,9,10,img/B10_09.jpg,GCNB,Press J if the face is GENDER-CONFORMING and K if the face is NONBINARY,Gender-conforming means that the face appears to be a typical example of its gender. Nonbinary means that the face does not conform to any particular gender norms.,JK,,,,,,,,,,,,,,,,,,,,,,,,,,,,,,,,4,2.0386,,,,,,,,,,,,,,0,11,11,108,1,,,,,,,,,,,,,space,0.7911,,,,,,,,,,,,,,,,,,,,,,,,,,,,,,,,,,,,,,,,,,,,,,,,,,,,,,,,,,,,,,,,,,,
,,,,522522,001,2023-10-09_19h54.26.334,fluency,2022.2.4,Win32,59.90176111,,,,,,,,,,,,,,,,,,,,,,,7,7,img/B07_07.jpg,GCNB,Press J if the face is GENDER-CONFORMING and K if the face is NONBINARY,Gender-conforming means that the face appears to be a typical example of its gender. Nonbinary means that the face does not conform to any particular gender norms.,JK,,,,,,,,,,,,,,,,,,,,,,,,,,,,,,,,,,,,,,,,,,,,,,267.9138,0,12,12,73,1,109,0,0,0,0,1,98,,,,,,,,,,,,,,,,,,,,,,,,,,,,,,,,,,,,,,,,,,,,,,,,,,,,,,,,,,,,,,,,,,,,,,,,,,
,,,,522522,001,2023-10-09_19h54.26.334,fluency,2022.2.4,Win32,59.90176111,,,,,,,,,,,,,,,,,,,,,,,,,,,,,,,,,,,,,,,,,,,,,,,,,,,,,,,,,,,,,,,,,,,,,,,,,,,,,,,,,,0,0,0,0,1,,"[""k""]",[1.3032000000476955],0,"[""space"",""k""]","[0.46330000007151284,1.3031000000238464]",,,,,,,,,,,,,,,,,,,,,,,,,,,,,,,,,,,,,,,,,,,,,,,,,,,,,,,,,,,,,,,,,,,,,
,,,,522522,001,2023-10-09_19h54.26.334,fluency,2022.2.4,Win32,59.90176111,,,,,,,,,,,,,,,,,,,,,,,7,7,img/B07_07.jpg,GCNB,Press J if the face is GENDER-CONFORMING and K if the face is NONBINARY,Gender-conforming means that the face appears to be a typical example of its gender. Nonbinary means that the face does not conform to any particular gender norms.,JK,,,,,,,,,,,,,,,,,,,,,,,,,,,,,,,,7,1.9358,,,,,,,,,,,,,,0,12,12,73,1,,,,,,,,,,,,,space,2.7094,,,,,,,,,,,,,,,,,,,,,,,,,,,,,,,,,,,,,,,,,,,,,,,,,,,,,,,,,,,,,,,,,,,
,,,,522522,001,2023-10-09_19h54.26.334,fluency,2022.2.4,Win32,59.90176111,,,,,,,,,,,,,,,,,,,,,,,4,4,img/B04_04.jpg,GCNB,Press J if the face is GENDER-CONFORMING and K if the face is NONBINARY,Gender-conforming means that the face appears to be a typical example of its gender. Nonbinary means that the face does not conform to any particular gender norms.,JK,,,,,,,,,,,,,,,,,,,,,,,,,,,,,,,,,,,,,,,,,,,,,,277.6685,0,13,13,37,1,109,0,0,0,0,1,98,,,,,,,,,,,,,,,,,,,,,,,,,,,,,,,,,,,,,,,,,,,,,,,,,,,,,,,,,,,,,,,,,,,,,,,,,,
,,,,522522,001,2023-10-09_19h54.26.334,fluency,2022.2.4,Win32,59.90176111,,,,,,,,,,,,,,,,,,,,,,,,,,,,,,,,,,,,,,,,,,,,,,,,,,,,,,,,,,,,,,,,,,,,,,,,,,,,,,,,,,0,0,0,0,1,,"[""j""]",[1.3262999999523117],0,"[""j""]",[1.3262999999523117],,,,,,,,,,,,,,,,,,,,,,,,,,,,,,,,,,,,,,,,,,,,,,,,,,,,,,,,,,,,,,,,,,,,,
,,,,522522,001,2023-10-09_19h54.26.334,fluency,2022.2.4,Win32,59.90176111,,,,,,,,,,,,,,,,,,,,,,,4,4,img/B04_04.jpg,GCNB,Press J if the face is GENDER-CONFORMING and K if the face is NONBINARY,Gender-conforming means that the face appears to be a typical example of its gender. Nonbinary means that the face does not conform to any particular gender norms.,JK,,,,,,,,,,,,,,,,,,,,,,,,,,,,,,,,5,1.8609,,,,,,,,,,,,,,0,13,13,37,1,,,,,,,,,,,,,space,1.0354,,,,,,,,,,,,,,,,,,,,,,,,,,,,,,,,,,,,,,,,,,,,,,,,,,,,,,,,,,,,,,,,,,,
,,,,522522,001,2023-10-09_19h54.26.334,fluency,2022.2.4,Win32,59.90176111,,,,,,,,,,,,,,,,,,,,,,,3,10,img/B10_03.jpg,GCNB,Press J if the face is GENDER-CONFORMING and K if the face is NONBINARY,Gender-conforming means that the face appears to be a typical example of its gender. Nonbinary means that the face does not conform to any particular gender norms.,JK,,,,,,,,,,,,,,,,,,,,,,,,,,,,,,,,,,,,,,,,,,,,,,284.6407,0,14,14,102,1,109,0,0,0,0,1,98,,,,,,,,,,,,,,,,,,,,,,,,,,,,,,,,,,,,,,,,,,,,,,,,,,,,,,,,,,,,,,,,,,,,,,,,,,
,,,,522522,001,2023-10-09_19h54.26.334,fluency,2022.2.4,Win32,59.90176111,,,,,,,,,,,,,,,,,,,,,,,,,,,,,,,,,,,,,,,,,,,,,,,,,,,,,,,,,,,,,,,,,,,,,,,,,,,,,,,,,,0,0,0,0,1,,"[""j""]",[1.1988000000715715],0,"[""j""]",[1.1987000000477224],,,,,,,,,,,,,,,,,,,,,,,,,,,,,,,,,,,,,,,,,,,,,,,,,,,,,,,,,,,,,,,,,,,,,
,,,,522522,001,2023-10-09_19h54.26.334,fluency,2022.2.4,Win32,59.90176111,,,,,,,,,,,,,,,,,,,,,,,3,10,img/B10_03.jpg,GCNB,Press J if the face is GENDER-CONFORMING and K if the face is NONBINARY,Gender-conforming means that the face appears to be a typical example of its gender. Nonbinary means that the face does not conform to any particular gender norms.,JK,,,,,,,,,,,,,,,,,,,,,,,,,,,,,,,,5,2.2869,,,,,,,,,,,,,,0,14,14,102,1,,,,,,,,,,,,,space,2.0833,,,,,,,,,,,,,,,,,,,,,,,,,,,,,,,,,,,,,,,,,,,,,,,,,,,,,,,,,,,,,,,,,,,
,,,,522522,001,2023-10-09_19h54.26.334,fluency,2022.2.4,Win32,59.90176111,,,,,,,,,,,,,,,,,,,,,,,3,4,img/B04_03.jpg,GCNB,Press J if the face is GENDER-CONFORMING and K if the face is NONBINARY,Gender-conforming means that the face appears to be a typical example of its gender. Nonbinary means that the face does not conform to any particular gender norms.,JK,,,,,,,,,,,,,,,,,,,,,,,,,,,,,,,,,,,,,,,,,,,,,,293.1122,0,15,15,36,1,109,0,0,0,0,1,98,,,,,,,,,,,,,,,,,,,,,,,,,,,,,,,,,,,,,,,,,,,,,,,,,,,,,,,,,,,,,,,,,,,,,,,,,,
,,,,522522,001,2023-10-09_19h54.26.334,fluency,2022.2.4,Win32,59.90176111,,,,,,,,,,,,,,,,,,,,,,,,,,,,,,,,,,,,,,,,,,,,,,,,,,,,,,,,,,,,,,,,,,,,,,,,,,,,,,,,,,0,0,0,0,1,,"[""j""]",[2.262199999928498],0,"[""j""]",[2.2621000000238496],,,,,,,,,,,,,,,,,,,,,,,,,,,,,,,,,,,,,,,,,,,,,,,,,,,,,,,,,,,,,,,,,,,,,
,,,,522522,001,2023-10-09_19h54.26.334,fluency,2022.2.4,Win32,59.90176111,,,,,,,,,,,,,,,,,,,,,,,3,4,img/B04_03.jpg,GCNB,Press J if the face is GENDER-CONFORMING and K if the face is NONBINARY,Gender-conforming means that the face appears to be a typical example of its gender. Nonbinary means that the face does not conform to any particular gender norms.,JK,,,,,,,,,,,,,,,,,,,,,,,,,,,,,,,,4,0.6452,,,,,,,,,,,,,,0,15,15,36,1,,,,,,,,,,,,,space,0.7557,,,,,,,,,,,,,,,,,,,,,,,,,,,,,,,,,,,,,,,,,,,,,,,,,,,,,,,,,,,,,,,,,,,
,,,,522522,001,2023-10-09_19h54.26.334,fluency,2022.2.4,Win32,59.90176111,,,,,,,,,,,,,,,,,,,,,,,4,1,img/B01_04.jpg,GCNB,Press J if the face is GENDER-CONFORMING and K if the face is NONBINARY,Gender-conforming means that the face appears to be a typical example of its gender. Nonbinary means that the face does not conform to any particular gender norms.,JK,,,,,,,,,,,,,,,,,,,,,,,,,,,,,,,,,,,,,,,,,,,,,,298.5814,0,16,16,4,1,109,0,0,0,0,1,98,,,,,,,,,,,,,,,,,,,,,,,,,,,,,,,,,,,,,,,,,,,,,,,,,,,,,,,,,,,,,,,,,,,,,,,,,,
,,,,522522,001,2023-10-09_19h54.26.334,fluency,2022.2.4,Win32,59.90176111,,,,,,,,,,,,,,,,,,,,,,,,,,,,,,,,,,,,,,,,,,,,,,,,,,,,,,,,,,,,,,,,,,,,,,,,,,,,,,,,,,0,0,0,0,1,,"[""k""]",[2.0366000000238387],0,"[""k""]",[2.0366000000238387],,,,,,,,,,,,,,,,,,,,,,,,,,,,,,,,,,,,,,,,,,,,,,,,,,,,,,,,,,,,,,,,,,,,,
,,,,522522,001,2023-10-09_19h54.26.334,fluency,2022.2.4,Win32,59.90176111,,,,,,,,,,,,,,,,,,,,,,,4,1,img/B01_04.jpg,GCNB,Press J if the face is GENDER-CONFORMING and K if the face is NONBINARY,Gender-conforming means that the face appears to be a typical example of its gender. Nonbinary means that the face does not conform to any particular gender norms.,JK,,,,,,,,,,,,,,,,,,,,,,,,,,,,,,,,6,4.443,,,,,,,,,,,,,,0,16,16,4,1,,,,,,,,,,,,,space,1.8858,,,,,,,,,,,,,,,,,,,,,,,,,,,,,,,,,,,,,,,,,,,,,,,,,,,,,,,,,,,,,,,,,,,
,,,,522522,001,2023-10-09_19h54.26.334,fluency,2022.2.4,Win32,59.90176111,,,,,,,,,,,,,,,,,,,,,,,1,10,img/B10_01.jpg,GCNB,Press J if the face is GENDER-CONFORMING and K if the face is NONBINARY,Gender-conforming means that the face appears to be a typical example of its gender. Nonbinary means that the face does not conform to any particular gender norms.,JK,,,,,,,,,,,,,,,,,,,,,,,,,,,,,,,,,,,,,,,,,,,,,,308.9705,0,17,17,100,1,109,0,0,0,0,1,98,,,,,,,,,,,,,,,,,,,,,,,,,,,,,,,,,,,,,,,,,,,,,,,,,,,,,,,,,,,,,,,,,,,,,,,,,,
,,,,522522,001,2023-10-09_19h54.26.334,fluency,2022.2.4,Win32,59.90176111,,,,,,,,,,,,,,,,,,,,,,,,,,,,,,,,,,,,,,,,,,,,,,,,,,,,,,,,,,,,,,,,,,,,,,,,,,,,,,,,,,,,,,,,,,1,,,,,space,2.298,0,0,0,0,1,,,,,,,,,,,,,,,,,,,,,,,,,,,,,,,,,,,,,,,,,,,,,,,,,,,,,,,,,,,,
,,,,522522,001,2023-10-09_19h54.26.334,fluency,2022.2.4,Win32,59.90176111,,,,,,,,,,,,,,,,,,,,,,,,,,,,,,,,,,,,,,,,,,,,,,,,,,,,,,,,,,,,,,,,,,,,,,,,,,,,,,,,,,0,0,0,0,1,,,,,,,,,,,,,,,,,,,,,,,,,,,,,,,,,,,,,,,,,,,,,,,,,,,,,,,,,,,,,,,,,,,,,,,,,,,
,,,,522522,001,2023-10-09_19h54.26.334,fluency,2022.2.4,Win32,59.90176111,,,,,,,,,,,,,,,,,,,,,,,1,10,img/B10_01.jpg,GCNB,Press J if the face is GENDER-CONFORMING and K if the face is NONBINARY,Gender-conforming means that the face appears to be a typical example of its gender. Nonbinary means that the face does not conform to any particular gender norms.,JK,,,,,,,,,,,,,,,,,,,,,,,,,,,,,,,,,,,,,,,,,,,,,,316.3245,0,17,17,100,1,109,1,0,1,0,1,98,,,,,,,,,,,,,,,,,,,,,,,,,,,,,,,,,,,,,,,,,,,,,,,,,,,,,,,,,,,,,,,,,,,,,,,,,,
,,,,522522,001,2023-10-09_19h54.26.334,fluency,2022.2.4,Win32,59.90176111,,,,,,,,,,,,,,,,,,,,,,,,,,,,,,,,,,,,,,,,,,,,,,,,,,,,,,,,,,,,,,,,,,,,,,,,,,,,,,,,,,1,0,1,0,1,,"[""k""]",[0.7322999999523176],1,"[""k""]",[0.7322999999523176],,,,,,,,,,,,,,,,,,,,,,,,,,,,,,,,,,,,,,,,,,,,,,,,,,,,,,,,,,,,,,,,,,,,,
,,,,522522,001,2023-10-09_19h54.26.334,fluency,2022.2.4,Win32,59.90176111,,,,,,,,,,,,,,,,,,,,,,,1,10,img/B10_01.jpg,GCNB,Press J if the face is GENDER-CONFORMING and K if the face is NONBINARY,Gender-conforming means that the face appears to be a typical example of its gender. Nonbinary means that the face does not conform to any particular gender norms.,JK,,,,,,,,,,,,,,,,,,,,,,,,,,,,,,,,4,0.7072,,,,,,,,,,,,,,0,17,17,100,1,,,,,,,,,,,,,space,1.8832,,,,,,,,,,,,,,,,,,,,,,,,,,,,,,,,,,,,,,,,,,,,,,,,,,,,,,,,,,,,,,,,,,,
,,,,522522,001,2023-10-09_19h54.26.334,fluency,2022.2.4,Win32,59.90176111,,,,,,,,,,,,,,,,,,,,,,,2,6,img/B06_02.jpg,GCNB,Press J if the face is GENDER-CONFORMING and K if the face is NONBINARY,Gender-conforming means that the face appears to be a typical example of its gender. Nonbinary means that the face does not conform to any particular gender norms.,JK,,,,,,,,,,,,,,,,,,,,,,,,,,,,,,,,,,,,,,,,,,,,,,323.9794,0,18,18,57,1,109,0,0,0,0,1,98,,,,,,,,,,,,,,,,,,,,,,,,,,,,,,,,,,,,,,,,,,,,,,,,,,,,,,,,,,,,,,,,,,,,,,,,,,
,,,,522522,001,2023-10-09_19h54.26.334,fluency,2022.2.4,Win32,59.90176111,,,,,,,,,,,,,,,,,,,,,,,,,,,,,,,,,,,,,,,,,,,,,,,,,,,,,,,,,,,,,,,,,,,,,,,,,,,,,,,,,,0,0,0,0,1,,"[""j""]",[1.3028999999761481],1,"[""j""]",[1.3027999999523558],,,,,,,,,,,,,,,,,,,,,,,,,,,,,,,,,,,,,,,,,,,,,,,,,,,,,,,,,,,,,,,,,,,,,
,,,,522522,001,2023-10-09_19h54.26.334,fluency,2022.2.4,Win32,59.90176111,,,,,,,,,,,,,,,,,,,,,,,2,6,img/B06_02.jpg,GCNB,Press J if the face is GENDER-CONFORMING and K if the face is NONBINARY,Gender-conforming means that the face appears to be a typical example of its gender. Nonbinary means that the face does not conform to any particular gender norms.,JK,,,,,,,,,,,,,,,,,,,,,,,,,,,,,,,,4,0.5267,,,,,,,,,,,,,,0,18,18,57,1,,,,,,,,,,,,,space,0.7188,,,,,,,,,,,,,,,,,,,,,,,,,,,,,,,,,,,,,,,,,,,,,,,,,,,,,,,,,,,,,,,,,,,
,,,,522522,001,2023-10-09_19h54.26.334,fluency,2022.2.4,Win32,59.90176111,,,,,,,,,,,,,,,,,,,,,,,8,6,img/B06_08.jpg,GCNB,Press J if the face is GENDER-CONFORMING and K if the face is NONBINARY,Gender-conforming means that the face appears to be a typical example of its gender. Nonbinary means that the face does not conform to any particular gender norms.,JK,,,,,,,,,,,,,,,,,,,,,,,,,,,,,,,,,,,,,,,,,,,,,,330.3163,0,19,19,63,1,109,0,0,0,0,1,98,,,,,,,,,,,,,,,,,,,,,,,,,,,,,,,,,,,,,,,,,,,,,,,,,,,,,,,,,,,,,,,,,,,,,,,,,,
,,,,522522,001,2023-10-09_19h54.26.334,fluency,2022.2.4,Win32,59.90176111,,,,,,,,,,,,,,,,,,,,,,,,,,,,,,,,,,,,,,,,,,,,,,,,,,,,,,,,,,,,,,,,,,,,,,,,,,,,,,,,,,0,0,0,0,1,,"[""j""]",[1.9119999999999777],1,"[""j""]",[1.9119999999999777],,,,,,,,,,,,,,,,,,,,,,,,,,,,,,,,,,,,,,,,,,,,,,,,,,,,,,,,,,,,,,,,,,,,,
,,,,522522,001,2023-10-09_19h54.26.334,fluency,2022.2.4,Win32,59.90176111,,,,,,,,,,,,,,,,,,,,,,,8,6,img/B06_08.jpg,GCNB,Press J if the face is GENDER-CONFORMING and K if the face is NONBINARY,Gender-conforming means that the face appears to be a typical example of its gender. Nonbinary means that the face does not conform to any particular gender norms.,JK,,,,,,,,,,,,,,,,,,,,,,,,,,,,,,,,4,2.2867,,,,,,,,,,,,,,0,19,19,63,1,,,,,,,,,,,,,space,0.4991,,,,,,,,,,,,,,,,,,,,,,,,,,,,,,,,,,,,,,,,,,,,,,,,,,,,,,,,,,,,,,,,,,,
,,,,522522,001,2023-10-09_19h54.26.334,fluency,2022.2.4,Win32,59.90176111,,,,,,,,,,,,,,,,,,,,,,,3,7,img/B07_03.jpg,GCNB,Press J if the face is GENDER-CONFORMING and K if the face is NONBINARY,Gender-conforming means that the face appears to be a typical example of its gender. Nonbinary means that the face does not conform to any particular gender norms.,JK,,,,,,,,,,,,,,,,,,,,,,,,,,,,,,,,,,,,,,,,,,,,,,338.1702,0,20,20,69,1,109,0,0,0,0,1,98,,,,,,,,,,,,,,,,,,,,,,,,,,,,,,,,,,,,,,,,,,,,,,,,,,,,,,,,,,,,,,,,,,,,,,,,,,
,,,,522522,001,2023-10-09_19h54.26.334,fluency,2022.2.4,Win32,59.90176111,,,,,,,,,,,,,,,,,,,,,,,,,,,,,,,,,,,,,,,,,,,,,,,,,,,,,,,,,,,,,,,,,,,,,,,,,,,,,,,,,,0,0,0,0,1,,"[""k""]",[1.0743999999761513],1,"[""k""]",[1.0743999999761513],,,,,,,,,,,,,,,,,,,,,,,,,,,,,,,,,,,,,,,,,,,,,,,,,,,,,,,,,,,,,,,,,,,,,
,,,,522522,001,2023-10-09_19h54.26.334,fluency,2022.2.4,Win32,59.90176111,,,,,,,,,,,,,,,,,,,,,,,3,7,img/B07_03.jpg,GCNB,Press J if the face is GENDER-CONFORMING and K if the face is NONBINARY,Gender-conforming means that the face appears to be a typical example of its gender. Nonbinary means that the face does not conform to any particular gender norms.,JK,,,,,,,,,,,,,,,,,,,,,,,,,,,,,,,,6,0.6307,,,,,,,,,,,,,,0,20,20,69,1,,,,,,,,,,,,,space,1.0018,,,,,,,,,,,,,,,,,,,,,,,,,,,,,,,,,,,,,,,,,,,,,,,,,,,,,,,,,,,,,,,,,,,
,,,,522522,001,2023-10-09_19h54.26.334,fluency,2022.2.4,Win32,59.90176111,,,,,,,,,,,,,,,,,,,,,,,9,1,img/B01_09.jpg,GCNB,Press J if the face is GENDER-CONFORMING and K if the face is NONBINARY,Gender-conforming means that the face appears to be a typical example of its gender. Nonbinary means that the face does not conform to any particular gender norms.,JK,,,,,,,,,,,,,,,,,,,,,,,,,,,,,,,,,,,,,,,,,,,,,,343.9069,0,21,21,9,1,109,0,0,0,0,1,98,,,,,,,,,,,,,,,,,,,,,,,,,,,,,,,,,,,,,,,,,,,,,,,,,,,,,,,,,,,,,,,,,,,,,,,,,,
,,,,522522,001,2023-10-09_19h54.26.334,fluency,2022.2.4,Win32,59.90176111,,,,,,,,,,,,,,,,,,,,,,,,,,,,,,,,,,,,,,,,,,,,,,,,,,,,,,,,,,,,,,,,,,,,,,,,,,,,,,,,,,0,0,0,0,1,,"[""k""]",[1.0356000000238623],1,"[""k""]",[1.0355000000000132],,,,,,,,,,,,,,,,,,,,,,,,,,,,,,,,,,,,,,,,,,,,,,,,,,,,,,,,,,,,,,,,,,,,,
,,,,522522,001,2023-10-09_19h54.26.334,fluency,2022.2.4,Win32,59.90176111,,,,,,,,,,,,,,,,,,,,,,,9,1,img/B01_09.jpg,GCNB,Press J if the face is GENDER-CONFORMING and K if the face is NONBINARY,Gender-conforming means that the face appears to be a typical example of its gender. Nonbinary means that the face does not conform to any particular gender norms.,JK,,,,,,,,,,,,,,,,,,,,,,,,,,,,,,,,5,0.7838,,,,,,,,,,,,,,0,21,21,9,1,,,,,,,,,,,,,space,0.672,,,,,,,,,,,,,,,,,,,,,,,,,,,,,,,,,,,,,,,,,,,,,,,,,,,,,,,,,,,,,,,,,,,
,,,,522522,001,2023-10-09_19h54.26.334,fluency,2022.2.4,Win32,59.90176111,,,,,,,,,,,,,,,,,,,,,,,1,5,img/B05_01.jpg,GCNB,Press J if the face is GENDER-CONFORMING and K if the face is NONBINARY,Gender-conforming means that the face appears to be a typical example of its gender. Nonbinary means that the face does not conform to any particular gender norms.,JK,,,,,,,,,,,,,,,,,,,,,,,,,,,,,,,,,,,,,,,,,,,,,,350.461,0,22,22,45,1,109,0,0,0,0,1,98,,,,,,,,,,,,,,,,,,,,,,,,,,,,,,,,,,,,,,,,,,,,,,,,,,,,,,,,,,,,,,,,,,,,,,,,,,
,,,,522522,001,2023-10-09_19h54.26.334,fluency,2022.2.4,Win32,59.90176111,,,,,,,,,,,,,,,,,,,,,,,,,,,,,,,,,,,,,,,,,,,,,,,,,,,,,,,,,,,,,,,,,,,,,,,,,,,,,,,,,,0,0,0,0,1,,"[""j""]",[1.0296000000238337],1,"[""j""]",[1.0294999999999845],,,,,,,,,,,,,,,,,,,,,,,,,,,,,,,,,,,,,,,,,,,,,,,,,,,,,,,,,,,,,,,,,,,,,
,,,,522522,001,2023-10-09_19h54.26.334,fluency,2022.2.4,Win32,59.90176111,,,,,,,,,,,,,,,,,,,,,,,1,5,img/B05_01.jpg,GCNB,Press J if the face is GENDER-CONFORMING and K if the face is NONBINARY,Gender-conforming means that the face appears to be a typical example of its gender. Nonbinary means that the face does not conform to any particular gender norms.,JK,,,,,,,,,,,,,,,,,,,,,,,,,,,,,,,,3,2.6368,,,,,,,,,,,,,,0,22,22,45,1,,,,,,,,,,,,,space,0.4918,,,,,,,,,,,,,,,,,,,,,,,,,,,,,,,,,,,,,,,,,,,,,,,,,,,,,,,,,,,,,,,,,,,
,,,,522522,001,2023-10-09_19h54.26.334,fluency,2022.2.4,Win32,59.90176111,,,,,,,,,,,,,,,,,,,,,,,4,2,img/B02_04.jpg,GCNB,Press J if the face is GENDER-CONFORMING and K if the face is NONBINARY,Gender-conforming means that the face appears to be a typical example of its gender. Nonbinary means that the face does not conform to any particular gender norms.,JK,,,,,,,,,,,,,,,,,,,,,,,,,,,,,,,,,,,,,,,,,,,,,,357.6815,0,23,23,15,1,109,0,0,0,0,1,98,,,,,,,,,,,,,,,,,,,,,,,,,,,,,,,,,,,,,,,,,,,,,,,,,,,,,,,,,,,,,,,,,,,,,,,,,,
,,,,522522,001,2023-10-09_19h54.26.334,fluency,2022.2.4,Win32,59.90176111,,,,,,,,,,,,,,,,,,,,,,,,,,,,,,,,,,,,,,,,,,,,,,,,,,,,,,,,,,,,,,,,,,,,,,,,,,,,,,,,,,0,0,0,0,1,,"[""k""]",[1.0963999999761427],1,"[""k""]",[1.0962999999522935],,,,,,,,,,,,,,,,,,,,,,,,,,,,,,,,,,,,,,,,,,,,,,,,,,,,,,,,,,,,,,,,,,,,,
,,,,522522,001,2023-10-09_19h54.26.334,fluency,2022.2.4,Win32,59.90176111,,,,,,,,,,,,,,,,,,,,,,,4,2,img/B02_04.jpg,GCNB,Press J if the face is GENDER-CONFORMING and K if the face is NONBINARY,Gender-conforming means that the face appears to be a typical example of its gender. Nonbinary means that the face does not conform to any particular gender norms.,JK,,,,,,,,,,,,,,,,,,,,,,,,,,,,,,,,6,1.32,,,,,,,,,,,,,,0,23,23,15,1,,,,,,,,,,,,,space,0.8424,,,,,,,,,,,,,,,,,,,,,,,,,,,,,,,,,,,,,,,,,,,,,,,,,,,,,,,,,,,,,,,,,,,
,,,,522522,001,2023-10-09_19h54.26.334,fluency,2022.2.4,Win32,59.90176111,,,,,,,,,,,,,,,,,,,,,,,2,2,img/B02_02.jpg,GCNB,Press J if the face is GENDER-CONFORMING and K if the face is NONBINARY,Gender-conforming means that the face appears to be a typical example of its gender. Nonbinary means that the face does not conform to any particular gender norms.,JK,,,,,,,,,,,,,,,,,,,,,,,,,,,,,,,,,,,,,,,,,,,,,,364.919,0,24,24,13,1,109,0,0,0,0,1,98,,,,,,,,,,,,,,,,,,,,,,,,,,,,,,,,,,,,,,,,,,,,,,,,,,,,,,,,,,,,,,,,,,,,,,,,,,
,,,,522522,001,2023-10-09_19h54.26.334,fluency,2022.2.4,Win32,59.90176111,,,,,,,,,,,,,,,,,,,,,,,,,,,,,,,,,,,,,,,,,,,,,,,,,,,,,,,,,,,,,,,,,,,,,,,,,,,,,,,,,,0,0,0,0,1,,"[""j""]",[1.714600000023779],1,"[""j""]",[1.71449999999993],,,,,,,,,,,,,,,,,,,,,,,,,,,,,,,,,,,,,,,,,,,,,,,,,,,,,,,,,,,,,,,,,,,,,
,,,,522522,001,2023-10-09_19h54.26.334,fluency,2022.2.4,Win32,59.90176111,,,,,,,,,,,,,,,,,,,,,,,2,2,img/B02_02.jpg,GCNB,Press J if the face is GENDER-CONFORMING and K if the face is NONBINARY,Gender-conforming means that the face appears to be a typical example of its gender. Nonbinary means that the face does not conform to any particular gender norms.,JK,,,,,,,,,,,,,,,,,,,,,,,,,,,,,,,,5,1.5372,,,,,,,,,,,,,,0,24,24,13,1,,,,,,,,,,,,,space,0.9357,,,,,,,,,,,,,,,,,,,,,,,,,,,,,,,,,,,,,,,,,,,,,,,,,,,,,,,,,,,,,,,,,,,
,,,,522522,001,2023-10-09_19h54.26.334,fluency,2022.2.4,Win32,59.90176111,,,,,,,,,,,,,,,,,,,,,,,8,9,img/B09_08.jpg,GCNB,Press J if the face is GENDER-CONFORMING and K if the face is NONBINARY,Gender-conforming means that the face appears to be a typical example of its gender. Nonbinary means that the face does not conform to any particular gender norms.,JK,,,,,,,,,,,,,,,,,,,,,,,,,,,,,,,,,,,,,,,,,,,,,,371.4724,0,25,25,96,1,109,0,0,0,0,1,98,,,,,,,,,,,,,,,,,,,,,,,,,,,,,,,,,,,,,,,,,,,,,,,,,,,,,,,,,,,,,,,,,,,,,,,,,,
,,,,522522,001,2023-10-09_19h54.26.334,fluency,2022.2.4,Win32,59.90176111,,,,,,,,,,,,,,,,,,,,,,,,,,,,,,,,,,,,,,,,,,,,,,,,,,,,,,,,,,,,,,,,,,,,,,,,,,,,,,,,,,0,0,0,0,1,,"[""j""]",[1.1399000000953947],1,"[""j""]",[1.1399000000953947],,,,,,,,,,,,,,,,,,,,,,,,,,,,,,,,,,,,,,,,,,,,,,,,,,,,,,,,,,,,,,,,,,,,,
,,,,522522,001,2023-10-09_19h54.26.334,fluency,2022.2.4,Win32,59.90176111,,,,,,,,,,,,,,,,,,,,,,,8,9,img/B09_08.jpg,GCNB,Press J if the face is GENDER-CONFORMING and K if the face is NONBINARY,Gender-conforming means that the face appears to be a typical example of its gender. Nonbinary means that the face does not conform to any particular gender norms.,JK,,,,,,,,,,,,,,,,,,,,,,,,,,,,,,,,6,1.2736,,,,,,,,,,,,,,0,25,25,96,1,,,,,,,,,,,,,space,0.6979,,,,,,,,,,,,,,,,,,,,,,,,,,,,,,,,,,,,,,,,,,,,,,,,,,,,,,,,,,,,,,,,,,,
,,,,522522,001,2023-10-09_19h54.26.334,fluency,2022.2.4,Win32,59.90176111,,,,,,,,,,,,,,,,,,,,,,,4,7,img/B07_04.jpg,GCNB,Press J if the face is GENDER-CONFORMING and K if the face is NONBINARY,Gender-conforming means that the face appears to be a typical example of its gender. Nonbinary means that the face does not conform to any particular gender norms.,JK,,,,,,,,,,,,,,,,,,,,,,,,,,,,,,,,,,,,,,,,,,,,,,378.5268,0,26,26,70,1,109,0,0,0,0,1,98,,,,,,,,,,,,,,,,,,,,,,,,,,,,,,,,,,,,,,,,,,,,,,,,,,,,,,,,,,,,,,,,,,,,,,,,,,
,,,,522522,001,2023-10-09_19h54.26.334,fluency,2022.2.4,Win32,59.90176111,,,,,,,,,,,,,,,,,,,,,,,,,,,,,,,,,,,,,,,,,,,,,,,,,,,,,,,,,,,,,,,,,,,,,,,,,,,,,,,,,,0,0,0,0,1,,"[""k""]",[0.9517000000477083],1,"[""k""]",[0.9518000000715574],,,,,,,,,,,,,,,,,,,,,,,,,,,,,,,,,,,,,,,,,,,,,,,,,,,,,,,,,,,,,,,,,,,,,
,,,,522522,001,2023-10-09_19h54.26.334,fluency,2022.2.4,Win32,59.90176111,,,,,,,,,,,,,,,,,,,,,,,4,7,img/B07_04.jpg,GCNB,Press J if the face is GENDER-CONFORMING and K if the face is NONBINARY,Gender-conforming means that the face appears to be a typical example of its gender. Nonbinary means that the face does not conform to any particular gender norms.,JK,,,,,,,,,,,,,,,,,,,,,,,,,,,,,,,,6,2.1829,,,,,,,,,,,,,,0,26,26,70,1,,,,,,,,,,,,,space,0.9604,,,,,,,,,,,,,,,,,,,,,,,,,,,,,,,,,,,,,,,,,,,,,,,,,,,,,,,,,,,,,,,,,,,
,,,,522522,001,2023-10-09_19h54.26.334,fluency,2022.2.4,Win32,59.90176111,,,,,,,,,,,,,,,,,,,,,,,6,5,img/B05_06.jpg,GCNB,Press J if the face is GENDER-CONFORMING and K if the face is NONBINARY,Gender-conforming means that the face appears to be a typical example of its gender. Nonbinary means that the face does not conform to any particular gender norms.,JK,,,,,,,,,,,,,,,,,,,,,,,,,,,,,,,,,,,,,,,,,,,,,,385.7638,0,27,27,50,1,109,0,0,0,0,1,98,,,,,,,,,,,,,,,,,,,,,,,,,,,,,,,,,,,,,,,,,,,,,,,,,,,,,,,,,,,,,,,,,,,,,,,,,,
,,,,522522,001,2023-10-09_19h54.26.334,fluency,2022.2.4,Win32,59.90176111,,,,,,,,,,,,,,,,,,,,,,,,,,,,,,,,,,,,,,,,,,,,,,,,,,,,,,,,,,,,,,,,,,,,,,,,,,,,,,,,,,0,0,0,0,1,,"[""j""]",[0.9635000000000673],1,"[""j""]",[0.9635999999046589],,,,,,,,,,,,,,,,,,,,,,,,,,,,,,,,,,,,,,,,,,,,,,,,,,,,,,,,,,,,,,,,,,,,,
,,,,522522,001,2023-10-09_19h54.26.334,fluency,2022.2.4,Win32,59.90176111,,,,,,,,,,,,,,,,,,,,,,,6,5,img/B05_06.jpg,GCNB,Press J if the face is GENDER-CONFORMING and K if the face is NONBINARY,Gender-conforming means that the face appears to be a typical example of its gender. Nonbinary means that the face does not conform to any particular gender norms.,JK,,,,,,,,,,,,,,,,,,,,,,,,,,,,,,,,7,2.203,,,,,,,,,,,,,,0,27,27,50,1,,,,,,,,,,,,,space,0.6181,,,,,,,,,,,,,,,,,,,,,,,,,,,,,,,,,,,,,,,,,,,,,,,,,,,,,,,,,,,,,,,,,,,
,,,,522522,001,2023-10-09_19h54.26.334,fluency,2022.2.4,Win32,59.90176111,,,,,,,,,,,,,,,,,,,,,,,9,8,img/B08_09.jpg,GCNB,Press J if the face is GENDER-CONFORMING and K if the face is NONBINARY,Gender-conforming means that the face appears to be a typical example of its gender. Nonbinary means that the face does not conform to any particular gender norms.,JK,,,,,,,,,,,,,,,,,,,,,,,,,,,,,,,,,,,,,,,,,,,,,,393.6685,0,28,28,86,1,109,0,0,0,0,1,98,,,,,,,,,,,,,,,,,,,,,,,,,,,,,,,,,,,,,,,,,,,,,,,,,,,,,,,,,,,,,,,,,,,,,,,,,,
,,,,522522,001,2023-10-09_19h54.26.334,fluency,2022.2.4,Win32,59.90176111,,,,,,,,,,,,,,,,,,,,,,,,,,,,,,,,,,,,,,,,,,,,,,,,,,,,,,,,,,,,,,,,,,,,,,,,,,,,,,,,,,0,0,0,0,1,,"[""j""]",[0.8476999999285226],1,"[""j""]",[0.8477000000476664],,,,,,,,,,,,,,,,,,,,,,,,,,,,,,,,,,,,,,,,,,,,,,,,,,,,,,,,,,,,,,,,,,,,,
,,,,522522,001,2023-10-09_19h54.26.334,fluency,2022.2.4,Win32,59.90176111,,,,,,,,,,,,,,,,,,,,,,,9,8,img/B08_09.jpg,GCNB,Press J if the face is GENDER-CONFORMING and K if the face is NONBINARY,Gender-conforming means that the face appears to be a typical example of its gender. Nonbinary means that the face does not conform to any particular gender norms.,JK,,,,,,,,,,,,,,,,,,,,,,,,,,,,,,,,3,1.7519,,,,,,,,,,,,,,0,28,28,86,1,,,,,,,,,,,,,space,0.5766,,,,,,,,,,,,,,,,,,,,,,,,,,,,,,,,,,,,,,,,,,,,,,,,,,,,,,,,,,,,,,,,,,,
,,,,522522,001,2023-10-09_19h54.26.334,fluency,2022.2.4,Win32,59.90176111,,,,,,,,,,,,,,,,,,,,,,,0,10,img/B10_00.jpg,GCNB,Press J if the face is GENDER-CONFORMING and K if the face is NONBINARY,Gender-conforming means that the face appears to be a typical example of its gender. Nonbinary means that the face does not conform to any particular gender norms.,JK,,,,,,,,,,,,,,,,,,,,,,,,,,,,,,,,,,,,,,,,,,,,,,400.0887,0,29,29,99,1,109,0,0,0,0,1,98,,,,,,,,,,,,,,,,,,,,,,,,,,,,,,,,,,,,,,,,,,,,,,,,,,,,,,,,,,,,,,,,,,,,,,,,,,
,,,,522522,001,2023-10-09_19h54.26.334,fluency,2022.2.4,Win32,59.90176111,,,,,,,,,,,,,,,,,,,,,,,,,,,,,,,,,,,,,,,,,,,,,,,,,,,,,,,,,,,,,,,,,,,,,,,,,,,,,,,,,,0,0,0,0,1,,"[""j""]",[1.6023000000716365],1,"[""j""]",[1.6023999999762282],,,,,,,,,,,,,,,,,,,,,,,,,,,,,,,,,,,,,,,,,,,,,,,,,,,,,,,,,,,,,,,,,,,,,
,,,,522522,001,2023-10-09_19h54.26.334,fluency,2022.2.4,Win32,59.90176111,,,,,,,,,,,,,,,,,,,,,,,0,10,img/B10_00.jpg,GCNB,Press J if the face is GENDER-CONFORMING and K if the face is NONBINARY,Gender-conforming means that the face appears to be a typical example of its gender. Nonbinary means that the face does not conform to any particular gender norms.,JK,,,,,,,,,,,,,,,,,,,,,,,,,,,,,,,,3,0.3781,,,,,,,,,,,,,,0,29,29,99,1,,,,,,,,,,,,,space,0.6573,,,,,,,,,,,,,,,,,,,,,,,,,,,,,,,,,,,,,,,,,,,,,,,,,,,,,,,,,,,,,,,,,,,
,,,,522522,001,2023-10-09_19h54.26.334,fluency,2022.2.4,Win32,59.90176111,,,,,,,,,,,,,,,,,,,,,,,3,2,img/B02_03.jpg,GCNB,Press J if the face is GENDER-CONFORMING and K if the face is NONBINARY,Gender-conforming means that the face appears to be a typical example of its gender. Nonbinary means that the face does not conform to any particular gender norms.,JK,,,,,,,,,,,,,,,,,,,,,,,,,,,,,,,,,,,,,,,,,,,,,,405.2254,0,30,30,14,1,109,0,0,0,0,1,98,,,,,,,,,,,,,,,,,,,,,,,,,,,,,,,,,,,,,,,,,,,,,,,,,,,,,,,,,,,,,,,,,,,,,,,,,,
,,,,522522,001,2023-10-09_19h54.26.334,fluency,2022.2.4,Win32,59.90176111,,,,,,,,,,,,,,,,,,,,,,,,,,,,,,,,,,,,,,,,,,,,,,,,,,,,,,,,,,,,,,,,,,,,,,,,,,,,,,,,,,0,0,0,0,1,,"[""k""]",[1.595900000095412],1,"[""k""]",[1.5958000000715629],,,,,,,,,,,,,,,,,,,,,,,,,,,,,,,,,,,,,,,,,,,,,,,,,,,,,,,,,,,,,,,,,,,,,
,,,,522522,001,2023-10-09_19h54.26.334,fluency,2022.2.4,Win32,59.90176111,,,,,,,,,,,,,,,,,,,,,,,3,2,img/B02_03.jpg,GCNB,Press J if the face is GENDER-CONFORMING and K if the face is NONBINARY,Gender-conforming means that the face appears to be a typical example of its gender. Nonbinary means that the face does not conform to any particular gender norms.,JK,,,,,,,,,,,,,,,,,,,,,,,,,,,,,,,,6,1.3179,,,,,,,,,,,,,,0,30,30,14,1,,,,,,,,,,,,,space,0.4878,,,,,,,,,,,,,,,,,,,,,,,,,,,,,,,,,,,,,,,,,,,,,,,,,,,,,,,,,,,,,,,,,,,
,,,,522522,001,2023-10-09_19h54.26.334,fluency,2022.2.4,Win32,59.90176111,,,,,,,,,,,,,,,,,,,,,,,8,2,img/B02_08.jpg,GCNB,Press J if the face is GENDER-CONFORMING and K if the face is NONBINARY,Gender-conforming means that the face appears to be a typical example of its gender. Nonbinary means that the face does not conform to any particular gender norms.,JK,,,,,,,,,,,,,,,,,,,,,,,,,,,,,,,,,,,,,,,,,,,,,,411.1118,0,31,31,19,1,109,0,0,0,0,1,98,,,,,,,,,,,,,,,,,,,,,,,,,,,,,,,,,,,,,,,,,,,,,,,,,,,,,,,,,,,,,,,,,,,,,,,,,,
,,,,522522,001,2023-10-09_19h54.26.334,fluency,2022.2.4,Win32,59.90176111,,,,,,,,,,,,,,,,,,,,,,,,,,,,,,,,,,,,,,,,,,,,,,,,,,,,,,,,,,,,,,,,,,,,,,,,,,,,,,,,,,0,0,0,0,1,,"[""j""]",[1.2798999999761236],1,"[""j""]",[1.2799999999999727],,,,,,,,,,,,,,,,,,,,,,,,,,,,,,,,,,,,,,,,,,,,,,,,,,,,,,,,,,,,,,,,,,,,,
,,,,522522,001,2023-10-09_19h54.26.334,fluency,2022.2.4,Win32,59.90176111,,,,,,,,,,,,,,,,,,,,,,,8,2,img/B02_08.jpg,GCNB,Press J if the face is GENDER-CONFORMING and K if the face is NONBINARY,Gender-conforming means that the face appears to be a typical example of its gender. Nonbinary means that the face does not conform to any particular gender norms.,JK,,,,,,,,,,,,,,,,,,,,,,,,,,,,,,,,8,0.4205,,,,,,,,,,,,,,0,31,31,19,1,,,,,,,,,,,,,space,0.7229,,,,,,,,,,,,,,,,,,,,,,,,,,,,,,,,,,,,,,,,,,,,,,,,,,,,,,,,,,,,,,,,,,,
,,,,522522,001,2023-10-09_19h54.26.334,fluency,2022.2.4,Win32,59.90176111,,,,,,,,,,,,,,,,,,,,,,,6,4,img/B04_06.jpg,GCNB,Press J if the face is GENDER-CONFORMING and K if the face is NONBINARY,Gender-conforming means that the face appears to be a typical example of its gender. Nonbinary means that the face does not conform to any particular gender norms.,JK,,,,,,,,,,,,,,,,,,,,,,,,,,,,,,,,,,,,,,,,,,,,,,416.3144,0,32,32,39,1,109,0,0,0,0,1,98,,,,,,,,,,,,,,,,,,,,,,,,,,,,,,,,,,,,,,,,,,,,,,,,,,,,,,,,,,,,,,,,,,,,,,,,,,
,,,,522522,001,2023-10-09_19h54.26.334,fluency,2022.2.4,Win32,59.90176111,,,,,,,,,,,,,,,,,,,,,,,,,,,,,,,,,,,,,,,,,,,,,,,,,,,,,,,,,,,,,,,,,,,,,,,,,,,,,,,,,,0,0,0,0,1,,"[""j""]",[1.7698999999762464],1,"[""j""]",[1.7698999999762464],,,,,,,,,,,,,,,,,,,,,,,,,,,,,,,,,,,,,,,,,,,,,,,,,,,,,,,,,,,,,,,,,,,,,
,,,,522522,001,2023-10-09_19h54.26.334,fluency,2022.2.4,Win32,59.90176111,,,,,,,,,,,,,,,,,,,,,,,6,4,img/B04_06.jpg,GCNB,Press J if the face is GENDER-CONFORMING and K if the face is NONBINARY,Gender-conforming means that the face appears to be a typical example of its gender. Nonbinary means that the face does not conform to any particular gender norms.,JK,,,,,,,,,,,,,,,,,,,,,,,,,,,,,,,,5,1.2164,,,,,,,,,,,,,,0,32,32,39,1,,,,,,,,,,,,,space,0.5609,,,,,,,,,,,,,,,,,,,,,,,,,,,,,,,,,,,,,,,,,,,,,,,,,,,,,,,,,,,,,,,,,,,
,,,,522522,001,2023-10-09_19h54.26.334,fluency,2022.2.4,Win32,59.90176111,,,,,,,,,,,,,,,,,,,,,,,9,3,img/B03_09.jpg,GCNB,Press J if the face is GENDER-CONFORMING and K if the face is NONBINARY,Gender-conforming means that the face appears to be a typical example of its gender. Nonbinary means that the face does not conform to any particular gender norms.,JK,,,,,,,,,,,,,,,,,,,,,,,,,,,,,,,,,,,,,,,,,,,,,,422.1847,0,33,33,31,1,109,0,0,0,0,1,98,,,,,,,,,,,,,,,,,,,,,,,,,,,,,,,,,,,,,,,,,,,,,,,,,,,,,,,,,,,,,,,,,,,,,,,,,,
,,,,522522,001,2023-10-09_19h54.26.334,fluency,2022.2.4,Win32,59.90176111,,,,,,,,,,,,,,,,,,,,,,,,,,,,,,,,,,,,,,,,,,,,,,,,,,,,,,,,,,,,,,,,,,,,,,,,,,,,,,,,,,0,0,0,0,1,,"[""j""]",[1.1458999999762227],1,"[""j""]",[1.1458999999762227],,,,,,,,,,,,,,,,,,,,,,,,,,,,,,,,,,,,,,,,,,,,,,,,,,,,,,,,,,,,,,,,,,,,,
,,,,522522,001,2023-10-09_19h54.26.334,fluency,2022.2.4,Win32,59.90176111,,,,,,,,,,,,,,,,,,,,,,,9,3,img/B03_09.jpg,GCNB,Press J if the face is GENDER-CONFORMING and K if the face is NONBINARY,Gender-conforming means that the face appears to be a typical example of its gender. Nonbinary means that the face does not conform to any particular gender norms.,JK,,,,,,,,,,,,,,,,,,,,,,,,,,,,,,,,5,1.9445,,,,,,,,,,,,,,0,33,33,31,1,,,,,,,,,,,,,space,0.6075,,,,,,,,,,,,,,,,,,,,,,,,,,,,,,,,,,,,,,,,,,,,,,,,,,,,,,,,,,,,,,,,,,,
,,,,522522,001,2023-10-09_19h54.26.334,fluency,2022.2.4,Win32,59.90176111,,,,,,,,,,,,,,,,,,,,,,,4,3,img/B03_04.jpg,GCNB,Press J if the face is GENDER-CONFORMING and K if the face is NONBINARY,Gender-conforming means that the face appears to be a typical example of its gender. Nonbinary means that the face does not conform to any particular gender norms.,JK,,,,,,,,,,,,,,,,,,,,,,,,,,,,,,,,,,,,,,,,,,,,,,429.8392,0,34,34,26,1,109,0,0,0,0,1,98,,,,,,,,,,,,,,,,,,,,,,,,,,,,,,,,,,,,,,,,,,,,,,,,,,,,,,,,,,,,,,,,,,,,,,,,,,
,,,,522522,001,2023-10-09_19h54.26.334,fluency,2022.2.4,Win32,59.90176111,,,,,,,,,,,,,,,,,,,,,,,,,,,,,,,,,,,,,,,,,,,,,,,,,,,,,,,,,,,,,,,,,,,,,,,,,,,,,,,,,,0,0,0,0,1,,"[""j""]",[1.2488999999761745],1,"[""j""]",[1.2488999999761745],,,,,,,,,,,,,,,,,,,,,,,,,,,,,,,,,,,,,,,,,,,,,,,,,,,,,,,,,,,,,,,,,,,,,
,,,,522522,001,2023-10-09_19h54.26.334,fluency,2022.2.4,Win32,59.90176111,,,,,,,,,,,,,,,,,,,,,,,4,3,img/B03_04.jpg,GCNB,Press J if the face is GENDER-CONFORMING and K if the face is NONBINARY,Gender-conforming means that the face appears to be a typical example of its gender. Nonbinary means that the face does not conform to any particular gender norms.,JK,,,,,,,,,,,,,,,,,,,,,,,,,,,,,,,,5,2.0447,,,,,,,,,,,,,,0,34,34,26,1,,,,,,,,,,,,,space,1.316,,,,,,,,,,,,,,,,,,,,,,,,,,,,,,,,,,,,,,,,,,,,,,,,,,,,,,,,,,,,,,,,,,,
,,,,522522,001,2023-10-09_19h54.26.334,fluency,2022.2.4,Win32,59.90176111,,,,,,,,,,,,,,,,,,,,,,,1,6,img/B06_01.jpg,GCNB,Press J if the face is GENDER-CONFORMING and K if the face is NONBINARY,Gender-conforming means that the face appears to be a typical example of its gender. Nonbinary means that the face does not conform to any particular gender norms.,JK,,,,,,,,,,,,,,,,,,,,,,,,,,,,,,,,,,,,,,,,,,,,,,438.2771,0,35,35,56,1,109,0,0,0,0,1,98,,,,,,,,,,,,,,,,,,,,,,,,,,,,,,,,,,,,,,,,,,,,,,,,,,,,,,,,,,,,,,,,,,,,,,,,,,
,,,,522522,001,2023-10-09_19h54.26.334,fluency,2022.2.4,Win32,59.90176111,,,,,,,,,,,,,,,,,,,,,,,,,,,,,,,,,,,,,,,,,,,,,,,,,,,,,,,,,,,,,,,,,,,,,,,,,,,,,,,,,,0,0,0,0,1,,"[""j""]",[0.9138000000715465],1,"[""j""]",[0.9139000000953956],,,,,,,,,,,,,,,,,,,,,,,,,,,,,,,,,,,,,,,,,,,,,,,,,,,,,,,,,,,,,,,,,,,,,
,,,,522522,001,2023-10-09_19h54.26.334,fluency,2022.2.4,Win32,59.90176111,,,,,,,,,,,,,,,,,,,,,,,1,6,img/B06_01.jpg,GCNB,Press J if the face is GENDER-CONFORMING and K if the face is NONBINARY,Gender-conforming means that the face appears to be a typical example of its gender. Nonbinary means that the face does not conform to any particular gender norms.,JK,,,,,,,,,,,,,,,,,,,,,,,,,,,,,,,,4,0.9826,,,,,,,,,,,,,,0,35,35,56,1,,,,,,,,,,,,,space,0.4876,,,,,,,,,,,,,,,,,,,,,,,,,,,,,,,,,,,,,,,,,,,,,,,,,,,,,,,,,,,,,,,,,,,
,,,,522522,001,2023-10-09_19h54.26.334,fluency,2022.2.4,Win32,59.90176111,,,,,,,,,,,,,,,,,,,,,,,7,6,img/B06_07.jpg,GCNB,Press J if the face is GENDER-CONFORMING and K if the face is NONBINARY,Gender-conforming means that the face appears to be a typical example of its gender. Nonbinary means that the face does not conform to any particular gender norms.,JK,,,,,,,,,,,,,,,,,,,,,,,,,,,,,,,,,,,,,,,,,,,,,,443.8469,0,36,36,62,1,109,0,0,0,0,1,98,,,,,,,,,,,,,,,,,,,,,,,,,,,,,,,,,,,,,,,,,,,,,,,,,,,,,,,,,,,,,,,,,,,,,,,,,,
,,,,522522,001,2023-10-09_19h54.26.334,fluency,2022.2.4,Win32,59.90176111,,,,,,,,,,,,,,,,,,,,,,,,,,,,,,,,,,,,,,,,,,,,,,,,,,,,,,,,,,,,,,,,,,,,,,,,,,,,,,,,,,0,0,0,0,1,,"[""j""]",[1.812100000023861],1,"[""j""]",[1.812100000023861],,,,,,,,,,,,,,,,,,,,,,,,,,,,,,,,,,,,,,,,,,,,,,,,,,,,,,,,,,,,,,,,,,,,,
,,,,522522,001,2023-10-09_19h54.26.334,fluency,2022.2.4,Win32,59.90176111,,,,,,,,,,,,,,,,,,,,,,,7,6,img/B06_07.jpg,GCNB,Press J if the face is GENDER-CONFORMING and K if the face is NONBINARY,Gender-conforming means that the face appears to be a typical example of its gender. Nonbinary means that the face does not conform to any particular gender norms.,JK,,,,,,,,,,,,,,,,,,,,,,,,,,,,,,,,4,2.2945,,,,,,,,,,,,,,0,36,36,62,1,,,,,,,,,,,,,space,0.422,,,,,,,,,,,,,,,,,,,,,,,,,,,,,,,,,,,,,,,,,,,,,,,,,,,,,,,,,,,,,,,,,,,
,,,,522522,001,2023-10-09_19h54.26.334,fluency,2022.2.4,Win32,59.90176111,,,,,,,,,,,,,,,,,,,,,,,10,5,img/B05_10.jpg,GCNB,Press J if the face is GENDER-CONFORMING and K if the face is NONBINARY,Gender-conforming means that the face appears to be a typical example of its gender. Nonbinary means that the face does not conform to any particular gender norms.,JK,,,,,,,,,,,,,,,,,,,,,,,,,,,,,,,,,,,,,,,,,,,,,,450.6341,0,37,37,54,1,109,0,0,0,0,1,98,,,,,,,,,,,,,,,,,,,,,,,,,,,,,,,,,,,,,,,,,,,,,,,,,,,,,,,,,,,,,,,,,,,,,,,,,,
,,,,522522,001,2023-10-09_19h54.26.334,fluency,2022.2.4,Win32,59.90176111,,,,,,,,,,,,,,,,,,,,,,,,,,,,,,,,,,,,,,,,,,,,,,,,,,,,,,,,,,,,,,,,,,,,,,,,,,,,,,,,,,0,0,0,0,1,,"[""j""]",[0.9644000000953383],1,"[""j"",""space""]","[0.9643000000714892,1.831600000023741]",,,,,,,,,,,,,,,,,,,,,,,,,,,,,,,,,,,,,,,,,,,,,,,,,,,,,,,,,,,,,,,,,,,,,
,,,,522522,001,2023-10-09_19h54.26.334,fluency,2022.2.4,Win32,59.90176111,,,,,,,,,,,,,,,,,,,,,,,10,5,img/B05_10.jpg,GCNB,Press J if the face is GENDER-CONFORMING and K if the face is NONBINARY,Gender-conforming means that the face appears to be a typical example of its gender. Nonbinary means that the face does not conform to any particular gender norms.,JK,,,,,,,,,,,,,,,,,,,,,,,,,,,,,,,,5,0.8354,,,,,,,,,,,,,,0,37,37,54,1,,,,,,,,,,,,,space,0.5911,,,,,,,,,,,,,,,,,,,,,,,,,,,,,,,,,,,,,,,,,,,,,,,,,,,,,,,,,,,,,,,,,,,
,,,,522522,001,2023-10-09_19h54.26.334,fluency,2022.2.4,Win32,59.90176111,,,,,,,,,,,,,,,,,,,,,,,5,4,img/B04_05.jpg,GCNB,Press J if the face is GENDER-CONFORMING and K if the face is NONBINARY,Gender-conforming means that the face appears to be a typical example of its gender. Nonbinary means that the face does not conform to any particular gender norms.,JK,,,,,,,,,,,,,,,,,,,,,,,,,,,,,,,,,,,,,,,,,,,,,,456.1373,0,38,38,38,1,109,0,0,0,0,1,98,,,,,,,,,,,,,,,,,,,,,,,,,,,,,,,,,,,,,,,,,,,,,,,,,,,,,,,,,,,,,,,,,,,,,,,,,,
,,,,522522,001,2023-10-09_19h54.26.334,fluency,2022.2.4,Win32,59.90176111,,,,,,,,,,,,,,,,,,,,,,,,,,,,,,,,,,,,,,,,,,,,,,,,,,,,,,,,,,,,,,,,,,,,,,,,,,,,,,,,,,0,0,0,0,1,,"[""k""]",[1.9475000000001046],1,"[""k""]",[1.947499999999991],,,,,,,,,,,,,,,,,,,,,,,,,,,,,,,,,,,,,,,,,,,,,,,,,,,,,,,,,,,,,,,,,,,,,
,,,,522522,001,2023-10-09_19h54.26.334,fluency,2022.2.4,Win32,59.90176111,,,,,,,,,,,,,,,,,,,,,,,5,4,img/B04_05.jpg,GCNB,Press J if the face is GENDER-CONFORMING and K if the face is NONBINARY,Gender-conforming means that the face appears to be a typical example of its gender. Nonbinary means that the face does not conform to any particular gender norms.,JK,,,,,,,,,,,,,,,,,,,,,,,,,,,,,,,,5,3.0016,,,,,,,,,,,,,,0,38,38,38,1,,,,,,,,,,,,,space,0.351,,,,,,,,,,,,,,,,,,,,,,,,,,,,,,,,,,,,,,,,,,,,,,,,,,,,,,,,,,,,,,,,,,,
,,,,522522,001,2023-10-09_19h54.26.334,fluency,2022.2.4,Win32,59.90176111,,,,,,,,,,,,,,,,,,,,,,,5,2,img/B02_05.jpg,GCNB,Press J if the face is GENDER-CONFORMING and K if the face is NONBINARY,Gender-conforming means that the face appears to be a typical example of its gender. Nonbinary means that the face does not conform to any particular gender norms.,JK,,,,,,,,,,,,,,,,,,,,,,,,,,,,,,,,,,,,,,,,,,,,,,464.5922,0,39,39,16,1,109,0,0,0,0,1,98,,,,,,,,,,,,,,,,,,,,,,,,,,,,,,,,,,,,,,,,,,,,,,,,,,,,,,,,,,,,,,,,,,,,,,,,,,
,,,,522522,001,2023-10-09_19h54.26.334,fluency,2022.2.4,Win32,59.90176111,,,,,,,,,,,,,,,,,,,,,,,,,,,,,,,,,,,,,,,,,,,,,,,,,,,,,,,,,,,,,,,,,,,,,,,,,,,,,,,,,,0,0,0,0,1,,"[""k""]",[1.1854999999999336],1,"[""k""]",[1.1853999999760845],,,,,,,,,,,,,,,,,,,,,,,,,,,,,,,,,,,,,,,,,,,,,,,,,,,,,,,,,,,,,,,,,,,,,
,,,,522522,001,2023-10-09_19h54.26.334,fluency,2022.2.4,Win32,59.90176111,,,,,,,,,,,,,,,,,,,,,,,5,2,img/B02_05.jpg,GCNB,Press J if the face is GENDER-CONFORMING and K if the face is NONBINARY,Gender-conforming means that the face appears to be a typical example of its gender. Nonbinary means that the face does not conform to any particular gender norms.,JK,,,,,,,,,,,,,,,,,,,,,,,,,,,,,,,,7,0.4447,,,,,,,,,,,,,,0,39,39,16,1,,,,,,,,,,,,,space,0.6303,,,,,,,,,,,,,,,,,,,,,,,,,,,,,,,,,,,,,,,,,,,,,,,,,,,,,,,,,,,,,,,,,,,
,,,,522522,001,2023-10-09_19h54.26.334,fluency,2022.2.4,Win32,59.90176111,,,,,,,,,,,,,,,,,,,,,,,5,6,img/B06_05.jpg,GCNB,Press J if the face is GENDER-CONFORMING and K if the face is NONBINARY,Gender-conforming means that the face appears to be a typical example of its gender. Nonbinary means that the face does not conform to any particular gender norms.,JK,,,,,,,,,,,,,,,,,,,,,,,,,,,,,,,,,,,,,,,,,,,,,,470.7284,0,40,40,60,1,109,0,0,0,0,1,98,,,,,,,,,,,,,,,,,,,,,,,,,,,,,,,,,,,,,,,,,,,,,,,,,,,,,,,,,,,,,,,,,,,,,,,,,,
,,,,522522,001,2023-10-09_19h54.26.334,fluency,2022.2.4,Win32,59.90176111,,,,,,,,,,,,,,,,,,,,,,,,,,,,,,,,,,,,,,,,,,,,,,,,,,,,,,,,,,,,,,,,,,,,,,,,,,,,,,,,,,0,0,0,0,1,,"[""j""]",[1.612800000071502],1,"[""j""]",[1.612900000095351],,,,,,,,,,,,,,,,,,,,,,,,,,,,,,,,,,,,,,,,,,,,,,,,,,,,,,,,,,,,,,,,,,,,,
,,,,522522,001,2023-10-09_19h54.26.334,fluency,2022.2.4,Win32,59.90176111,,,,,,,,,,,,,,,,,,,,,,,5,6,img/B06_05.jpg,GCNB,Press J if the face is GENDER-CONFORMING and K if the face is NONBINARY,Gender-conforming means that the face appears to be a typical example of its gender. Nonbinary means that the face does not conform to any particular gender norms.,JK,,,,,,,,,,,,,,,,,,,,,,,,,,,,,,,,4,2.4606,,,,,,,,,,,,,,0,40,40,60,1,,,,,,,,,,,,,space,0.6708,,,,,,,,,,,,,,,,,,,,,,,,,,,,,,,,,,,,,,,,,,,,,,,,,,,,,,,,,,,,,,,,,,,
,,,,522522,001,2023-10-09_19h54.26.334,fluency,2022.2.4,Win32,59.90176111,,,,,,,,,,,,,,,,,,,,,,,10,3,img/B03_10.jpg,GCNB,Press J if the face is GENDER-CONFORMING and K if the face is NONBINARY,Gender-conforming means that the face appears to be a typical example of its gender. Nonbinary means that the face does not conform to any particular gender norms.,JK,,,,,,,,,,,,,,,,,,,,,,,,,,,,,,,,,,,,,,,,,,,,,,477.9324,0,41,41,32,1,109,0,0,0,0,1,98,,,,,,,,,,,,,,,,,,,,,,,,,,,,,,,,,,,,,,,,,,,,,,,,,,,,,,,,,,,,,,,,,,,,,,,,,,
,,,,522522,001,2023-10-09_19h54.26.334,fluency,2022.2.4,Win32,59.90176111,,,,,,,,,,,,,,,,,,,,,,,,,,,,,,,,,,,,,,,,,,,,,,,,,,,,,,,,,,,,,,,,,,,,,,,,,,,,,,,,,,0,0,0,0,1,,"[""j""]",[0.9162999999523436],1,"[""j""]",[0.9161999999284944],,,,,,,,,,,,,,,,,,,,,,,,,,,,,,,,,,,,,,,,,,,,,,,,,,,,,,,,,,,,,,,,,,,,,
,,,,522522,001,2023-10-09_19h54.26.334,fluency,2022.2.4,Win32,59.90176111,,,,,,,,,,,,,,,,,,,,,,,10,3,img/B03_10.jpg,GCNB,Press J if the face is GENDER-CONFORMING and K if the face is NONBINARY,Gender-conforming means that the face appears to be a typical example of its gender. Nonbinary means that the face does not conform to any particular gender norms.,JK,,,,,,,,,,,,,,,,,,,,,,,,,,,,,,,,5,1.9328,,,,,,,,,,,,,,0,41,41,32,1,,,,,,,,,,,,,space,0.6353,,,,,,,,,,,,,,,,,,,,,,,,,,,,,,,,,,,,,,,,,,,,,,,,,,,,,,,,,,,,,,,,,,,
,,,,522522,001,2023-10-09_19h54.26.334,fluency,2022.2.4,Win32,59.90176111,,,,,,,,,,,,,,,,,,,,,,,2,3,img/B03_02.jpg,GCNB,Press J if the face is GENDER-CONFORMING and K if the face is NONBINARY,Gender-conforming means that the face appears to be a typical example of its gender. Nonbinary means that the face does not conform to any particular gender norms.,JK,,,,,,,,,,,,,,,,,,,,,,,,,,,,,,,,,,,,,,,,,,,,,,484.6034,0,42,42,24,1,109,0,0,0,0,1,98,,,,,,,,,,,,,,,,,,,,,,,,,,,,,,,,,,,,,,,,,,,,,,,,,,,,,,,,,,,,,,,,,,,,,,,,,,
,,,,522522,001,2023-10-09_19h54.26.334,fluency,2022.2.4,Win32,59.90176111,,,,,,,,,,,,,,,,,,,,,,,,,,,,,,,,,,,,,,,,,,,,,,,,,,,,,,,,,,,,,,,,,,,,,,,,,,,,,,,,,,0,0,0,0,1,,"[""j""]",[0.9953999999762573],1,"[""j""]",[0.995300000071552],,,,,,,,,,,,,,,,,,,,,,,,,,,,,,,,,,,,,,,,,,,,,,,,,,,,,,,,,,,,,,,,,,,,,
,,,,522522,001,2023-10-09_19h54.26.334,fluency,2022.2.4,Win32,59.90176111,,,,,,,,,,,,,,,,,,,,,,,2,3,img/B03_02.jpg,GCNB,Press J if the face is GENDER-CONFORMING and K if the face is NONBINARY,Gender-conforming means that the face appears to be a typical example of its gender. Nonbinary means that the face does not conform to any particular gender norms.,JK,,,,,,,,,,,,,,,,,,,,,,,,,,,,,,,,4,0.6113,,,,,,,,,,,,,,0,42,42,24,1,,,,,,,,,,,,,space,0.565,,,,,,,,,,,,,,,,,,,,,,,,,,,,,,,,,,,,,,,,,,,,,,,,,,,,,,,,,,,,,,,,,,,
,,,,522522,001,2023-10-09_19h54.26.334,fluency,2022.2.4,Win32,59.90176111,,,,,,,,,,,,,,,,,,,,,,,10,7,img/B07_10.jpg,GCNB,Press J if the face is GENDER-CONFORMING and K if the face is NONBINARY,Gender-conforming means that the face appears to be a typical example of its gender. Nonbinary means that the face does not conform to any particular gender norms.,JK,,,,,,,,,,,,,,,,,,,,,,,,,,,,,,,,,,,,,,,,,,,,,,489.8393,0,43,43,76,1,109,0,0,0,0,1,98,,,,,,,,,,,,,,,,,,,,,,,,,,,,,,,,,,,,,,,,,,,,,,,,,,,,,,,,,,,,,,,,,,,,,,,,,,
,,,,522522,001,2023-10-09_19h54.26.334,fluency,2022.2.4,Win32,59.90176111,,,,,,,,,,,,,,,,,,,,,,,,,,,,,,,,,,,,,,,,,,,,,,,,,,,,,,,,,,,,,,,,,,,,,,,,,,,,,,,,,,0,0,0,0,1,,"[""j""]",[1.2978999999761527],1,"[""j""]",[1.2977999999523036],,,,,,,,,,,,,,,,,,,,,,,,,,,,,,,,,,,,,,,,,,,,,,,,,,,,,,,,,,,,,,,,,,,,,
,,,,522522,001,2023-10-09_19h54.26.334,fluency,2022.2.4,Win32,59.90176111,,,,,,,,,,,,,,,,,,,,,,,10,7,img/B07_10.jpg,GCNB,Press J if the face is GENDER-CONFORMING and K if the face is NONBINARY,Gender-conforming means that the face appears to be a typical example of its gender. Nonbinary means that the face does not conform to any particular gender norms.,JK,,,,,,,,,,,,,,,,,,,,,,,,,,,,,,,,8,2.1073,,,,,,,,,,,,,,0,43,43,76,1,,,,,,,,,,,,,space,0.5738,,,,,,,,,,,,,,,,,,,,,,,,,,,,,,,,,,,,,,,,,,,,,,,,,,,,,,,,,,,,,,,,,,,
,,,,522522,001,2023-10-09_19h54.26.334,fluency,2022.2.4,Win32,59.90176111,,,,,,,,,,,,,,,,,,,,,,,7,9,img/B09_07.jpg,GCNB,Press J if the face is GENDER-CONFORMING and K if the face is NONBINARY,Gender-conforming means that the face appears to be a typical example of its gender. Nonbinary means that the face does not conform to any particular gender norms.,JK,,,,,,,,,,,,,,,,,,,,,,,,,,,,,,,,,,,,,,,,,,,,,,496.6098,0,44,44,95,1,109,0,0,0,0,1,98,,,,,,,,,,,,,,,,,,,,,,,,,,,,,,,,,,,,,,,,,,,,,,,,,,,,,,,,,,,,,,,,,,,,,,,,,,
,,,,522522,001,2023-10-09_19h54.26.334,fluency,2022.2.4,Win32,59.90176111,,,,,,,,,,,,,,,,,,,,,,,,,,,,,,,,,,,,,,,,,,,,,,,,,,,,,,,,,,,,,,,,,,,,,,,,,,,,,,,,,,0,0,0,0,1,,"[""j""]",[1.6062000000476928],1,"[""space"",""j""]","[0.14090000009537107,1.6062000000476928]",,,,,,,,,,,,,,,,,,,,,,,,,,,,,,,,,,,,,,,,,,,,,,,,,,,,,,,,,,,,,,,,,,,,,
,,,,522522,001,2023-10-09_19h54.26.334,fluency,2022.2.4,Win32,59.90176111,,,,,,,,,,,,,,,,,,,,,,,7,9,img/B09_07.jpg,GCNB,Press J if the face is GENDER-CONFORMING and K if the face is NONBINARY,Gender-conforming means that the face appears to be a typical example of its gender. Nonbinary means that the face does not conform to any particular gender norms.,JK,,,,,,,,,,,,,,,,,,,,,,,,,,,,,,,,6,4.2435,,,,,,,,,,,,,,0,44,44,95,1,,,,,,,,,,,,,space,0.5073,,,,,,,,,,,,,,,,,,,,,,,,,,,,,,,,,,,,,,,,,,,,,,,,,,,,,,,,,,,,,,,,,,,
,,,,522522,001,2023-10-09_19h54.26.334,fluency,2022.2.4,Win32,59.90176111,,,,,,,,,,,,,,,,,,,,,,,1,9,img/B09_01.jpg,GCNB,Press J if the face is GENDER-CONFORMING and K if the face is NONBINARY,Gender-conforming means that the face appears to be a typical example of its gender. Nonbinary means that the face does not conform to any particular gender norms.,JK,,,,,,,,,,,,,,,,,,,,,,,,,,,,,,,,,,,,,,,,,,,,,,505.4316,0,45,45,89,1,109,0,0,0,0,1,98,,,,,,,,,,,,,,,,,,,,,,,,,,,,,,,,,,,,,,,,,,,,,,,,,,,,,,,,,,,,,,,,,,,,,,,,,,
,,,,522522,001,2023-10-09_19h54.26.334,fluency,2022.2.4,Win32,59.90176111,,,,,,,,,,,,,,,,,,,,,,,,,,,,,,,,,,,,,,,,,,,,,,,,,,,,,,,,,,,,,,,,,,,,,,,,,,,,,,,,,,0,0,0,0,1,,"[""j""]",[1.5996000000238837],1,"[""j""]",[1.5997000000477328],,,,,,,,,,,,,,,,,,,,,,,,,,,,,,,,,,,,,,,,,,,,,,,,,,,,,,,,,,,,,,,,,,,,,
,,,,522522,001,2023-10-09_19h54.26.334,fluency,2022.2.4,Win32,59.90176111,,,,,,,,,,,,,,,,,,,,,,,1,9,img/B09_01.jpg,GCNB,Press J if the face is GENDER-CONFORMING and K if the face is NONBINARY,Gender-conforming means that the face appears to be a typical example of its gender. Nonbinary means that the face does not conform to any particular gender norms.,JK,,,,,,,,,,,,,,,,,,,,,,,,,,,,,,,,5,1.6051,,,,,,,,,,,,,,0,45,45,89,1,,,,,,,,,,,,,space,0.3857,,,,,,,,,,,,,,,,,,,,,,,,,,,,,,,,,,,,,,,,,,,,,,,,,,,,,,,,,,,,,,,,,,,
,,,,522522,001,2023-10-09_19h54.26.334,fluency,2022.2.4,Win32,59.90176111,,,,,,,,,,,,,,,,,,,,,,,6,3,img/B03_06.jpg,GCNB,Press J if the face is GENDER-CONFORMING and K if the face is NONBINARY,Gender-conforming means that the face appears to be a typical example of its gender. Nonbinary means that the face does not conform to any particular gender norms.,JK,,,,,,,,,,,,,,,,,,,,,,,,,,,,,,,,,,,,,,,,,,,,,,511.485,0,46,46,28,1,109,0,0,0,0,1,98,,,,,,,,,,,,,,,,,,,,,,,,,,,,,,,,,,,,,,,,,,,,,,,,,,,,,,,,,,,,,,,,,,,,,,,,,,
,,,,522522,001,2023-10-09_19h54.26.334,fluency,2022.2.4,Win32,59.90176111,,,,,,,,,,,,,,,,,,,,,,,,,,,,,,,,,,,,,,,,,,,,,,,,,,,,,,,,,,,,,,,,,,,,,,,,,,,,,,,,,,0,0,0,0,1,,"[""k""]",[2.344299999952227],1,"[""k""]",[2.344199999928378],,,,,,,,,,,,,,,,,,,,,,,,,,,,,,,,,,,,,,,,,,,,,,,,,,,,,,,,,,,,,,,,,,,,,
,,,,522522,001,2023-10-09_19h54.26.334,fluency,2022.2.4,Win32,59.90176111,,,,,,,,,,,,,,,,,,,,,,,6,3,img/B03_06.jpg,GCNB,Press J if the face is GENDER-CONFORMING and K if the face is NONBINARY,Gender-conforming means that the face appears to be a typical example of its gender. Nonbinary means that the face does not conform to any particular gender norms.,JK,,,,,,,,,,,,,,,,,,,,,,,,,,,,,,,,5,4.7207,,,,,,,,,,,,,,0,46,46,28,1,,,,,,,,,,,,,space,1.2353,,,,,,,,,,,,,,,,,,,,,,,,,,,,,,,,,,,,,,,,,,,,,,,,,,,,,,,,,,,,,,,,,,,
,,,,522522,001,2023-10-09_19h54.26.334,fluency,2022.2.4,Win32,59.90176111,,,,,,,,,,,,,,,,,,,,,,,10,9,img/B09_10.jpg,GCNB,Press J if the face is GENDER-CONFORMING and K if the face is NONBINARY,Gender-conforming means that the face appears to be a typical example of its gender. Nonbinary means that the face does not conform to any particular gender norms.,JK,,,,,,,,,,,,,,,,,,,,,,,,,,,,,,,,,,,,,,,,,,,,,,521.5245,0,47,47,98,1,109,0,0,0,0,1,98,,,,,,,,,,,,,,,,,,,,,,,,,,,,,,,,,,,,,,,,,,,,,,,,,,,,,,,,,,,,,,,,,,,,,,,,,,
,,,,522522,001,2023-10-09_19h54.26.334,fluency,2022.2.4,Win32,59.90176111,,,,,,,,,,,,,,,,,,,,,,,,,,,,,,,,,,,,,,,,,,,,,,,,,,,,,,,,,,,,,,,,,,,,,,,,,,,,,,,,,,0,0,0,0,1,,"[""j""]",[1.1741999999285326],1,"[""j""]",[1.1743000000715256],,,,,,,,,,,,,,,,,,,,,,,,,,,,,,,,,,,,,,,,,,,,,,,,,,,,,,,,,,,,,,,,,,,,,
,,,,522522,001,2023-10-09_19h54.26.334,fluency,2022.2.4,Win32,59.90176111,,,,,,,,,,,,,,,,,,,,,,,10,9,img/B09_10.jpg,GCNB,Press J if the face is GENDER-CONFORMING and K if the face is NONBINARY,Gender-conforming means that the face appears to be a typical example of its gender. Nonbinary means that the face does not conform to any particular gender norms.,JK,,,,,,,,,,,,,,,,,,,,,,,,,,,,,,,,5,1.8734,,,,,,,,,,,,,,0,47,47,98,1,,,,,,,,,,,,,space,0.7645,,,,,,,,,,,,,,,,,,,,,,,,,,,,,,,,,,,,,,,,,,,,,,,,,,,,,,,,,,,,,,,,,,,
,,,,522522,001,2023-10-09_19h54.26.334,fluency,2022.2.4,Win32,59.90176111,,,,,,,,,,,,,,,,,,,,,,,1,2,img/B02_01.jpg,GCNB,Press J if the face is GENDER-CONFORMING and K if the face is NONBINARY,Gender-conforming means that the face appears to be a typical example of its gender. Nonbinary means that the face does not conform to any particular gender norms.,JK,,,,,,,,,,,,,,,,,,,,,,,,,,,,,,,,,,,,,,,,,,,,,,528.2449,0,48,48,12,1,109,0,0,0,0,1,98,,,,,,,,,,,,,,,,,,,,,,,,,,,,,,,,,,,,,,,,,,,,,,,,,,,,,,,,,,,,,,,,,,,,,,,,,,
,,,,522522,001,2023-10-09_19h54.26.334,fluency,2022.2.4,Win32,59.90176111,,,,,,,,,,,,,,,,,,,,,,,,,,,,,,,,,,,,,,,,,,,,,,,,,,,,,,,,,,,,,,,,,,,,,,,,,,,,,,,,,,0,0,0,0,1,,"[""j""]",[1.0711000000237618],1,"[""j""]",[1.0711000000237618],,,,,,,,,,,,,,,,,,,,,,,,,,,,,,,,,,,,,,,,,,,,,,,,,,,,,,,,,,,,,,,,,,,,,
,,,,522522,001,2023-10-09_19h54.26.334,fluency,2022.2.4,Win32,59.90176111,,,,,,,,,,,,,,,,,,,,,,,1,2,img/B02_01.jpg,GCNB,Press J if the face is GENDER-CONFORMING and K if the face is NONBINARY,Gender-conforming means that the face appears to be a typical example of its gender. Nonbinary means that the face does not conform to any particular gender norms.,JK,,,,,,,,,,,,,,,,,,,,,,,,,,,,,,,,4,2.9557,,,,,,,,,,,,,,0,48,48,12,1,,,,,,,,,,,,,space,39.9736,,,,,,,,,,,,,,,,,,,,,,,,,,,,,,,,,,,,,,,,,,,,,,,,,,,,,,,,,,,,,,,,,,,
,,,,522522,001,2023-10-09_19h54.26.334,fluency,2022.2.4,Win32,59.90176111,,,,,,,,,,,,,,,,,,,,,,,0,9,img/B09_00.jpg,GCNB,Press J if the face is GENDER-CONFORMING and K if the face is NONBINARY,Gender-conforming means that the face appears to be a typical example of its gender. Nonbinary means that the face does not conform to any particular gender norms.,JK,,,,,,,,,,,,,,,,,,,,,,,,,,,,,,,,,,,,,,,,,,,,,,575.2885,0,49,49,88,1,109,0,0,0,0,1,98,,,,,,,,,,,,,,,,,,,,,,,,,,,,,,,,,,,,,,,,,,,,,,,,,,,,,,,,,,,,,,,,,,,,,,,,,,
,,,,522522,001,2023-10-09_19h54.26.334,fluency,2022.2.4,Win32,59.90176111,,,,,,,,,,,,,,,,,,,,,,,,,,,,,,,,,,,,,,,,,,,,,,,,,,,,,,,,,,,,,,,,,,,,,,,,,,,,,,,,,,0,0,0,0,1,,"[""j""]",[1.3008999999761954],1,"[""j""]",[1.3008000000716038],,,,,,,,,,,,,,,,,,,,,,,,,,,,,,,,,,,,,,,,,,,,,,,,,,,,,,,,,,,,,,,,,,,,,
,,,,522522,001,2023-10-09_19h54.26.334,fluency,2022.2.4,Win32,59.90176111,,,,,,,,,,,,,,,,,,,,,,,0,9,img/B09_00.jpg,GCNB,Press J if the face is GENDER-CONFORMING and K if the face is NONBINARY,Gender-conforming means that the face appears to be a typical example of its gender. Nonbinary means that the face does not conform to any particular gender norms.,JK,,,,,,,,,,,,,,,,,,,,,,,,,,,,,,,,3,2.4454,,,,,,,,,,,,,,0,49,49,88,1,,,,,,,,,,,,,space,0.6017,,,,,,,,,,,,,,,,,,,,,,,,,,,,,,,,,,,,,,,,,,,,,,,,,,,,,,,,,,,,,,,,,,,
,,,,522522,001,2023-10-09_19h54.26.334,fluency,2022.2.4,Win32,59.90176111,,,,,,,,,,,,,,,,,,,,,,,9,2,img/B02_09.jpg,GCNB,Press J if the face is GENDER-CONFORMING and K if the face is NONBINARY,Gender-conforming means that the face appears to be a typical example of its gender. Nonbinary means that the face does not conform to any particular gender norms.,JK,,,,,,,,,,,,,,,,,,,,,,,,,,,,,,,,,,,,,,,,,,,,,,583.4093,0,50,50,20,1,109,0,0,0,0,1,98,,,,,,,,,,,,,,,,,,,,,,,,,,,,,,,,,,,,,,,,,,,,,,,,,,,,,,,,,,,,,,,,,,,,,,,,,,
,,,,522522,001,2023-10-09_19h54.26.334,fluency,2022.2.4,Win32,59.90176111,,,,,,,,,,,,,,,,,,,,,,,,,,,,,,,,,,,,,,,,,,,,,,,,,,,,,,,,,,,,,,,,,,,,,,,,,,,,,,,,,,0,0,0,0,1,,"[""j""]",[1.3809999999999718],1,"[""j""]",[1.380800000071531],,,,,,,,,,,,,,,,,,,,,,,,,,,,,,,,,,,,,,,,,,,,,,,,,,,,,,,,,,,,,,,,,,,,,
,,,,522522,001,2023-10-09_19h54.26.334,fluency,2022.2.4,Win32,59.90176111,,,,,,,,,,,,,,,,,,,,,,,9,2,img/B02_09.jpg,GCNB,Press J if the face is GENDER-CONFORMING and K if the face is NONBINARY,Gender-conforming means that the face appears to be a typical example of its gender. Nonbinary means that the face does not conform to any particular gender norms.,JK,,,,,,,,,,,,,,,,,,,,,,,,,,,,,,,,5,0.474,,,,,,,,,,,,,,0,50,50,20,1,,,,,,,,,,,,,space,7.8916,,,,,,,,,,,,,,,,,,,,,,,,,,,,,,,,,,,,,,,,,,,,,,,,,,,,,,,,,,,,,,,,,,,
,,,,522522,001,2023-10-09_19h54.26.334,fluency,2022.2.4,Win32,59.90176111,,,,,,,,,,,,,,,,,,,,,,,5,8,img/B08_05.jpg,GCNB,Press J if the face is GENDER-CONFORMING and K if the face is NONBINARY,Gender-conforming means that the face appears to be a typical example of its gender. Nonbinary means that the face does not conform to any particular gender norms.,JK,,,,,,,,,,,,,,,,,,,,,,,,,,,,,,,,,,,,,,,,,,,,,,595.8829,0,51,51,82,1,109,0,0,0,0,1,98,,,,,,,,,,,,,,,,,,,,,,,,,,,,,,,,,,,,,,,,,,,,,,,,,,,,,,,,,,,,,,,,,,,,,,,,,,
,,,,522522,001,2023-10-09_19h54.26.334,fluency,2022.2.4,Win32,59.90176111,,,,,,,,,,,,,,,,,,,,,,,,,,,,,,,,,,,,,,,,,,,,,,,,,,,,,,,,,,,,,,,,,,,,,,,,,,,,,,,,,,0,0,0,0,1,,"[""k""]",[1.36460000002387],1,"[""k""]",[1.364500000000021],,,,,,,,,,,,,,,,,,,,,,,,,,,,,,,,,,,,,,,,,,,,,,,,,,,,,,,,,,,,,,,,,,,,,
,,,,522522,001,2023-10-09_19h54.26.334,fluency,2022.2.4,Win32,59.90176111,,,,,,,,,,,,,,,,,,,,,,,5,8,img/B08_05.jpg,GCNB,Press J if the face is GENDER-CONFORMING and K if the face is NONBINARY,Gender-conforming means that the face appears to be a typical example of its gender. Nonbinary means that the face does not conform to any particular gender norms.,JK,,,,,,,,,,,,,,,,,,,,,,,,,,,,,,,,4,2.7324,,,,,,,,,,,,,,0,51,51,82,1,,,,,,,,,,,,,space,26.3664,,,,,,,,,,,,,,,,,,,,,,,,,,,,,,,,,,,,,,,,,,,,,,,,,,,,,,,,,,,,,,,,,,,
,,,,522522,001,2023-10-09_19h54.26.334,fluency,2022.2.4,Win32,59.90176111,,,,,,,,,,,,,,,,,,,,,,,9,7,img/B07_09.jpg,GCNB,Press J if the face is GENDER-CONFORMING and K if the face is NONBINARY,Gender-conforming means that the face appears to be a typical example of its gender. Nonbinary means that the face does not conform to any particular gender norms.,JK,,,,,,,,,,,,,,,,,,,,,,,,,,,,,,,,,,,,,,,,,,,,,,629.0846,0,52,52,75,1,109,0,0,0,0,1,98,,,,,,,,,,,,,,,,,,,,,,,,,,,,,,,,,,,,,,,,,,,,,,,,,,,,,,,,,,,,,,,,,,,,,,,,,,
,,,,522522,001,2023-10-09_19h54.26.334,fluency,2022.2.4,Win32,59.90176111,,,,,,,,,,,,,,,,,,,,,,,,,,,,,,,,,,,,,,,,,,,,,,,,,,,,,,,,,,,,,,,,,,,,,,,,,,,,,,,,,,0,0,0,0,1,,"[""k""]",[1.6493000000715483],1,"[""k""]",[1.6492000000476992],,,,,,,,,,,,,,,,,,,,,,,,,,,,,,,,,,,,,,,,,,,,,,,,,,,,,,,,,,,,,,,,,,,,,
,,,,522522,001,2023-10-09_19h54.26.334,fluency,2022.2.4,Win32,59.90176111,,,,,,,,,,,,,,,,,,,,,,,9,7,img/B07_09.jpg,GCNB,Press J if the face is GENDER-CONFORMING and K if the face is NONBINARY,Gender-conforming means that the face appears to be a typical example of its gender. Nonbinary means that the face does not conform to any particular gender norms.,JK,,,,,,,,,,,,,,,,,,,,,,,,,,,,,,,,7,1.3365,,,,,,,,,,,,,,0,52,52,75,1,,,,,,,,,,,,,space,0.8249,,,,,,,,,,,,,,,,,,,,,,,,,,,,,,,,,,,,,,,,,,,,,,,,,,,,,,,,,,,,,,,,,,,
,,,,522522,001,2023-10-09_19h54.26.334,fluency,2022.2.4,Win32,59.90176111,,,,,,,,,,,,,,,,,,,,,,,7,5,img/B05_07.jpg,GCNB,Press J if the face is GENDER-CONFORMING and K if the face is NONBINARY,Gender-conforming means that the face appears to be a typical example of its gender. Nonbinary means that the face does not conform to any particular gender norms.,JK,,,,,,,,,,,,,,,,,,,,,,,,,,,,,,,,,,,,,,,,,,,,,,636.3217,0,53,53,51,1,109,0,0,0,0,1,98,,,,,,,,,,,,,,,,,,,,,,,,,,,,,,,,,,,,,,,,,,,,,,,,,,,,,,,,,,,,,,,,,,,,,,,,,,
,,,,522522,001,2023-10-09_19h54.26.334,fluency,2022.2.4,Win32,59.90176111,,,,,,,,,,,,,,,,,,,,,,,,,,,,,,,,,,,,,,,,,,,,,,,,,,,,,,,,,,,,,,,,,,,,,,,,,,,,,,,,,,0,0,0,0,1,,"[""j""]",[1.7512000000476746],1,"[""j""]",[1.7513000000715238],,,,,,,,,,,,,,,,,,,,,,,,,,,,,,,,,,,,,,,,,,,,,,,,,,,,,,,,,,,,,,,,,,,,,
,,,,522522,001,2023-10-09_19h54.26.334,fluency,2022.2.4,Win32,59.90176111,,,,,,,,,,,,,,,,,,,,,,,7,5,img/B05_07.jpg,GCNB,Press J if the face is GENDER-CONFORMING and K if the face is NONBINARY,Gender-conforming means that the face appears to be a typical example of its gender. Nonbinary means that the face does not conform to any particular gender norms.,JK,,,,,,,,,,,,,,,,,,,,,,,,,,,,,,,,6,0.3388,,,,,,,,,,,,,,0,53,53,51,1,,,,,,,,,,,,,space,0.5599,,,,,,,,,,,,,,,,,,,,,,,,,,,,,,,,,,,,,,,,,,,,,,,,,,,,,,,,,,,,,,,,,,,
,,,,522522,001,2023-10-09_19h54.26.334,fluency,2022.2.4,Win32,59.90176111,,,,,,,,,,,,,,,,,,,,,,,9,4,img/B04_09.jpg,GCNB,Press J if the face is GENDER-CONFORMING and K if the face is NONBINARY,Gender-conforming means that the face appears to be a typical example of its gender. Nonbinary means that the face does not conform to any particular gender norms.,JK,,,,,,,,,,,,,,,,,,,,,,,,,,,,,,,,,,,,,,,,,,,,,,642.2757,0,54,54,42,1,109,0,0,0,0,1,98,,,,,,,,,,,,,,,,,,,,,,,,,,,,,,,,,,,,,,,,,,,,,,,,,,,,,,,,,,,,,,,,,,,,,,,,,,
,,,,522522,001,2023-10-09_19h54.26.334,fluency,2022.2.4,Win32,59.90176111,,,,,,,,,,,,,,,,,,,,,,,,,,,,,,,,,,,,,,,,,,,,,,,,,,,,,,,,,,,,,,,,,,,,,,,,,,,,,,,,,,0,0,0,0,1,,"[""j""]",[1.5806000000238782],1,"[""j""]",[1.5806000000238782],,,,,,,,,,,,,,,,,,,,,,,,,,,,,,,,,,,,,,,,,,,,,,,,,,,,,,,,,,,,,,,,,,,,,
,,,,522522,001,2023-10-09_19h54.26.334,fluency,2022.2.4,Win32,59.90176111,,,,,,,,,,,,,,,,,,,,,,,9,4,img/B04_09.jpg,GCNB,Press J if the face is GENDER-CONFORMING and K if the face is NONBINARY,Gender-conforming means that the face appears to be a typical example of its gender. Nonbinary means that the face does not conform to any particular gender norms.,JK,,,,,,,,,,,,,,,,,,,,,,,,,,,,,,,,4,1.3753,,,,,,,,,,,,,,0,54,54,42,1,,,,,,,,,,,,,space,1.3209,,,,,,,,,,,,,,,,,,,,,,,,,,,,,,,,,,,,,,,,,,,,,,,,,,,,,,,,,,,,,,,,,,,
,,,,522522,001,2023-10-09_19h54.26.334,fluency,2022.2.4,Win32,59.90176111,,,,,,,,,,,,,,,,,,,,,,,7,8,img/B08_07.jpg,GCNB,Press J if the face is GENDER-CONFORMING and K if the face is NONBINARY,Gender-conforming means that the face appears to be a typical example of its gender. Nonbinary means that the face does not conform to any particular gender norms.,JK,,,,,,,,,,,,,,,,,,,,,,,,,,,,,,,,,,,,,,,,,,,,,,650.0302,0,55,55,84,1,109,0,0,0,0,1,98,,,,,,,,,,,,,,,,,,,,,,,,,,,,,,,,,,,,,,,,,,,,,,,,,,,,,,,,,,,,,,,,,,,,,,,,,,
,,,,522522,001,2023-10-09_19h54.26.334,fluency,2022.2.4,Win32,59.90176111,,,,,,,,,,,,,,,,,,,,,,,,,,,,,,,,,,,,,,,,,,,,,,,,,,,,,,,,,,,,,,,,,,,,,,,,,,,,,,,,,,0,0,0,0,1,,"[""k""]",[2.236399999976129],1,"[""k""]",[2.236399999976129],,,,,,,,,,,,,,,,,,,,,,,,,,,,,,,,,,,,,,,,,,,,,,,,,,,,,,,,,,,,,,,,,,,,,
,,,,522522,001,2023-10-09_19h54.26.334,fluency,2022.2.4,Win32,59.90176111,,,,,,,,,,,,,,,,,,,,,,,7,8,img/B08_07.jpg,GCNB,Press J if the face is GENDER-CONFORMING and K if the face is NONBINARY,Gender-conforming means that the face appears to be a typical example of its gender. Nonbinary means that the face does not conform to any particular gender norms.,JK,,,,,,,,,,,,,,,,,,,,,,,,,,,,,,,,5,1.3158,,,,,,,,,,,,,,0,55,55,84,1,,,,,,,,,,,,,space,0.6849,,,,,,,,,,,,,,,,,,,,,,,,,,,,,,,,,,,,,,,,,,,,,,,,,,,,,,,,,,,,,,,,,,,
,,,,522522,001,2023-10-09_19h54.26.334,fluency,2022.2.4,Win32,59.90176111,,,,,,,,,,,,,,,,,,,,,,,6,8,img/B08_06.jpg,GCNB,Press J if the face is GENDER-CONFORMING and K if the face is NONBINARY,Gender-conforming means that the face appears to be a typical example of its gender. Nonbinary means that the face does not conform to any particular gender norms.,JK,,,,,,,,,,,,,,,,,,,,,,,,,,,,,,,,,,,,,,,,,,,,,,657.1344,0,56,56,83,1,109,0,0,0,0,1,98,,,,,,,,,,,,,,,,,,,,,,,,,,,,,,,,,,,,,,,,,,,,,,,,,,,,,,,,,,,,,,,,,,,,,,,,,,
,,,,522522,001,2023-10-09_19h54.26.334,fluency,2022.2.4,Win32,59.90176111,,,,,,,,,,,,,,,,,,,,,,,,,,,,,,,,,,,,,,,,,,,,,,,,,,,,,,,,,,,,,,,,,,,,,,,,,,,,,,,,,,0,0,0,0,1,,"[""k""]",[1.7328999999762118],1,"[""k""]",[1.7327000000476573],,,,,,,,,,,,,,,,,,,,,,,,,,,,,,,,,,,,,,,,,,,,,,,,,,,,,,,,,,,,,,,,,,,,,
,,,,522522,001,2023-10-09_19h54.26.334,fluency,2022.2.4,Win32,59.90176111,,,,,,,,,,,,,,,,,,,,,,,6,8,img/B08_06.jpg,GCNB,Press J if the face is GENDER-CONFORMING and K if the face is NONBINARY,Gender-conforming means that the face appears to be a typical example of its gender. Nonbinary means that the face does not conform to any particular gender norms.,JK,,,,,,,,,,,,,,,,,,,,,,,,,,,,,,,,5,0.2909,,,,,,,,,,,,,,0,56,56,83,1,,,,,,,,,,,,,space,0.5422,,,,,,,,,,,,,,,,,,,,,,,,,,,,,,,,,,,,,,,,,,,,,,,,,,,,,,,,,,,,,,,,,,,
,,,,522522,001,2023-10-09_19h54.26.334,fluency,2022.2.4,Win32,59.90176111,,,,,,,,,,,,,,,,,,,,,,,3,6,img/B06_03.jpg,GCNB,Press J if the face is GENDER-CONFORMING and K if the face is NONBINARY,Gender-conforming means that the face appears to be a typical example of its gender. Nonbinary means that the face does not conform to any particular gender norms.,JK,,,,,,,,,,,,,,,,,,,,,,,,,,,,,,,,,,,,,,,,,,,,,,662.0199,0,57,57,58,1,109,0,0,0,0,1,98,,,,,,,,,,,,,,,,,,,,,,,,,,,,,,,,,,,,,,,,,,,,,,,,,,,,,,,,,,,,,,,,,,,,,,,,,,
,,,,522522,001,2023-10-09_19h54.26.334,fluency,2022.2.4,Win32,59.90176111,,,,,,,,,,,,,,,,,,,,,,,,,,,,,,,,,,,,,,,,,,,,,,,,,,,,,,,,,,,,,,,,,,,,,,,,,,,,,,,,,,0,0,0,0,1,,"[""j""]",[1.39939999997614],1,"[""j""]",[1.39939999997614],,,,,,,,,,,,,,,,,,,,,,,,,,,,,,,,,,,,,,,,,,,,,,,,,,,,,,,,,,,,,,,,,,,,,
,,,,522522,001,2023-10-09_19h54.26.334,fluency,2022.2.4,Win32,59.90176111,,,,,,,,,,,,,,,,,,,,,,,3,6,img/B06_03.jpg,GCNB,Press J if the face is GENDER-CONFORMING and K if the face is NONBINARY,Gender-conforming means that the face appears to be a typical example of its gender. Nonbinary means that the face does not conform to any particular gender norms.,JK,,,,,,,,,,,,,,,,,,,,,,,,,,,,,,,,3,0.3398,,,,,,,,,,,,,,0,57,57,58,1,,,,,,,,,,,,,space,0.6478,,,,,,,,,,,,,,,,,,,,,,,,,,,,,,,,,,,,,,,,,,,,,,,,,,,,,,,,,,,,,,,,,,,
,,,,522522,001,2023-10-09_19h54.26.334,fluency,2022.2.4,Win32,59.90176111,,,,,,,,,,,,,,,,,,,,,,,4,6,img/B06_04.jpg,GCNB,Press J if the face is GENDER-CONFORMING and K if the face is NONBINARY,Gender-conforming means that the face appears to be a typical example of its gender. Nonbinary means that the face does not conform to any particular gender norms.,JK,,,,,,,,,,,,,,,,,,,,,,,,,,,,,,,,,,,,,,,,,,,,,,667.0897,0,58,58,59,1,109,0,0,0,0,1,98,,,,,,,,,,,,,,,,,,,,,,,,,,,,,,,,,,,,,,,,,,,,,,,,,,,,,,,,,,,,,,,,,,,,,,,,,,
,,,,522522,001,2023-10-09_19h54.26.334,fluency,2022.2.4,Win32,59.90176111,,,,,,,,,,,,,,,,,,,,,,,,,,,,,,,,,,,,,,,,,,,,,,,,,,,,,,,,,,,,,,,,,,,,,,,,,,,,,,,,,,0,0,0,0,1,,"[""j""]",[2.365399999976148],1,"[""j""]",[2.365299999952299],,,,,,,,,,,,,,,,,,,,,,,,,,,,,,,,,,,,,,,,,,,,,,,,,,,,,,,,,,,,,,,,,,,,,
,,,,522522,001,2023-10-09_19h54.26.334,fluency,2022.2.4,Win32,59.90176111,,,,,,,,,,,,,,,,,,,,,,,4,6,img/B06_04.jpg,GCNB,Press J if the face is GENDER-CONFORMING and K if the face is NONBINARY,Gender-conforming means that the face appears to be a typical example of its gender. Nonbinary means that the face does not conform to any particular gender norms.,JK,,,,,,,,,,,,,,,,,,,,,,,,,,,,,,,,3,0.4367,,,,,,,,,,,,,,0,58,58,59,1,,,,,,,,,,,,,space,0.5537,,,,,,,,,,,,,,,,,,,,,,,,,,,,,,,,,,,,,,,,,,,,,,,,,,,,,,,,,,,,,,,,,,,
,,,,522522,001,2023-10-09_19h54.26.334,fluency,2022.2.4,Win32,59.90176111,,,,,,,,,,,,,,,,,,,,,,,5,10,img/B10_05.jpg,GCNB,Press J if the face is GENDER-CONFORMING and K if the face is NONBINARY,Gender-conforming means that the face appears to be a typical example of its gender. Nonbinary means that the face does not conform to any particular gender norms.,JK,,,,,,,,,,,,,,,,,,,,,,,,,,,,,,,,,,,,,,,,,,,,,,672.1429,0,59,59,104,1,109,0,0,0,0,1,98,,,,,,,,,,,,,,,,,,,,,,,,,,,,,,,,,,,,,,,,,,,,,,,,,,,,,,,,,,,,,,,,,,,,,,,,,,
,,,,522522,001,2023-10-09_19h54.26.334,fluency,2022.2.4,Win32,59.90176111,,,,,,,,,,,,,,,,,,,,,,,,,,,,,,,,,,,,,,,,,,,,,,,,,,,,,,,,,,,,,,,,,,,,,,,,,,,,,,,,,,0,0,0,0,1,,"[""k""]",[2.1828999999761436],1,"[""k""]",[2.1827999999522945],,,,,,,,,,,,,,,,,,,,,,,,,,,,,,,,,,,,,,,,,,,,,,,,,,,,,,,,,,,,,,,,,,,,,
,,,,522522,001,2023-10-09_19h54.26.334,fluency,2022.2.4,Win32,59.90176111,,,,,,,,,,,,,,,,,,,,,,,5,10,img/B10_05.jpg,GCNB,Press J if the face is GENDER-CONFORMING and K if the face is NONBINARY,Gender-conforming means that the face appears to be a typical example of its gender. Nonbinary means that the face does not conform to any particular gender norms.,JK,,,,,,,,,,,,,,,,,,,,,,,,,,,,,,,,5,10.3526,,,,,,,,,,,,,,0,59,59,104,1,,,,,,,,,,,,,space,20.2796,,,,,,,,,,,,,,,,,,,,,,,,,,,,,,,,,,,,,,,,,,,,,,,,,,,,,,,,,,,,,,,,,,,
,,,,522522,001,2023-10-09_19h54.26.334,fluency,2022.2.4,Win32,59.90176111,,,,,,,,,,,,,,,,,,,,,,,4,10,img/B10_04.jpg,GCNB,Press J if the face is GENDER-CONFORMING and K if the face is NONBINARY,Gender-conforming means that the face appears to be a typical example of its gender. Nonbinary means that the face does not conform to any particular gender norms.,JK,,,,,,,,,,,,,,,,,,,,,,,,,,,,,,,,,,,,,,,,,,,,,,706.8952,0,60,60,103,1,109,0,0,0,0,1,98,,,,,,,,,,,,,,,,,,,,,,,,,,,,,,,,,,,,,,,,,,,,,,,,,,,,,,,,,,,,,,,,,,,,,,,,,,
,,,,522522,001,2023-10-09_19h54.26.334,fluency,2022.2.4,Win32,59.90176111,,,,,,,,,,,,,,,,,,,,,,,,,,,,,,,,,,,,,,,,,,,,,,,,,,,,,,,,,,,,,,,,,,,,,,,,,,,,,,,,,,0,0,0,0,1,,"[""j""]",[2.16629999995223],1,"[""j""]",[2.1662000000476382],,,,,,,,,,,,,,,,,,,,,,,,,,,,,,,,,,,,,,,,,,,,,,,,,,,,,,,,,,,,,,,,,,,,,
,,,,522522,001,2023-10-09_19h54.26.334,fluency,2022.2.4,Win32,59.90176111,,,,,,,,,,,,,,,,,,,,,,,4,10,img/B10_04.jpg,GCNB,Press J if the face is GENDER-CONFORMING and K if the face is NONBINARY,Gender-conforming means that the face appears to be a typical example of its gender. Nonbinary means that the face does not conform to any particular gender norms.,JK,,,,,,,,,,,,,,,,,,,,,,,,,,,,,,,,6,2.1001,,,,,,,,,,,,,,0,60,60,103,1,,,,,,,,,,,,,space,0.4678,,,,,,,,,,,,,,,,,,,,,,,,,,,,,,,,,,,,,,,,,,,,,,,,,,,,,,,,,,,,,,,,,,,
,,,,522522,001,2023-10-09_19h54.26.334,fluency,2022.2.4,Win32,59.90176111,,,,,,,,,,,,,,,,,,,,,,,10,4,img/B04_10.jpg,GCNB,Press J if the face is GENDER-CONFORMING and K if the face is NONBINARY,Gender-conforming means that the face appears to be a typical example of its gender. Nonbinary means that the face does not conform to any particular gender norms.,JK,,,,,,,,,,,,,,,,,,,,,,,,,,,,,,,,,,,,,,,,,,,,,,713.5494,0,61,61,43,1,109,0,0,0,0,1,98,,,,,,,,,,,,,,,,,,,,,,,,,,,,,,,,,,,,,,,,,,,,,,,,,,,,,,,,,,,,,,,,,,,,,,,,,,
,,,,522522,001,2023-10-09_19h54.26.334,fluency,2022.2.4,Win32,59.90176111,,,,,,,,,,,,,,,,,,,,,,,,,,,,,,,,,,,,,,,,,,,,,,,,,,,,,,,,,,,,,,,,,,,,,,,,,,,,,,,,,,0,0,0,0,1,,"[""j""]",[1.0493000000715256],1,"[""j""]",[1.0493000000715256],,,,,,,,,,,,,,,,,,,,,,,,,,,,,,,,,,,,,,,,,,,,,,,,,,,,,,,,,,,,,,,,,,,,,
,,,,522522,001,2023-10-09_19h54.26.334,fluency,2022.2.4,Win32,59.90176111,,,,,,,,,,,,,,,,,,,,,,,10,4,img/B04_10.jpg,GCNB,Press J if the face is GENDER-CONFORMING and K if the face is NONBINARY,Gender-conforming means that the face appears to be a typical example of its gender. Nonbinary means that the face does not conform to any particular gender norms.,JK,,,,,,,,,,,,,,,,,,,,,,,,,,,,,,,,4,0.2854,,,,,,,,,,,,,,0,61,61,43,1,,,,,,,,,,,,,space,0.4748,,,,,,,,,,,,,,,,,,,,,,,,,,,,,,,,,,,,,,,,,,,,,,,,,,,,,,,,,,,,,,,,,,,
,,,,522522,001,2023-10-09_19h54.26.334,fluency,2022.2.4,Win32,59.90176111,,,,,,,,,,,,,,,,,,,,,,,8,4,img/B04_08.jpg,GCNB,Press J if the face is GENDER-CONFORMING and K if the face is NONBINARY,Gender-conforming means that the face appears to be a typical example of its gender. Nonbinary means that the face does not conform to any particular gender norms.,JK,,,,,,,,,,,,,,,,,,,,,,,,,,,,,,,,,,,,,,,,,,,,,,718.3686,0,62,62,41,1,109,0,0,0,0,1,98,,,,,,,,,,,,,,,,,,,,,,,,,,,,,,,,,,,,,,,,,,,,,,,,,,,,,,,,,,,,,,,,,,,,,,,,,,
,,,,522522,001,2023-10-09_19h54.26.334,fluency,2022.2.4,Win32,59.90176111,,,,,,,,,,,,,,,,,,,,,,,,,,,,,,,,,,,,,,,,,,,,,,,,,,,,,,,,,,,,,,,,,,,,,,,,,,,,,,,,,,0,0,0,0,1,,"[""j""]",[0.8926999999284817],1,"[""j""]",[0.8926999999284817],,,,,,,,,,,,,,,,,,,,,,,,,,,,,,,,,,,,,,,,,,,,,,,,,,,,,,,,,,,,,,,,,,,,,
,,,,522522,001,2023-10-09_19h54.26.334,fluency,2022.2.4,Win32,59.90176111,,,,,,,,,,,,,,,,,,,,,,,8,4,img/B04_08.jpg,GCNB,Press J if the face is GENDER-CONFORMING and K if the face is NONBINARY,Gender-conforming means that the face appears to be a typical example of its gender. Nonbinary means that the face does not conform to any particular gender norms.,JK,,,,,,,,,,,,,,,,,,,,,,,,,,,,,,,,4,0.4113,,,,,,,,,,,,,,0,62,62,41,1,,,,,,,,,,,,,space,0.6844,,,,,,,,,,,,,,,,,,,,,,,,,,,,,,,,,,,,,,,,,,,,,,,,,,,,,,,,,,,,,,,,,,,
,,,,522522,001,2023-10-09_19h54.26.334,fluency,2022.2.4,Win32,59.90176111,,,,,,,,,,,,,,,,,,,,,,,1,7,img/B07_01.jpg,GCNB,Press J if the face is GENDER-CONFORMING and K if the face is NONBINARY,Gender-conforming means that the face appears to be a typical example of its gender. Nonbinary means that the face does not conform to any particular gender norms.,JK,,,,,,,,,,,,,,,,,,,,,,,,,,,,,,,,,,,,,,,,,,,,,,724.5222,0,63,63,67,1,109,0,0,0,0,1,98,,,,,,,,,,,,,,,,,,,,,,,,,,,,,,,,,,,,,,,,,,,,,,,,,,,,,,,,,,,,,,,,,,,,,,,,,,
,,,,522522,001,2023-10-09_19h54.26.334,fluency,2022.2.4,Win32,59.90176111,,,,,,,,,,,,,,,,,,,,,,,,,,,,,,,,,,,,,,,,,,,,,,,,,,,,,,,,,,,,,,,,,,,,,,,,,,,,,,,,,,0,0,0,0,1,,"[""j""]",[1.580500000000029],1,"[""j""]",[1.5803000000714746],,,,,,,,,,,,,,,,,,,,,,,,,,,,,,,,,,,,,,,,,,,,,,,,,,,,,,,,,,,,,,,,,,,,,
,,,,522522,001,2023-10-09_19h54.26.334,fluency,2022.2.4,Win32,59.90176111,,,,,,,,,,,,,,,,,,,,,,,1,7,img/B07_01.jpg,GCNB,Press J if the face is GENDER-CONFORMING and K if the face is NONBINARY,Gender-conforming means that the face appears to be a typical example of its gender. Nonbinary means that the face does not conform to any particular gender norms.,JK,,,,,,,,,,,,,,,,,,,,,,,,,,,,,,,,4,1.6453,,,,,,,,,,,,,,0,63,63,67,1,,,,,,,,,,,,,space,0.4833,,,,,,,,,,,,,,,,,,,,,,,,,,,,,,,,,,,,,,,,,,,,,,,,,,,,,,,,,,,,,,,,,,,
,,,,522522,001,2023-10-09_19h54.26.334,fluency,2022.2.4,Win32,59.90176111,,,,,,,,,,,,,,,,,,,,,,,5,3,img/B03_05.jpg,GCNB,Press J if the face is GENDER-CONFORMING and K if the face is NONBINARY,Gender-conforming means that the face appears to be a typical example of its gender. Nonbinary means that the face does not conform to any particular gender norms.,JK,,,,,,,,,,,,,,,,,,,,,,,,,,,,,,,,,,,,,,,,,,,,,,731.7095,0,64,64,27,1,109,0,0,0,0,1,98,,,,,,,,,,,,,,,,,,,,,,,,,,,,,,,,,,,,,,,,,,,,,,,,,,,,,,,,,,,,,,,,,,,,,,,,,,
,,,,522522,001,2023-10-09_19h54.26.334,fluency,2022.2.4,Win32,59.90176111,,,,,,,,,,,,,,,,,,,,,,,,,,,,,,,,,,,,,,,,,,,,,,,,,,,,,,,,,,,,,,,,,,,,,,,,,,,,,,,,,,0,0,0,0,1,,"[""j""]",[0.9387000000476746],1,"[""j""]",[0.9387000000476746],,,,,,,,,,,,,,,,,,,,,,,,,,,,,,,,,,,,,,,,,,,,,,,,,,,,,,,,,,,,,,,,,,,,,
,,,,522522,001,2023-10-09_19h54.26.334,fluency,2022.2.4,Win32,59.90176111,,,,,,,,,,,,,,,,,,,,,,,5,3,img/B03_05.jpg,GCNB,Press J if the face is GENDER-CONFORMING and K if the face is NONBINARY,Gender-conforming means that the face appears to be a typical example of its gender. Nonbinary means that the face does not conform to any particular gender norms.,JK,,,,,,,,,,,,,,,,,,,,,,,,,,,,,,,,5,3.8773,,,,,,,,,,,,,,0,64,64,27,1,,,,,,,,,,,,,space,0.5221,,,,,,,,,,,,,,,,,,,,,,,,,,,,,,,,,,,,,,,,,,,,,,,,,,,,,,,,,,,,,,,,,,,
,,,,522522,001,2023-10-09_19h54.26.334,fluency,2022.2.4,Win32,59.90176111,,,,,,,,,,,,,,,,,,,,,,,5,9,img/B09_05.jpg,GCNB,Press J if the face is GENDER-CONFORMING and K if the face is NONBINARY,Gender-conforming means that the face appears to be a typical example of its gender. Nonbinary means that the face does not conform to any particular gender norms.,JK,,,,,,,,,,,,,,,,,,,,,,,,,,,,,,,,,,,,,,,,,,,,,,741.1988,0,65,65,93,1,109,0,0,0,0,1,98,,,,,,,,,,,,,,,,,,,,,,,,,,,,,,,,,,,,,,,,,,,,,,,,,,,,,,,,,,,,,,,,,,,,,,,,,,
,,,,522522,001,2023-10-09_19h54.26.334,fluency,2022.2.4,Win32,59.90176111,,,,,,,,,,,,,,,,,,,,,,,,,,,,,,,,,,,,,,,,,,,,,,,,,,,,,,,,,,,,,,,,,,,,,,,,,,,,,,,,,,0,0,0,0,1,,"[""j""]",[1.1116999999285326],1,"[""j""]",[1.1116000000238273],,,,,,,,,,,,,,,,,,,,,,,,,,,,,,,,,,,,,,,,,,,,,,,,,,,,,,,,,,,,,,,,,,,,,
,,,,522522,001,2023-10-09_19h54.26.334,fluency,2022.2.4,Win32,59.90176111,,,,,,,,,,,,,,,,,,,,,,,5,9,img/B09_05.jpg,GCNB,Press J if the face is GENDER-CONFORMING and K if the face is NONBINARY,Gender-conforming means that the face appears to be a typical example of its gender. Nonbinary means that the face does not conform to any particular gender norms.,JK,,,,,,,,,,,,,,,,,,,,,,,,,,,,,,,,6,0.7834,,,,,,,,,,,,,,0,65,65,93,1,,,,,,,,,,,,,space,0.4477,,,,,,,,,,,,,,,,,,,,,,,,,,,,,,,,,,,,,,,,,,,,,,,,,,,,,,,,,,,,,,,,,,,
,,,,522522,001,2023-10-09_19h54.26.334,fluency,2022.2.4,Win32,59.90176111,,,,,,,,,,,,,,,,,,,,,,,1,8,img/B08_01.jpg,GCNB,Press J if the face is GENDER-CONFORMING and K if the face is NONBINARY,Gender-conforming means that the face appears to be a typical example of its gender. Nonbinary means that the face does not conform to any particular gender norms.,JK,,,,,,,,,,,,,,,,,,,,,,,,,,,,,,,,,,,,,,,,,,,,,,747.4846,0,66,66,78,1,109,0,0,0,0,1,98,,,,,,,,,,,,,,,,,,,,,,,,,,,,,,,,,,,,,,,,,,,,,,,,,,,,,,,,,,,,,,,,,,,,,,,,,,
,,,,522522,001,2023-10-09_19h54.26.334,fluency,2022.2.4,Win32,59.90176111,,,,,,,,,,,,,,,,,,,,,,,,,,,,,,,,,,,,,,,,,,,,,,,,,,,,,,,,,,,,,,,,,,,,,,,,,,,,,,,,,,0,0,0,0,1,,"[""k""]",[1.8535999999046453],1,"[""k""]",[1.8536999999284944],,,,,,,,,,,,,,,,,,,,,,,,,,,,,,,,,,,,,,,,,,,,,,,,,,,,,,,,,,,,,,,,,,,,,
,,,,522522,001,2023-10-09_19h54.26.334,fluency,2022.2.4,Win32,59.90176111,,,,,,,,,,,,,,,,,,,,,,,1,8,img/B08_01.jpg,GCNB,Press J if the face is GENDER-CONFORMING and K if the face is NONBINARY,Gender-conforming means that the face appears to be a typical example of its gender. Nonbinary means that the face does not conform to any particular gender norms.,JK,,,,,,,,,,,,,,,,,,,,,,,,,,,,,,,,6,4.2899,,,,,,,,,,,,,,0,66,66,78,1,,,,,,,,,,,,,space,0.6586,,,,,,,,,,,,,,,,,,,,,,,,,,,,,,,,,,,,,,,,,,,,,,,,,,,,,,,,,,,,,,,,,,,
,,,,522522,001,2023-10-09_19h54.26.334,fluency,2022.2.4,Win32,59.90176111,,,,,,,,,,,,,,,,,,,,,,,9,5,img/B05_09.jpg,GCNB,Press J if the face is GENDER-CONFORMING and K if the face is NONBINARY,Gender-conforming means that the face appears to be a typical example of its gender. Nonbinary means that the face does not conform to any particular gender norms.,JK,,,,,,,,,,,,,,,,,,,,,,,,,,,,,,,,,,,,,,,,,,,,,,757.5398,0,67,67,53,1,109,0,0,0,0,1,98,,,,,,,,,,,,,,,,,,,,,,,,,,,,,,,,,,,,,,,,,,,,,,,,,,,,,,,,,,,,,,,,,,,,,,,,,,
,,,,522522,001,2023-10-09_19h54.26.334,fluency,2022.2.4,Win32,59.90176111,,,,,,,,,,,,,,,,,,,,,,,,,,,,,,,,,,,,,,,,,,,,,,,,,,,,,,,,,,,,,,,,,,,,,,,,,,,,,,,,,,0,0,0,0,1,,"[""j""]",[0.8990000000000009],1,"[""j""]",[0.8990000000000009],,,,,,,,,,,,,,,,,,,,,,,,,,,,,,,,,,,,,,,,,,,,,,,,,,,,,,,,,,,,,,,,,,,,,
,,,,522522,001,2023-10-09_19h54.26.334,fluency,2022.2.4,Win32,59.90176111,,,,,,,,,,,,,,,,,,,,,,,9,5,img/B05_09.jpg,GCNB,Press J if the face is GENDER-CONFORMING and K if the face is NONBINARY,Gender-conforming means that the face appears to be a typical example of its gender. Nonbinary means that the face does not conform to any particular gender norms.,JK,,,,,,,,,,,,,,,,,,,,,,,,,,,,,,,,6,0.435,,,,,,,,,,,,,,0,67,67,53,1,,,,,,,,,,,,,space,0.734,,,,,,,,,,,,,,,,,,,,,,,,,,,,,,,,,,,,,,,,,,,,,,,,,,,,,,,,,,,,,,,,,,,
,,,,522522,001,2023-10-09_19h54.26.334,fluency,2022.2.4,Win32,59.90176111,,,,,,,,,,,,,,,,,,,,,,,6,10,img/B10_06.jpg,GCNB,Press J if the face is GENDER-CONFORMING and K if the face is NONBINARY,Gender-conforming means that the face appears to be a typical example of its gender. Nonbinary means that the face does not conform to any particular gender norms.,JK,,,,,,,,,,,,,,,,,,,,,,,,,,,,,,,,,,,,,,,,,,,,,,763.7778,0,68,68,105,1,109,0,0,0,0,1,98,,,,,,,,,,,,,,,,,,,,,,,,,,,,,,,,,,,,,,,,,,,,,,,,,,,,,,,,,,,,,,,,,,,,,,,,,,
,,,,522522,001,2023-10-09_19h54.26.334,fluency,2022.2.4,Win32,59.90176111,,,,,,,,,,,,,,,,,,,,,,,,,,,,,,,,,,,,,,,,,,,,,,,,,,,,,,,,,,,,,,,,,,,,,,,,,,,,,,,,,,0,0,0,0,1,,"[""k""]",[2.00029999995229],1,"[""k""]",[2.00029999995229],,,,,,,,,,,,,,,,,,,,,,,,,,,,,,,,,,,,,,,,,,,,,,,,,,,,,,,,,,,,,,,,,,,,,
,,,,522522,001,2023-10-09_19h54.26.334,fluency,2022.2.4,Win32,59.90176111,,,,,,,,,,,,,,,,,,,,,,,6,10,img/B10_06.jpg,GCNB,Press J if the face is GENDER-CONFORMING and K if the face is NONBINARY,Gender-conforming means that the face appears to be a typical example of its gender. Nonbinary means that the face does not conform to any particular gender norms.,JK,,,,,,,,,,,,,,,,,,,,,,,,,,,,,,,,5,3.8584,,,,,,,,,,,,,,0,68,68,105,1,,,,,,,,,,,,,space,0.4568,,,,,,,,,,,,,,,,,,,,,,,,,,,,,,,,,,,,,,,,,,,,,,,,,,,,,,,,,,,,,,,,,,,
,,,,522522,001,2023-10-09_19h54.26.334,fluency,2022.2.4,Win32,59.90176111,,,,,,,,,,,,,,,,,,,,,,,7,2,img/B02_07.jpg,GCNB,Press J if the face is GENDER-CONFORMING and K if the face is NONBINARY,Gender-conforming means that the face appears to be a typical example of its gender. Nonbinary means that the face does not conform to any particular gender norms.,JK,,,,,,,,,,,,,,,,,,,,,,,,,,,,,,,,,,,,,,,,,,,,,,773.2001,0,69,69,18,1,109,0,0,0,0,1,98,,,,,,,,,,,,,,,,,,,,,,,,,,,,,,,,,,,,,,,,,,,,,,,,,,,,,,,,,,,,,,,,,,,,,,,,,,
