idTextbox.text,welcomeDone.numClicks,welcomeDone.timesOn,welcomeDone.timesOff,participant,session,date,expName,psychopyVersion,OS,frameRate,consent_advance.keys,consent_advance.rt,consent_advance_2.keys,consent_advance_2.rt,consentClick.x,consentClick.y,consentClick.leftButton,consentClick.midButton,consentClick.rightButton,consentClick.time,consentClick.clicked_name,instr_advance_3.keys,instr_advance_3.rt,spec_instr_adv.keys,spec_instr_adv.rt,spec_instr_adv2.keys,spec_instr_adv2.rt,instrLoop.thisRepN,instrLoop.thisTrialN,instrLoop.thisN,instrLoop.thisIndex,instrLoop.ran,steps,fams,face_file,cond,instr,term,key_map,attnKeyResp1.keys,attnKeyResp1.rt,q1.thisRepN,q1.thisTrialN,q1.thisN,q1.thisIndex,q1.ran,attnKeyResp2.keys,attnKeyResp2.rt,q2.thisRepN,q2.thisTrialN,q2.thisN,q2.thisIndex,q2.ran,attnKeyResp3.keys,attnKeyResp3.rt,q3.thisRepN,q3.thisTrialN,q3.thisN,q3.thisIndex,q3.ran,practiceStart.keys,practiceStart.rt,practiceResp.keys,practiceResp.rt,timesRedone,practiceRepeat.thisRepN,practiceRepeat.thisTrialN,practiceRepeat.thisN,practiceRepeat.thisIndex,practiceRepeat.ran,attrRating.keys,attrRating.rt,practiceTrial.thisRepN,practiceTrial.thisTrialN,practiceTrial.thisN,practiceTrial.thisIndex,practiceTrial.ran,key_resp_3.keys,key_resp_3.rt,attnChecker.thisRepN,attnChecker.thisTrialN,attnChecker.thisN,attnChecker.thisIndex,attnChecker.ran,faceOnsetTime,trials.thisRepN,trials.thisTrialN,trials.thisN,trials.thisIndex,trials.ran,trials.order,repeat_loop.thisRepN,repeat_loop.thisTrialN,repeat_loop.thisN,repeat_loop.thisIndex,repeat_loop.ran,repeat_loop.order,catResp.keys,catResp.rt,globalTimesRedone,catAllKeys.keys,catAllKeys.rt,contResp.keys,contResp.rt,contResp_2.keys,contResp_2.rt,respQ1.response,respQ1.rt,respQ2.response,respQ2.rt,respQ3.response,respQ3.rt,respQ4.response,respQ4.rt,surveyContinue1.numClicks,surveyContinue1.timesOn,surveyContinue1.timesOff,respQ5.response,respQ5.rt,respQ6.response,respQ6.rt,respQ7.response,respQ7.rt,respQ8.response,respQ8.rt,surveyContinue2.numClicks,surveyContinue2.timesOn,surveyContinue2.timesOff,respQ9.response,respQ9.rt,respQ10.response,respQ10.rt,respQ11.response,respQ11.rt,respQ12.response,respQ12.rt,surveyContinue3.numClicks,surveyContinue3.timesOn,surveyContinue3.timesOff,respQ13.response,respQ13.rt,respQ14.response,respQ14.rt,respQ15.response,respQ15.rt,surveyContinue4.numClicks,surveyContinue4.timesOn,surveyContinue4.timesOff,respAge.response,respAge.rt,genderResp1.response,genderResp1.rt,genderResp2.text,demogexitClick.numClicks,demogexitClick.timesOn,demogexitClick.timesOff,textbox.text,openAnswerClick.numClicks,openAnswerClick.timesOn,openAnswerClick.timesOff,debriefEnd.keys,debriefEnd.rt,exitKey.keys,exitKey.rt
61254c5a6facc8ed023a64de,1,[50.8365],[50.83660000000056],914816,001,2023-11-09_20h48.07.469,fluency,2022.2.4,Win32,260.756193,,,,,,,,,,,,,,,,,,,,,,,,,,,,,,,,,,,,,,,,,,,,,,,,,,,,,,,,,,,,,,,,,,,,,,,,,,,,,,,,,,,,,,,,,,,,,,,,,,,,,,,,,,,,,,,,,,,,,,,,,,,,,,,,,,,,,,,,,,,,,,,,,,,,,,,,,,
,,,,914816,001,2023-11-09_20h48.07.469,fluency,2022.2.4,Win32,260.756193,space,6.4242,,,,,,,,,,,,,,,,,,,,,,,,,,,,,,,,,,,,,,,,,,,,,,,,,,,,,,,,,,,,,,,,,,,,,,,,,,,,,,,,,,,,,,,,,,,,,,,,,,,,,,,,,,,,,,,,,,,,,,,,,,,,,,,,,,,,,,,,,,,,,,,,,,,,,,,,
,,,,914816,001,2023-11-09_20h48.07.469,fluency,2022.2.4,Win32,260.756193,,,space,13.6193,,,,,,,,,,,,,,,,,,,,,,,,,,,,,,,,,,,,,,,,,,,,,,,,,,,,,,,,,,,,,,,,,,,,,,,,,,,,,,,,,,,,,,,,,,,,,,,,,,,,,,,,,,,,,,,,,,,,,,,,,,,,,,,,,,,,,,,,,,,,,,,,,,,,,,
,,,,914816,001,2023-11-09_20h48.07.469,fluency,2022.2.4,Win32,260.756193,,,,,0.299533192,-0.364239063,1,0,0,28.5111,iAgree,,,,,,,,,,,,,,,,,,,,,,,,,,,,,,,,,,,,,,,,,,,,,,,,,,,,,,,,,,,,,,,,,,,,,,,,,,,,,,,,,,,,,,,,,,,,,,,,,,,,,,,,,,,,,,,,,,,,,,,,,,,,,,,,,,,,,,,,,,,,,,,
,,,,914816,001,2023-11-09_20h48.07.469,fluency,2022.2.4,Win32,260.756193,,,,,,,,,,,,space,49.2646,,,,,,,,,,,,,,,,,,,,,,,,,,,,,,,,,,,,,,,,,,,,,,,,,,,,,,,,,,,,,,,,,,,,,,,,,,,,,,,,,,,,,,,,,,,,,,,,,,,,,,,,,,,,,,,,,,,,,,,,,,,,,,,,,,,,,,,,,,,,,
,,,,914816,001,2023-11-09_20h48.07.469,fluency,2022.2.4,Win32,260.756193,,,,,,,,,,,,,,space,55.2511,space,5.7681,0,0,0,42,1,9,4,img/B04_09.jpg,CONTROL,Press J as soon as you see a face, ,JK,,,,,,,,,,,,,,,,,,,,,,,,,,,,,,,,,,,,,,,,,,,,,,,,,,,,,,,,,,,,,,,,,,,,,,,,,,,,,,,,,,,,,,,,,,,,,,,,,,,,,,,,,,,,,,,,,,,,,,,,,,,,,
,,,,914816,001,2023-11-09_20h48.07.469,fluency,2022.2.4,Win32,260.756193,,,,,,,,,,,,,,,,,,,,,,,,,,,,,,c,4.4788,0,0,0,0,1,,,,,,,,,,,,,,,,,,,,,,,,,,,,,,,,,,,,,,,,,,,,,,,,,,,,,,,,,,,,,,,,,,,,,,,,,,,,,,,,,,,,,,,,,,,,,,,,,,,,,,,,,,,,,,,,,,,,,,
,,,,914816,001,2023-11-09_20h48.07.469,fluency,2022.2.4,Win32,260.756193,,,,,,,,,,,,,,,,,,,,,,,,,,,,,,,,,,,,,a,5.8551,0,0,0,0,1,,,,,,,,,,,,,,,,,,,,,,,,,,,,,,,,,,,,,,,,,,,,,,,,,,,,,,,,,,,,,,,,,,,,,,,,,,,,,,,,,,,,,,,,,,,,,,,,,,,,,,,,,,,,,,,
,,,,914816,001,2023-11-09_20h48.07.469,fluency,2022.2.4,Win32,260.756193,,,,,,,,,,,,,,,,,,,,,,,,,,,,,,,,,,,,,,,,,,,,c,16.4609,0,0,0,0,1,,,,,,,,,,,,,,,,,,,,,,,,,,,,,,,,,,,,,,,,,,,,,,,,,,,,,,,,,,,,,,,,,,,,,,,,,,,,,,,,,,,,,,,,,,,,,,,,,,,,,,,,
,,,,914816,001,2023-11-09_20h48.07.469,fluency,2022.2.4,Win32,260.756193,,,,,,,,,,,,,,,,,,,,,,,,,,,,,,,,,,,,,,,,,,,,,,,,,,,space,1.2768,j,2.0937,0,0,0,0,0,1,,,,,,,,,,,,,,,,,,,,,,,,,,,,,,,,,,,,,,,,,,,,,,,,,,,,,,,,,,,,,,,,,,,,,,,,,,,,,,,,,,,,,,,,,,,,,,
,,,,914816,001,2023-11-09_20h48.07.469,fluency,2022.2.4,Win32,260.756193,,,,,,,,,,,,,,,,,,,,,,,,,,,,,,,,,,,,,,,,,,,,,,,,,,,,,,,,,,,,,4,9.455,0,0,0,0,1,,,,,,,,,,,,,,,,,,,,,,,,,,,,,,,,,,,,,,,,,,,,,,,,,,,,,,,,,,,,,,,,,,,,,,,,,,,,,,,,,,,,,,,
,,,,914816,001,2023-11-09_20h48.07.469,fluency,2022.2.4,Win32,260.756193,,,,,,,,,,,,,,,,,,,,,,,,,,,,,,,,,,,,,,,,,,,,,,,,,,,,,,,,,,,,,,,,,,,,space,4.7351,0,0,0,0,1,,,,,,,,,,,,,,,,,,,,,,,,,,,,,,,,,,,,,,,,,,,,,,,,,,,,,,,,,,,,,,,,,,,,,,,,,,,,,,,,
,,,,914816,001,2023-11-09_20h48.07.469,fluency,2022.2.4,Win32,260.756193,,,,,,,,,,,,,,,,,,,,,,,9,7,img/B07_09.jpg,CONTROL,Press J as soon as you see a face, ,JK,,,,,,,,,,,,,,,,,,,,,,,,,,,,,,,,,,,,,,,,,,,,,,276.2053,0,0,0,75,1,109,0,0,0,0,1,98,,,,,,,,,,,,,,,,,,,,,,,,,,,,,,,,,,,,,,,,,,,,,,,,,,,,,,,,,,,,,,,,,,,
,,,,914816,001,2023-11-09_20h48.07.469,fluency,2022.2.4,Win32,260.756193,,,,,,,,,,,,,,,,,,,,,,,,,,,,,,,,,,,,,,,,,,,,,,,,,,,,,,,,,,,,,,,,,,,,,,,,,,,,,,,,,,0,0,0,0,1,,"[""j""]",[0.6728999999994016],0,"[""j""]",[0.6727999999997678],,,,,,,,,,,,,,,,,,,,,,,,,,,,,,,,,,,,,,,,,,,,,,,,,,,,,,,,,,,,,,
,,,,914816,001,2023-11-09_20h48.07.469,fluency,2022.2.4,Win32,260.756193,,,,,,,,,,,,,,,,,,,,,,,9,7,img/B07_09.jpg,CONTROL,Press J as soon as you see a face, ,JK,,,,,,,,,,,,,,,,,,,,,,,,,,,,,,,,6,1.0159,,,,,,,,,,,,,,0,0,0,75,1,,,,,,,,,,,,,space,4.7352,,,,,,,,,,,,,,,,,,,,,,,,,,,,,,,,,,,,,,,,,,,,,,,,,,,,,,,,,,,,
,,,,914816,001,2023-11-09_20h48.07.469,fluency,2022.2.4,Win32,260.756193,,,,,,,,,,,,,,,,,,,,,,,9,8,img/B08_09.jpg,CONTROL,Press J as soon as you see a face, ,JK,,,,,,,,,,,,,,,,,,,,,,,,,,,,,,,,,,,,,,,,,,,,,,287.0015,0,1,1,86,1,109,0,0,0,0,1,98,,,,,,,,,,,,,,,,,,,,,,,,,,,,,,,,,,,,,,,,,,,,,,,,,,,,,,,,,,,,,,,,,,,
,,,,914816,001,2023-11-09_20h48.07.469,fluency,2022.2.4,Win32,260.756193,,,,,,,,,,,,,,,,,,,,,,,,,,,,,,,,,,,,,,,,,,,,,,,,,,,,,,,,,,,,,,,,,,,,,,,,,,,,,,,,,,0,0,0,0,1,,"[""j""]",[0.6453000000007592],0,"[""j""]",[0.6453000000007592],,,,,,,,,,,,,,,,,,,,,,,,,,,,,,,,,,,,,,,,,,,,,,,,,,,,,,,,,,,,,,
,,,,914816,001,2023-11-09_20h48.07.469,fluency,2022.2.4,Win32,260.756193,,,,,,,,,,,,,,,,,,,,,,,9,8,img/B08_09.jpg,CONTROL,Press J as soon as you see a face, ,JK,,,,,,,,,,,,,,,,,,,,,,,,,,,,,,,,5,0.5868,,,,,,,,,,,,,,0,1,1,86,1,,,,,,,,,,,,,space,4.0233,,,,,,,,,,,,,,,,,,,,,,,,,,,,,,,,,,,,,,,,,,,,,,,,,,,,,,,,,,,,
,,,,914816,001,2023-11-09_20h48.07.469,fluency,2022.2.4,Win32,260.756193,,,,,,,,,,,,,,,,,,,,,,,8,7,img/B07_08.jpg,CONTROL,Press J as soon as you see a face, ,JK,,,,,,,,,,,,,,,,,,,,,,,,,,,,,,,,,,,,,,,,,,,,,,296.6515,0,2,2,74,1,109,0,0,0,0,1,98,,,,,,,,,,,,,,,,,,,,,,,,,,,,,,,,,,,,,,,,,,,,,,,,,,,,,,,,,,,,,,,,,,,
,,,,914816,001,2023-11-09_20h48.07.469,fluency,2022.2.4,Win32,260.756193,,,,,,,,,,,,,,,,,,,,,,,,,,,,,,,,,,,,,,,,,,,,,,,,,,,,,,,,,,,,,,,,,,,,,,,,,,,,,,,,,,0,0,0,0,1,,"[""j""]",[1.016400000000374],0,"[""j""]",[1.016400000000374],,,,,,,,,,,,,,,,,,,,,,,,,,,,,,,,,,,,,,,,,,,,,,,,,,,,,,,,,,,,,,
,,,,914816,001,2023-11-09_20h48.07.469,fluency,2022.2.4,Win32,260.756193,,,,,,,,,,,,,,,,,,,,,,,8,7,img/B07_08.jpg,CONTROL,Press J as soon as you see a face, ,JK,,,,,,,,,,,,,,,,,,,,,,,,,,,,,,,,5,2.0166,,,,,,,,,,,,,,0,2,2,74,1,,,,,,,,,,,,,space,0.9324,,,,,,,,,,,,,,,,,,,,,,,,,,,,,,,,,,,,,,,,,,,,,,,,,,,,,,,,,,,,
,,,,914816,001,2023-11-09_20h48.07.469,fluency,2022.2.4,Win32,260.756193,,,,,,,,,,,,,,,,,,,,,,,10,2,img/B02_10.jpg,CONTROL,Press J as soon as you see a face, ,JK,,,,,,,,,,,,,,,,,,,,,,,,,,,,,,,,,,,,,,,,,,,,,,303.6288,0,3,3,21,1,109,0,0,0,0,1,98,,,,,,,,,,,,,,,,,,,,,,,,,,,,,,,,,,,,,,,,,,,,,,,,,,,,,,,,,,,,,,,,,,,
,,,,914816,001,2023-11-09_20h48.07.469,fluency,2022.2.4,Win32,260.756193,,,,,,,,,,,,,,,,,,,,,,,,,,,,,,,,,,,,,,,,,,,,,,,,,,,,,,,,,,,,,,,,,,,,,,,,,,,,,,,,,,0,0,0,0,1,,"[""j""]",[1.704999999999984],0,"[""j""]",[1.704999999999984],,,,,,,,,,,,,,,,,,,,,,,,,,,,,,,,,,,,,,,,,,,,,,,,,,,,,,,,,,,,,,
,,,,914816,001,2023-11-09_20h48.07.469,fluency,2022.2.4,Win32,260.756193,,,,,,,,,,,,,,,,,,,,,,,10,2,img/B02_10.jpg,CONTROL,Press J as soon as you see a face, ,JK,,,,,,,,,,,,,,,,,,,,,,,,,,,,,,,,3,1.9388,,,,,,,,,,,,,,0,3,3,21,1,,,,,,,,,,,,,space,1.2736,,,,,,,,,,,,,,,,,,,,,,,,,,,,,,,,,,,,,,,,,,,,,,,,,,,,,,,,,,,,
,,,,914816,001,2023-11-09_20h48.07.469,fluency,2022.2.4,Win32,260.756193,,,,,,,,,,,,,,,,,,,,,,,10,9,img/B09_10.jpg,CONTROL,Press J as soon as you see a face, ,JK,,,,,,,,,,,,,,,,,,,,,,,,,,,,,,,,,,,,,,,,,,,,,,310.8901,0,4,4,98,1,109,0,0,0,0,1,98,,,,,,,,,,,,,,,,,,,,,,,,,,,,,,,,,,,,,,,,,,,,,,,,,,,,,,,,,,,,,,,,,,,
,,,,914816,001,2023-11-09_20h48.07.469,fluency,2022.2.4,Win32,260.756193,,,,,,,,,,,,,,,,,,,,,,,,,,,,,,,,,,,,,,,,,,,,,,,,,,,,,,,,,,,,,,,,,,,,,,,,,,,,,,,,,,0,0,0,0,1,,"[""j""]",[0.5103999999994357],0,"[""j""]",[0.5103999999994357],,,,,,,,,,,,,,,,,,,,,,,,,,,,,,,,,,,,,,,,,,,,,,,,,,,,,,,,,,,,,,
,,,,914816,001,2023-11-09_20h48.07.469,fluency,2022.2.4,Win32,260.756193,,,,,,,,,,,,,,,,,,,,,,,10,9,img/B09_10.jpg,CONTROL,Press J as soon as you see a face, ,JK,,,,,,,,,,,,,,,,,,,,,,,,,,,,,,,,2,0.9306,,,,,,,,,,,,,,0,4,4,98,1,,,,,,,,,,,,,space,1.3498,,,,,,,,,,,,,,,,,,,,,,,,,,,,,,,,,,,,,,,,,,,,,,,,,,,,,,,,,,,,
,,,,914816,001,2023-11-09_20h48.07.469,fluency,2022.2.4,Win32,260.756193,,,,,,,,,,,,,,,,,,,,,,,6,3,img/B03_06.jpg,CONTROL,Press J as soon as you see a face, ,JK,,,,,,,,,,,,,,,,,,,,,,,,,,,,,,,,,,,,,,,,,,,,,,318.1939,0,5,5,28,1,109,0,0,0,0,1,98,,,,,,,,,,,,,,,,,,,,,,,,,,,,,,,,,,,,,,,,,,,,,,,,,,,,,,,,,,,,,,,,,,,
,,,,914816,001,2023-11-09_20h48.07.469,fluency,2022.2.4,Win32,260.756193,,,,,,,,,,,,,,,,,,,,,,,,,,,,,,,,,,,,,,,,,,,,,,,,,,,,,,,,,,,,,,,,,,,,,,,,,,,,,,,,,,0,0,0,0,1,,"[""j""]",[1.1659999999999968],0,"[""space"",""j""]","[0.8924999999999841,1.1659999999999968]",,,,,,,,,,,,,,,,,,,,,,,,,,,,,,,,,,,,,,,,,,,,,,,,,,,,,,,,,,,,,,
,,,,914816,001,2023-11-09_20h48.07.469,fluency,2022.2.4,Win32,260.756193,,,,,,,,,,,,,,,,,,,,,,,6,3,img/B03_06.jpg,CONTROL,Press J as soon as you see a face, ,JK,,,,,,,,,,,,,,,,,,,,,,,,,,,,,,,,3,1.5101,,,,,,,,,,,,,,0,5,5,28,1,,,,,,,,,,,,,space,1.1851,,,,,,,,,,,,,,,,,,,,,,,,,,,,,,,,,,,,,,,,,,,,,,,,,,,,,,,,,,,,
,,,,914816,001,2023-11-09_20h48.07.469,fluency,2022.2.4,Win32,260.756193,,,,,,,,,,,,,,,,,,,,,,,8,5,img/B05_08.jpg,CONTROL,Press J as soon as you see a face, ,JK,,,,,,,,,,,,,,,,,,,,,,,,,,,,,,,,,,,,,,,,,,,,,,324.9094,0,6,6,52,1,109,0,0,0,0,1,98,,,,,,,,,,,,,,,,,,,,,,,,,,,,,,,,,,,,,,,,,,,,,,,,,,,,,,,,,,,,,,,,,,,
,,,,914816,001,2023-11-09_20h48.07.469,fluency,2022.2.4,Win32,260.756193,,,,,,,,,,,,,,,,,,,,,,,,,,,,,,,,,,,,,,,,,,,,,,,,,,,,,,,,,,,,,,,,,,,,,,,,,,,,,,,,,,0,0,0,0,1,,"[""j""]",[0.9332999999998037],0,"[""j"",""space""]","[0.9332999999998037,1.1870999999995888]",,,,,,,,,,,,,,,,,,,,,,,,,,,,,,,,,,,,,,,,,,,,,,,,,,,,,,,,,,,,,,
,,,,914816,001,2023-11-09_20h48.07.469,fluency,2022.2.4,Win32,260.756193,,,,,,,,,,,,,,,,,,,,,,,8,5,img/B05_08.jpg,CONTROL,Press J as soon as you see a face, ,JK,,,,,,,,,,,,,,,,,,,,,,,,,,,,,,,,4,2.5017,,,,,,,,,,,,,,0,6,6,52,1,,,,,,,,,,,,,space,1.262,,,,,,,,,,,,,,,,,,,,,,,,,,,,,,,,,,,,,,,,,,,,,,,,,,,,,,,,,,,,
,,,,914816,001,2023-11-09_20h48.07.469,fluency,2022.2.4,Win32,260.756193,,,,,,,,,,,,,,,,,,,,,,,1,2,img/B02_01.jpg,CONTROL,Press J as soon as you see a face, ,JK,,,,,,,,,,,,,,,,,,,,,,,,,,,,,,,,,,,,,,,,,,,,,,333.6941,0,7,7,12,1,109,0,0,0,0,1,98,,,,,,,,,,,,,,,,,,,,,,,,,,,,,,,,,,,,,,,,,,,,,,,,,,,,,,,,,,,,,,,,,,,
,,,,914816,001,2023-11-09_20h48.07.469,fluency,2022.2.4,Win32,260.756193,,,,,,,,,,,,,,,,,,,,,,,,,,,,,,,,,,,,,,,,,,,,,,,,,,,,,,,,,,,,,,,,,,,,,,,,,,,,,,,,,,0,0,0,0,1,,"[""j""]",[0.2532000000002199],0,"[""j""]",[0.2532000000002199],,,,,,,,,,,,,,,,,,,,,,,,,,,,,,,,,,,,,,,,,,,,,,,,,,,,,,,,,,,,,,
,,,,914816,001,2023-11-09_20h48.07.469,fluency,2022.2.4,Win32,260.756193,,,,,,,,,,,,,,,,,,,,,,,1,2,img/B02_01.jpg,CONTROL,Press J as soon as you see a face, ,JK,,,,,,,,,,,,,,,,,,,,,,,,,,,,,,,,3,0.4961,,,,,,,,,,,,,,0,7,7,12,1,,,,,,,,,,,,,space,0.6125,,,,,,,,,,,,,,,,,,,,,,,,,,,,,,,,,,,,,,,,,,,,,,,,,,,,,,,,,,,,
,,,,914816,001,2023-11-09_20h48.07.469,fluency,2022.2.4,Win32,260.756193,,,,,,,,,,,,,,,,,,,,,,,2,10,img/B10_02.jpg,CONTROL,Press J as soon as you see a face, ,JK,,,,,,,,,,,,,,,,,,,,,,,,,,,,,,,,,,,,,,,,,,,,,,339.8404,0,8,8,101,1,109,0,0,0,0,1,98,,,,,,,,,,,,,,,,,,,,,,,,,,,,,,,,,,,,,,,,,,,,,,,,,,,,,,,,,,,,,,,,,,,
,,,,914816,001,2023-11-09_20h48.07.469,fluency,2022.2.4,Win32,260.756193,,,,,,,,,,,,,,,,,,,,,,,,,,,,,,,,,,,,,,,,,,,,,,,,,,,,,,,,,,,,,,,,,,,,,,,,,,,,,,,,,,0,0,0,0,1,,"[""j""]",[0.5909000000003743],0,"[""j""]",[0.5908000000007405],,,,,,,,,,,,,,,,,,,,,,,,,,,,,,,,,,,,,,,,,,,,,,,,,,,,,,,,,,,,,,
,,,,914816,001,2023-11-09_20h48.07.469,fluency,2022.2.4,Win32,260.756193,,,,,,,,,,,,,,,,,,,,,,,2,10,img/B10_02.jpg,CONTROL,Press J as soon as you see a face, ,JK,,,,,,,,,,,,,,,,,,,,,,,,,,,,,,,,6,1.1405,,,,,,,,,,,,,,0,8,8,101,1,,,,,,,,,,,,,space,1.5359,,,,,,,,,,,,,,,,,,,,,,,,,,,,,,,,,,,,,,,,,,,,,,,,,,,,,,,,,,,,
,,,,914816,001,2023-11-09_20h48.07.469,fluency,2022.2.4,Win32,260.756193,,,,,,,,,,,,,,,,,,,,,,,1,7,img/B07_01.jpg,CONTROL,Press J as soon as you see a face, ,JK,,,,,,,,,,,,,,,,,,,,,,,,,,,,,,,,,,,,,,,,,,,,,,346.5404,0,9,9,67,1,109,0,0,0,0,1,98,,,,,,,,,,,,,,,,,,,,,,,,,,,,,,,,,,,,,,,,,,,,,,,,,,,,,,,,,,,,,,,,,,,
,,,,914816,001,2023-11-09_20h48.07.469,fluency,2022.2.4,Win32,260.756193,,,,,,,,,,,,,,,,,,,,,,,,,,,,,,,,,,,,,,,,,,,,,,,,,,,,,,,,,,,,,,,,,,,,,,,,,,,,,,,,,,0,0,0,0,1,,"[""j""]",[0.6692000000001599],0,"[""j""]",[0.669100000000526],,,,,,,,,,,,,,,,,,,,,,,,,,,,,,,,,,,,,,,,,,,,,,,,,,,,,,,,,,,,,,
,,,,914816,001,2023-11-09_20h48.07.469,fluency,2022.2.4,Win32,260.756193,,,,,,,,,,,,,,,,,,,,,,,1,7,img/B07_01.jpg,CONTROL,Press J as soon as you see a face, ,JK,,,,,,,,,,,,,,,,,,,,,,,,,,,,,,,,4,2.8509,,,,,,,,,,,,,,0,9,9,67,1,,,,,,,,,,,,,space,1.4477,,,,,,,,,,,,,,,,,,,,,,,,,,,,,,,,,,,,,,,,,,,,,,,,,,,,,,,,,,,,
,,,,914816,001,2023-11-09_20h48.07.469,fluency,2022.2.4,Win32,260.756193,,,,,,,,,,,,,,,,,,,,,,,0,10,img/B10_00.jpg,CONTROL,Press J as soon as you see a face, ,JK,,,,,,,,,,,,,,,,,,,,,,,,,,,,,,,,,,,,,,,,,,,,,,354.8634,0,10,10,99,1,109,0,0,0,0,1,98,,,,,,,,,,,,,,,,,,,,,,,,,,,,,,,,,,,,,,,,,,,,,,,,,,,,,,,,,,,,,,,,,,,
,,,,914816,001,2023-11-09_20h48.07.469,fluency,2022.2.4,Win32,260.756193,,,,,,,,,,,,,,,,,,,,,,,,,,,,,,,,,,,,,,,,,,,,,,,,,,,,,,,,,,,,,,,,,,,,,,,,,,,,,,,,,,0,0,0,0,1,,"[""j"",""j""]","[0.7994000000003894,0.8859000000003903]",0,"[""space"",""j"",""j""]","[0.4680999999996516,0.7994000000003894,0.8859000000003903]",,,,,,,,,,,,,,,,,,,,,,,,,,,,,,,,,,,,,,,,,,,,,,,,,,,,,,,,,,,,,,
,,,,914816,001,2023-11-09_20h48.07.469,fluency,2022.2.4,Win32,260.756193,,,,,,,,,,,,,,,,,,,,,,,0,10,img/B10_00.jpg,CONTROL,Press J as soon as you see a face, ,JK,,,,,,,,,,,,,,,,,,,,,,,,,,,,,,,,6,2.3321,,,,,,,,,,,,,,0,10,10,99,1,,,,,,,,,,,,,space,0.6245,,,,,,,,,,,,,,,,,,,,,,,,,,,,,,,,,,,,,,,,,,,,,,,,,,,,,,,,,,,,
,,,,914816,001,2023-11-09_20h48.07.469,fluency,2022.2.4,Win32,260.756193,,,,,,,,,,,,,,,,,,,,,,,10,4,img/B04_10.jpg,CONTROL,Press J as soon as you see a face, ,JK,,,,,,,,,,,,,,,,,,,,,,,,,,,,,,,,,,,,,,,,,,,,,,361.8518,0,11,11,43,1,109,0,0,0,0,1,98,,,,,,,,,,,,,,,,,,,,,,,,,,,,,,,,,,,,,,,,,,,,,,,,,,,,,,,,,,,,,,,,,,,
,,,,914816,001,2023-11-09_20h48.07.469,fluency,2022.2.4,Win32,260.756193,,,,,,,,,,,,,,,,,,,,,,,,,,,,,,,,,,,,,,,,,,,,,,,,,,,,,,,,,,,,,,,,,,,,,,,,,,,,,,,,,,0,0,0,0,1,,"[""j""]",[0.409700000000214],0,"[""j""]",[0.40959999999961383],,,,,,,,,,,,,,,,,,,,,,,,,,,,,,,,,,,,,,,,,,,,,,,,,,,,,,,,,,,,,,
,,,,914816,001,2023-11-09_20h48.07.469,fluency,2022.2.4,Win32,260.756193,,,,,,,,,,,,,,,,,,,,,,,10,4,img/B04_10.jpg,CONTROL,Press J as soon as you see a face, ,JK,,,,,,,,,,,,,,,,,,,,,,,,,,,,,,,,1,3.5396,,,,,,,,,,,,,,0,11,11,43,1,,,,,,,,,,,,,space,1.2523,,,,,,,,,,,,,,,,,,,,,,,,,,,,,,,,,,,,,,,,,,,,,,,,,,,,,,,,,,,,
,,,,914816,001,2023-11-09_20h48.07.469,fluency,2022.2.4,Win32,260.756193,,,,,,,,,,,,,,,,,,,,,,,1,6,img/B06_01.jpg,CONTROL,Press J as soon as you see a face, ,JK,,,,,,,,,,,,,,,,,,,,,,,,,,,,,,,,,,,,,,,,,,,,,,371.6751,0,12,12,56,1,109,0,0,0,0,1,98,,,,,,,,,,,,,,,,,,,,,,,,,,,,,,,,,,,,,,,,,,,,,,,,,,,,,,,,,,,,,,,,,,,
,,,,914816,001,2023-11-09_20h48.07.469,fluency,2022.2.4,Win32,260.756193,,,,,,,,,,,,,,,,,,,,,,,,,,,,,,,,,,,,,,,,,,,,,,,,,,,,,,,,,,,,,,,,,,,,,,,,,,,,,,,,,,0,0,0,0,1,,"[""j""]",[0.7032000000002085],0,"[""j""]",[0.7031000000005747],,,,,,,,,,,,,,,,,,,,,,,,,,,,,,,,,,,,,,,,,,,,,,,,,,,,,,,,,,,,,,
,,,,914816,001,2023-11-09_20h48.07.469,fluency,2022.2.4,Win32,260.756193,,,,,,,,,,,,,,,,,,,,,,,1,6,img/B06_01.jpg,CONTROL,Press J as soon as you see a face, ,JK,,,,,,,,,,,,,,,,,,,,,,,,,,,,,,,,6,1.1206,,,,,,,,,,,,,,0,12,12,56,1,,,,,,,,,,,,,space,1.0649,,,,,,,,,,,,,,,,,,,,,,,,,,,,,,,,,,,,,,,,,,,,,,,,,,,,,,,,,,,,
,,,,914816,001,2023-11-09_20h48.07.469,fluency,2022.2.4,Win32,260.756193,,,,,,,,,,,,,,,,,,,,,,,4,3,img/B03_04.jpg,CONTROL,Press J as soon as you see a face, ,JK,,,,,,,,,,,,,,,,,,,,,,,,,,,,,,,,,,,,,,,,,,,,,,378.8826,0,13,13,26,1,109,0,0,0,0,1,98,,,,,,,,,,,,,,,,,,,,,,,,,,,,,,,,,,,,,,,,,,,,,,,,,,,,,,,,,,,,,,,,,,,
,,,,914816,001,2023-11-09_20h48.07.469,fluency,2022.2.4,Win32,260.756193,,,,,,,,,,,,,,,,,,,,,,,,,,,,,,,,,,,,,,,,,,,,,,,,,,,,,,,,,,,,,,,,,,,,,,,,,,,,,,,,,,0,0,0,0,1,,"[""j""]",[0.6410999999996534],0,"[""j""]",[0.6410999999996534],,,,,,,,,,,,,,,,,,,,,,,,,,,,,,,,,,,,,,,,,,,,,,,,,,,,,,,,,,,,,,
,,,,914816,001,2023-11-09_20h48.07.469,fluency,2022.2.4,Win32,260.756193,,,,,,,,,,,,,,,,,,,,,,,4,3,img/B03_04.jpg,CONTROL,Press J as soon as you see a face, ,JK,,,,,,,,,,,,,,,,,,,,,,,,,,,,,,,,5,1.8846,,,,,,,,,,,,,,0,13,13,26,1,,,,,,,,,,,,,space,1.1429,,,,,,,,,,,,,,,,,,,,,,,,,,,,,,,,,,,,,,,,,,,,,,,,,,,,,,,,,,,,
,,,,914816,001,2023-11-09_20h48.07.469,fluency,2022.2.4,Win32,260.756193,,,,,,,,,,,,,,,,,,,,,,,7,3,img/B03_07.jpg,CONTROL,Press J as soon as you see a face, ,JK,,,,,,,,,,,,,,,,,,,,,,,,,,,,,,,,,,,,,,,,,,,,,,386.9443,0,14,14,29,1,109,0,0,0,0,1,98,,,,,,,,,,,,,,,,,,,,,,,,,,,,,,,,,,,,,,,,,,,,,,,,,,,,,,,,,,,,,,,,,,,
,,,,914816,001,2023-11-09_20h48.07.469,fluency,2022.2.4,Win32,260.756193,,,,,,,,,,,,,,,,,,,,,,,,,,,,,,,,,,,,,,,,,,,,,,,,,,,,,,,,,,,,,,,,,,,,,,,,,,,,,,,,,,0,0,0,0,1,,"[""j""]",[0.4106000000005565],0,"[""j""]",[0.4106000000005565],,,,,,,,,,,,,,,,,,,,,,,,,,,,,,,,,,,,,,,,,,,,,,,,,,,,,,,,,,,,,,
,,,,914816,001,2023-11-09_20h48.07.469,fluency,2022.2.4,Win32,260.756193,,,,,,,,,,,,,,,,,,,,,,,7,3,img/B03_07.jpg,CONTROL,Press J as soon as you see a face, ,JK,,,,,,,,,,,,,,,,,,,,,,,,,,,,,,,,6,1.2202,,,,,,,,,,,,,,0,14,14,29,1,,,,,,,,,,,,,space,0.8965,,,,,,,,,,,,,,,,,,,,,,,,,,,,,,,,,,,,,,,,,,,,,,,,,,,,,,,,,,,,
,,,,914816,001,2023-11-09_20h48.07.469,fluency,2022.2.4,Win32,260.756193,,,,,,,,,,,,,,,,,,,,,,,5,10,img/B10_05.jpg,CONTROL,Press J as soon as you see a face, ,JK,,,,,,,,,,,,,,,,,,,,,,,,,,,,,,,,,,,,,,,,,,,,,,394.0829,0,15,15,104,1,109,0,0,0,0,1,98,,,,,,,,,,,,,,,,,,,,,,,,,,,,,,,,,,,,,,,,,,,,,,,,,,,,,,,,,,,,,,,,,,,
,,,,914816,001,2023-11-09_20h48.07.469,fluency,2022.2.4,Win32,260.756193,,,,,,,,,,,,,,,,,,,,,,,,,,,,,,,,,,,,,,,,,,,,,,,,,,,,,,,,,,,,,,,,,,,,,,,,,,,,,,,,,,0,0,0,0,1,,"[""j""]",[0.4886999999992554],0,"[""j""]",[0.4886999999992554],,,,,,,,,,,,,,,,,,,,,,,,,,,,,,,,,,,,,,,,,,,,,,,,,,,,,,,,,,,,,,
,,,,914816,001,2023-11-09_20h48.07.469,fluency,2022.2.4,Win32,260.756193,,,,,,,,,,,,,,,,,,,,,,,5,10,img/B10_05.jpg,CONTROL,Press J as soon as you see a face, ,JK,,,,,,,,,,,,,,,,,,,,,,,,,,,,,,,,3,1.4886,,,,,,,,,,,,,,0,15,15,104,1,,,,,,,,,,,,,space,0.8773,,,,,,,,,,,,,,,,,,,,,,,,,,,,,,,,,,,,,,,,,,,,,,,,,,,,,,,,,,,,
,,,,914816,001,2023-11-09_20h48.07.469,fluency,2022.2.4,Win32,260.756193,,,,,,,,,,,,,,,,,,,,,,,9,3,img/B03_09.jpg,CONTROL,Press J as soon as you see a face, ,JK,,,,,,,,,,,,,,,,,,,,,,,,,,,,,,,,,,,,,,,,,,,,,,401.4637,0,16,16,31,1,109,0,0,0,0,1,98,,,,,,,,,,,,,,,,,,,,,,,,,,,,,,,,,,,,,,,,,,,,,,,,,,,,,,,,,,,,,,,,,,,
,,,,914816,001,2023-11-09_20h48.07.469,fluency,2022.2.4,Win32,260.756193,,,,,,,,,,,,,,,,,,,,,,,,,,,,,,,,,,,,,,,,,,,,,,,,,,,,,,,,,,,,,,,,,,,,,,,,,,,,,,,,,,0,0,0,0,1,,"[""j""]",[0.48620000000016717],0,"[""j""]",[0.48609999999962383],,,,,,,,,,,,,,,,,,,,,,,,,,,,,,,,,,,,,,,,,,,,,,,,,,,,,,,,,,,,,,
,,,,914816,001,2023-11-09_20h48.07.469,fluency,2022.2.4,Win32,260.756193,,,,,,,,,,,,,,,,,,,,,,,9,3,img/B03_09.jpg,CONTROL,Press J as soon as you see a face, ,JK,,,,,,,,,,,,,,,,,,,,,,,,,,,,,,,,6,2.1291,,,,,,,,,,,,,,0,16,16,31,1,,,,,,,,,,,,,space,1.0306,,,,,,,,,,,,,,,,,,,,,,,,,,,,,,,,,,,,,,,,,,,,,,,,,,,,,,,,,,,,
,,,,914816,001,2023-11-09_20h48.07.469,fluency,2022.2.4,Win32,260.756193,,,,,,,,,,,,,,,,,,,,,,,0,6,img/B06_00.jpg,CONTROL,Press J as soon as you see a face, ,JK,,,,,,,,,,,,,,,,,,,,,,,,,,,,,,,,,,,,,,,,,,,,,,409.6483,0,17,17,55,1,109,0,0,0,0,1,98,,,,,,,,,,,,,,,,,,,,,,,,,,,,,,,,,,,,,,,,,,,,,,,,,,,,,,,,,,,,,,,,,,,
,,,,914816,001,2023-11-09_20h48.07.469,fluency,2022.2.4,Win32,260.756193,,,,,,,,,,,,,,,,,,,,,,,,,,,,,,,,,,,,,,,,,,,,,,,,,,,,,,,,,,,,,,,,,,,,,,,,,,,,,,,,,,0,0,0,0,1,,"[""j""]",[0.8402999999998428],0,"[""space"",""j""]","[0.54200000000003,0.8402999999998428]",,,,,,,,,,,,,,,,,,,,,,,,,,,,,,,,,,,,,,,,,,,,,,,,,,,,,,,,,,,,,,
,,,,914816,001,2023-11-09_20h48.07.469,fluency,2022.2.4,Win32,260.756193,,,,,,,,,,,,,,,,,,,,,,,0,6,img/B06_00.jpg,CONTROL,Press J as soon as you see a face, ,JK,,,,,,,,,,,,,,,,,,,,,,,,,,,,,,,,6,0.9034,,,,,,,,,,,,,,0,17,17,55,1,,,,,,,,,,,,,space,0.8517,,,,,,,,,,,,,,,,,,,,,,,,,,,,,,,,,,,,,,,,,,,,,,,,,,,,,,,,,,,,
,,,,914816,001,2023-11-09_20h48.07.469,fluency,2022.2.4,Win32,260.756193,,,,,,,,,,,,,,,,,,,,,,,10,8,img/B08_10.jpg,CONTROL,Press J as soon as you see a face, ,JK,,,,,,,,,,,,,,,,,,,,,,,,,,,,,,,,,,,,,,,,,,,,,,416.4372,0,18,18,87,1,109,0,0,0,0,1,98,,,,,,,,,,,,,,,,,,,,,,,,,,,,,,,,,,,,,,,,,,,,,,,,,,,,,,,,,,,,,,,,,,,
,,,,914816,001,2023-11-09_20h48.07.469,fluency,2022.2.4,Win32,260.756193,,,,,,,,,,,,,,,,,,,,,,,,,,,,,,,,,,,,,,,,,,,,,,,,,,,,,,,,,,,,,,,,,,,,,,,,,,,,,,,,,,0,0,0,0,1,,"[""j""]",[0.26570000000020855],0,"[""j""]",[0.26570000000020855],,,,,,,,,,,,,,,,,,,,,,,,,,,,,,,,,,,,,,,,,,,,,,,,,,,,,,,,,,,,,,
,,,,914816,001,2023-11-09_20h48.07.469,fluency,2022.2.4,Win32,260.756193,,,,,,,,,,,,,,,,,,,,,,,10,8,img/B08_10.jpg,CONTROL,Press J as soon as you see a face, ,JK,,,,,,,,,,,,,,,,,,,,,,,,,,,,,,,,4,0.9154,,,,,,,,,,,,,,0,18,18,87,1,,,,,,,,,,,,,space,1.3159,,,,,,,,,,,,,,,,,,,,,,,,,,,,,,,,,,,,,,,,,,,,,,,,,,,,,,,,,,,,
,,,,914816,001,2023-11-09_20h48.07.469,fluency,2022.2.4,Win32,260.756193,,,,,,,,,,,,,,,,,,,,,,,10,1,img/B01_10.jpg,CONTROL,Press J as soon as you see a face, ,JK,,,,,,,,,,,,,,,,,,,,,,,,,,,,,,,,,,,,,,,,,,,,,,422.6946,0,19,19,10,1,109,0,0,0,0,1,98,,,,,,,,,,,,,,,,,,,,,,,,,,,,,,,,,,,,,,,,,,,,,,,,,,,,,,,,,,,,,,,,,,,
,,,,914816,001,2023-11-09_20h48.07.469,fluency,2022.2.4,Win32,260.756193,,,,,,,,,,,,,,,,,,,,,,,,,,,,,,,,,,,,,,,,,,,,,,,,,,,,,,,,,,,,,,,,,,,,,,,,,,,,,,,,,,0,0,0,0,1,,"[""j""]",[1.049299999999846],0,"[""space"",""j""]","[0.7187999999998169,1.0495000000000232]",,,,,,,,,,,,,,,,,,,,,,,,,,,,,,,,,,,,,,,,,,,,,,,,,,,,,,,,,,,,,,
,,,,914816,001,2023-11-09_20h48.07.469,fluency,2022.2.4,Win32,260.756193,,,,,,,,,,,,,,,,,,,,,,,10,1,img/B01_10.jpg,CONTROL,Press J as soon as you see a face, ,JK,,,,,,,,,,,,,,,,,,,,,,,,,,,,,,,,5,1.6382,,,,,,,,,,,,,,0,19,19,10,1,,,,,,,,,,,,,space,1.1748,,,,,,,,,,,,,,,,,,,,,,,,,,,,,,,,,,,,,,,,,,,,,,,,,,,,,,,,,,,,
,,,,914816,001,2023-11-09_20h48.07.469,fluency,2022.2.4,Win32,260.756193,,,,,,,,,,,,,,,,,,,,,,,2,8,img/B08_02.jpg,CONTROL,Press J as soon as you see a face, ,JK,,,,,,,,,,,,,,,,,,,,,,,,,,,,,,,,,,,,,,,,,,,,,,430.533,0,20,20,79,1,109,0,0,0,0,1,98,,,,,,,,,,,,,,,,,,,,,,,,,,,,,,,,,,,,,,,,,,,,,,,,,,,,,,,,,,,,,,,,,,,
,,,,914816,001,2023-11-09_20h48.07.469,fluency,2022.2.4,Win32,260.756193,,,,,,,,,,,,,,,,,,,,,,,,,,,,,,,,,,,,,,,,,,,,,,,,,,,,,,,,,,,,,,,,,,,,,,,,,,,,,,,,,,0,0,0,0,1,,"[""j""]",[0.7452000000001817],0,"[""space"",""j""]","[0.47100000000000364,0.7452000000001817]",,,,,,,,,,,,,,,,,,,,,,,,,,,,,,,,,,,,,,,,,,,,,,,,,,,,,,,,,,,,,,
,,,,914816,001,2023-11-09_20h48.07.469,fluency,2022.2.4,Win32,260.756193,,,,,,,,,,,,,,,,,,,,,,,2,8,img/B08_02.jpg,CONTROL,Press J as soon as you see a face, ,JK,,,,,,,,,,,,,,,,,,,,,,,,,,,,,,,,2,1.0497,,,,,,,,,,,,,,0,20,20,79,1,,,,,,,,,,,,,space,0.9324,,,,,,,,,,,,,,,,,,,,,,,,,,,,,,,,,,,,,,,,,,,,,,,,,,,,,,,,,,,,
,,,,914816,001,2023-11-09_20h48.07.469,fluency,2022.2.4,Win32,260.756193,,,,,,,,,,,,,,,,,,,,,,,7,7,img/B07_07.jpg,CONTROL,Press J as soon as you see a face, ,JK,,,,,,,,,,,,,,,,,,,,,,,,,,,,,,,,,,,,,,,,,,,,,,437.5331,0,21,21,73,1,109,0,0,0,0,1,98,,,,,,,,,,,,,,,,,,,,,,,,,,,,,,,,,,,,,,,,,,,,,,,,,,,,,,,,,,,,,,,,,,,
,,,,914816,001,2023-11-09_20h48.07.469,fluency,2022.2.4,Win32,260.756193,,,,,,,,,,,,,,,,,,,,,,,,,,,,,,,,,,,,,,,,,,,,,,,,,,,,,,,,,,,,,,,,,,,,,,,,,,,,,,,,,,0,0,0,0,1,,"[""j""]",[0.3532000000001858],0,"[""j""]",[0.353100000000552],,,,,,,,,,,,,,,,,,,,,,,,,,,,,,,,,,,,,,,,,,,,,,,,,,,,,,,,,,,,,,
,,,,914816,001,2023-11-09_20h48.07.469,fluency,2022.2.4,Win32,260.756193,,,,,,,,,,,,,,,,,,,,,,,7,7,img/B07_07.jpg,CONTROL,Press J as soon as you see a face, ,JK,,,,,,,,,,,,,,,,,,,,,,,,,,,,,,,,4,0.6334,,,,,,,,,,,,,,0,21,21,73,1,,,,,,,,,,,,,space,0.6785,,,,,,,,,,,,,,,,,,,,,,,,,,,,,,,,,,,,,,,,,,,,,,,,,,,,,,,,,,,,
,,,,914816,001,2023-11-09_20h48.07.469,fluency,2022.2.4,Win32,260.756193,,,,,,,,,,,,,,,,,,,,,,,3,10,img/B10_03.jpg,CONTROL,Press J as soon as you see a face, ,JK,,,,,,,,,,,,,,,,,,,,,,,,,,,,,,,,,,,,,,,,,,,,,,442.8795,0,22,22,102,1,109,0,0,0,0,1,98,,,,,,,,,,,,,,,,,,,,,,,,,,,,,,,,,,,,,,,,,,,,,,,,,,,,,,,,,,,,,,,,,,,
,,,,914816,001,2023-11-09_20h48.07.469,fluency,2022.2.4,Win32,260.756193,,,,,,,,,,,,,,,,,,,,,,,,,,,,,,,,,,,,,,,,,,,,,,,,,,,,,,,,,,,,,,,,,,,,,,,,,,,,,,,,,,0,0,0,0,1,,"[""j""]",[0.9882999999998106],0,"[""j""]",[0.9882999999998106],,,,,,,,,,,,,,,,,,,,,,,,,,,,,,,,,,,,,,,,,,,,,,,,,,,,,,,,,,,,,,
,,,,914816,001,2023-11-09_20h48.07.469,fluency,2022.2.4,Win32,260.756193,,,,,,,,,,,,,,,,,,,,,,,3,10,img/B10_03.jpg,CONTROL,Press J as soon as you see a face, ,JK,,,,,,,,,,,,,,,,,,,,,,,,,,,,,,,,5,0.7438,,,,,,,,,,,,,,0,22,22,102,1,,,,,,,,,,,,,space,0.6002,,,,,,,,,,,,,,,,,,,,,,,,,,,,,,,,,,,,,,,,,,,,,,,,,,,,,,,,,,,,
,,,,914816,001,2023-11-09_20h48.07.469,fluency,2022.2.4,Win32,260.756193,,,,,,,,,,,,,,,,,,,,,,,1,1,img/B01_01.jpg,CONTROL,Press J as soon as you see a face, ,JK,,,,,,,,,,,,,,,,,,,,,,,,,,,,,,,,,,,,,,,,,,,,,,448.2485,0,23,23,1,1,109,0,0,0,0,1,98,,,,,,,,,,,,,,,,,,,,,,,,,,,,,,,,,,,,,,,,,,,,,,,,,,,,,,,,,,,,,,,,,,,
,,,,914816,001,2023-11-09_20h48.07.469,fluency,2022.2.4,Win32,260.756193,,,,,,,,,,,,,,,,,,,,,,,,,,,,,,,,,,,,,,,,,,,,,,,,,,,,,,,,,,,,,,,,,,,,,,,,,,,,,,,,,,0,0,0,0,1,,"[""j""]",[0.9930999999996288],0,"[""space"",""j""]","[0.694799999999816,0.9930999999996288]",,,,,,,,,,,,,,,,,,,,,,,,,,,,,,,,,,,,,,,,,,,,,,,,,,,,,,,,,,,,,,
,,,,914816,001,2023-11-09_20h48.07.469,fluency,2022.2.4,Win32,260.756193,,,,,,,,,,,,,,,,,,,,,,,1,1,img/B01_01.jpg,CONTROL,Press J as soon as you see a face, ,JK,,,,,,,,,,,,,,,,,,,,,,,,,,,,,,,,3,0.654,,,,,,,,,,,,,,0,23,23,1,1,,,,,,,,,,,,,space,0.6343,,,,,,,,,,,,,,,,,,,,,,,,,,,,,,,,,,,,,,,,,,,,,,,,,,,,,,,,,,,,
,,,,914816,001,2023-11-09_20h48.07.469,fluency,2022.2.4,Win32,260.756193,,,,,,,,,,,,,,,,,,,,,,,9,4,img/B04_09.jpg,CONTROL,Press J as soon as you see a face, ,JK,,,,,,,,,,,,,,,,,,,,,,,,,,,,,,,,,,,,,,,,,,,,,,453.5524,0,24,24,42,1,109,0,0,0,0,1,98,,,,,,,,,,,,,,,,,,,,,,,,,,,,,,,,,,,,,,,,,,,,,,,,,,,,,,,,,,,,,,,,,,,
,,,,914816,001,2023-11-09_20h48.07.469,fluency,2022.2.4,Win32,260.756193,,,,,,,,,,,,,,,,,,,,,,,,,,,,,,,,,,,,,,,,,,,,,,,,,,,,,,,,,,,,,,,,,,,,,,,,,,,,,,,,,,0,0,0,0,1,,"[""j""]",[0.28700000000003456],0,"[""j""]",[0.28700000000003456],,,,,,,,,,,,,,,,,,,,,,,,,,,,,,,,,,,,,,,,,,,,,,,,,,,,,,,,,,,,,,
,,,,914816,001,2023-11-09_20h48.07.469,fluency,2022.2.4,Win32,260.756193,,,,,,,,,,,,,,,,,,,,,,,9,4,img/B04_09.jpg,CONTROL,Press J as soon as you see a face, ,JK,,,,,,,,,,,,,,,,,,,,,,,,,,,,,,,,3,1.1744,,,,,,,,,,,,,,0,24,24,42,1,,,,,,,,,,,,,space,0.6115,,,,,,,,,,,,,,,,,,,,,,,,,,,,,,,,,,,,,,,,,,,,,,,,,,,,,,,,,,,,
,,,,914816,001,2023-11-09_20h48.07.469,fluency,2022.2.4,Win32,260.756193,,,,,,,,,,,,,,,,,,,,,,,3,6,img/B06_03.jpg,CONTROL,Press J as soon as you see a face, ,JK,,,,,,,,,,,,,,,,,,,,,,,,,,,,,,,,,,,,,,,,,,,,,,460.3605,0,25,25,58,1,109,0,0,0,0,1,98,,,,,,,,,,,,,,,,,,,,,,,,,,,,,,,,,,,,,,,,,,,,,,,,,,,,,,,,,,,,,,,,,,,
,,,,914816,001,2023-11-09_20h48.07.469,fluency,2022.2.4,Win32,260.756193,,,,,,,,,,,,,,,,,,,,,,,,,,,,,,,,,,,,,,,,,,,,,,,,,,,,,,,,,,,,,,,,,,,,,,,,,,,,,,,,,,0,0,0,0,1,,"[""j""]",[0.22670000000016444],0,"[""j""]",[0.2265999999996211],,,,,,,,,,,,,,,,,,,,,,,,,,,,,,,,,,,,,,,,,,,,,,,,,,,,,,,,,,,,,,
,,,,914816,001,2023-11-09_20h48.07.469,fluency,2022.2.4,Win32,260.756193,,,,,,,,,,,,,,,,,,,,,,,3,6,img/B06_03.jpg,CONTROL,Press J as soon as you see a face, ,JK,,,,,,,,,,,,,,,,,,,,,,,,,,,,,,,,6,0.5058,,,,,,,,,,,,,,0,25,25,58,1,,,,,,,,,,,,,space,1.0971,,,,,,,,,,,,,,,,,,,,,,,,,,,,,,,,,,,,,,,,,,,,,,,,,,,,,,,,,,,,
,,,,914816,001,2023-11-09_20h48.07.469,fluency,2022.2.4,Win32,260.756193,,,,,,,,,,,,,,,,,,,,,,,3,8,img/B08_03.jpg,CONTROL,Press J as soon as you see a face, ,JK,,,,,,,,,,,,,,,,,,,,,,,,,,,,,,,,,,,,,,,,,,,,,,465.9909,0,26,26,80,1,109,0,0,0,0,1,98,,,,,,,,,,,,,,,,,,,,,,,,,,,,,,,,,,,,,,,,,,,,,,,,,,,,,,,,,,,,,,,,,,,
,,,,914816,001,2023-11-09_20h48.07.469,fluency,2022.2.4,Win32,260.756193,,,,,,,,,,,,,,,,,,,,,,,,,,,,,,,,,,,,,,,,,,,,,,,,,,,,,,,,,,,,,,,,,,,,,,,,,,,,,,,,,,0,0,0,0,1,,"[""j""]",[0.6987000000001444],0,"[""j""]",[0.6988000000006878],,,,,,,,,,,,,,,,,,,,,,,,,,,,,,,,,,,,,,,,,,,,,,,,,,,,,,,,,,,,,,
,,,,914816,001,2023-11-09_20h48.07.469,fluency,2022.2.4,Win32,260.756193,,,,,,,,,,,,,,,,,,,,,,,3,8,img/B08_03.jpg,CONTROL,Press J as soon as you see a face, ,JK,,,,,,,,,,,,,,,,,,,,,,,,,,,,,,,,2,1.3997,,,,,,,,,,,,,,0,26,26,80,1,,,,,,,,,,,,,space,0.5045,,,,,,,,,,,,,,,,,,,,,,,,,,,,,,,,,,,,,,,,,,,,,,,,,,,,,,,,,,,,
,,,,914816,001,2023-11-09_20h48.07.469,fluency,2022.2.4,Win32,260.756193,,,,,,,,,,,,,,,,,,,,,,,7,8,img/B08_07.jpg,CONTROL,Press J as soon as you see a face, ,JK,,,,,,,,,,,,,,,,,,,,,,,,,,,,,,,,,,,,,,,,,,,,,,472.9103,0,27,27,84,1,109,0,0,0,0,1,98,,,,,,,,,,,,,,,,,,,,,,,,,,,,,,,,,,,,,,,,,,,,,,,,,,,,,,,,,,,,,,,,,,,
,,,,914816,001,2023-11-09_20h48.07.469,fluency,2022.2.4,Win32,260.756193,,,,,,,,,,,,,,,,,,,,,,,,,,,,,,,,,,,,,,,,,,,,,,,,,,,,,,,,,,,,,,,,,,,,,,,,,,,,,,,,,,0,0,0,0,1,,"[""j""]",[0.222899999999413],0,"[""j""]",[0.222899999999413],,,,,,,,,,,,,,,,,,,,,,,,,,,,,,,,,,,,,,,,,,,,,,,,,,,,,,,,,,,,,,
,,,,914816,001,2023-11-09_20h48.07.469,fluency,2022.2.4,Win32,260.756193,,,,,,,,,,,,,,,,,,,,,,,7,8,img/B08_07.jpg,CONTROL,Press J as soon as you see a face, ,JK,,,,,,,,,,,,,,,,,,,,,,,,,,,,,,,,4,1.8768,,,,,,,,,,,,,,0,27,27,84,1,,,,,,,,,,,,,space,0.4153,,,,,,,,,,,,,,,,,,,,,,,,,,,,,,,,,,,,,,,,,,,,,,,,,,,,,,,,,,,,
,,,,914816,001,2023-11-09_20h48.07.469,fluency,2022.2.4,Win32,260.756193,,,,,,,,,,,,,,,,,,,,,,,4,9,img/B09_04.jpg,CONTROL,Press J as soon as you see a face, ,JK,,,,,,,,,,,,,,,,,,,,,,,,,,,,,,,,,,,,,,,,,,,,,,480.2373,0,28,28,92,1,109,0,0,0,0,1,98,,,,,,,,,,,,,,,,,,,,,,,,,,,,,,,,,,,,,,,,,,,,,,,,,,,,,,,,,,,,,,,,,,,
,,,,914816,001,2023-11-09_20h48.07.469,fluency,2022.2.4,Win32,260.756193,,,,,,,,,,,,,,,,,,,,,,,,,,,,,,,,,,,,,,,,,,,,,,,,,,,,,,,,,,,,,,,,,,,,,,,,,,,,,,,,,,0,0,0,0,1,,"[""j""]",[0.2288999999994985],0,"[""j""]",[0.22879999999986467],,,,,,,,,,,,,,,,,,,,,,,,,,,,,,,,,,,,,,,,,,,,,,,,,,,,,,,,,,,,,,
,,,,914816,001,2023-11-09_20h48.07.469,fluency,2022.2.4,Win32,260.756193,,,,,,,,,,,,,,,,,,,,,,,4,9,img/B09_04.jpg,CONTROL,Press J as soon as you see a face, ,JK,,,,,,,,,,,,,,,,,,,,,,,,,,,,,,,,5,0.4155,,,,,,,,,,,,,,0,28,28,92,1,,,,,,,,,,,,,space,0.5119,,,,,,,,,,,,,,,,,,,,,,,,,,,,,,,,,,,,,,,,,,,,,,,,,,,,,,,,,,,,
,,,,914816,001,2023-11-09_20h48.07.469,fluency,2022.2.4,Win32,260.756193,,,,,,,,,,,,,,,,,,,,,,,7,5,img/B05_07.jpg,CONTROL,Press J as soon as you see a face, ,JK,,,,,,,,,,,,,,,,,,,,,,,,,,,,,,,,,,,,,,,,,,,,,,486.1873,0,29,29,51,1,109,0,0,0,0,1,98,,,,,,,,,,,,,,,,,,,,,,,,,,,,,,,,,,,,,,,,,,,,,,,,,,,,,,,,,,,,,,,,,,,
,,,,914816,001,2023-11-09_20h48.07.469,fluency,2022.2.4,Win32,260.756193,,,,,,,,,,,,,,,,,,,,,,,,,,,,,,,,,,,,,,,,,,,,,,,,,,,,,,,,,,,,,,,,,,,,,,,,,,,,,,,,,,0,0,0,0,1,,"[""j""]",[0.2548999999994521],0,"[""j""]",[0.2547999999998183],,,,,,,,,,,,,,,,,,,,,,,,,,,,,,,,,,,,,,,,,,,,,,,,,,,,,,,,,,,,,,
,,,,914816,001,2023-11-09_20h48.07.469,fluency,2022.2.4,Win32,260.756193,,,,,,,,,,,,,,,,,,,,,,,7,5,img/B05_07.jpg,CONTROL,Press J as soon as you see a face, ,JK,,,,,,,,,,,,,,,,,,,,,,,,,,,,,,,,6,0.4394,,,,,,,,,,,,,,0,29,29,51,1,,,,,,,,,,,,,space,0.4531,,,,,,,,,,,,,,,,,,,,,,,,,,,,,,,,,,,,,,,,,,,,,,,,,,,,,,,,,,,,
,,,,914816,001,2023-11-09_20h48.07.469,fluency,2022.2.4,Win32,260.756193,,,,,,,,,,,,,,,,,,,,,,,10,10,img/B10_10.jpg,CONTROL,Press J as soon as you see a face, ,JK,,,,,,,,,,,,,,,,,,,,,,,,,,,,,,,,,,,,,,,,,,,,,,492.1068,0,30,30,109,1,109,0,0,0,0,1,98,,,,,,,,,,,,,,,,,,,,,,,,,,,,,,,,,,,,,,,,,,,,,,,,,,,,,,,,,,,,,,,,,,,
,,,,914816,001,2023-11-09_20h48.07.469,fluency,2022.2.4,Win32,260.756193,,,,,,,,,,,,,,,,,,,,,,,,,,,,,,,,,,,,,,,,,,,,,,,,,,,,,,,,,,,,,,,,,,,,,,,,,,,,,,,,,,0,0,0,0,1,,"[""j""]",[0.4612000000001899],0,"[""j""]",[0.4612000000001899],,,,,,,,,,,,,,,,,,,,,,,,,,,,,,,,,,,,,,,,,,,,,,,,,,,,,,,,,,,,,,
,,,,914816,001,2023-11-09_20h48.07.469,fluency,2022.2.4,Win32,260.756193,,,,,,,,,,,,,,,,,,,,,,,10,10,img/B10_10.jpg,CONTROL,Press J as soon as you see a face, ,JK,,,,,,,,,,,,,,,,,,,,,,,,,,,,,,,,3,0.9699,,,,,,,,,,,,,,0,30,30,109,1,,,,,,,,,,,,,space,0.4019,,,,,,,,,,,,,,,,,,,,,,,,,,,,,,,,,,,,,,,,,,,,,,,,,,,,,,,,,,,,
,,,,914816,001,2023-11-09_20h48.07.469,fluency,2022.2.4,Win32,260.756193,,,,,,,,,,,,,,,,,,,,,,,2,4,img/B04_02.jpg,CONTROL,Press J as soon as you see a face, ,JK,,,,,,,,,,,,,,,,,,,,,,,,,,,,,,,,,,,,,,,,,,,,,,498.495,0,31,31,35,1,109,0,0,0,0,1,98,,,,,,,,,,,,,,,,,,,,,,,,,,,,,,,,,,,,,,,,,,,,,,,,,,,,,,,,,,,,,,,,,,,
,,,,914816,001,2023-11-09_20h48.07.469,fluency,2022.2.4,Win32,260.756193,,,,,,,,,,,,,,,,,,,,,,,,,,,,,,,,,,,,,,,,,,,,,,,,,,,,,,,,,,,,,,,,,,,,,,,,,,,,,,,,,,0,0,0,0,1,,"[""j""]",[0.2571000000006052],0,"[""j""]",[0.2571000000006052],,,,,,,,,,,,,,,,,,,,,,,,,,,,,,,,,,,,,,,,,,,,,,,,,,,,,,,,,,,,,,
,,,,914816,001,2023-11-09_20h48.07.469,fluency,2022.2.4,Win32,260.756193,,,,,,,,,,,,,,,,,,,,,,,2,4,img/B04_02.jpg,CONTROL,Press J as soon as you see a face, ,JK,,,,,,,,,,,,,,,,,,,,,,,,,,,,,,,,8,1.9308,,,,,,,,,,,,,,0,31,31,35,1,,,,,,,,,,,,,space,0.4697,,,,,,,,,,,,,,,,,,,,,,,,,,,,,,,,,,,,,,,,,,,,,,,,,,,,,,,,,,,,
,,,,914816,001,2023-11-09_20h48.07.469,fluency,2022.2.4,Win32,260.756193,,,,,,,,,,,,,,,,,,,,,,,4,4,img/B04_04.jpg,CONTROL,Press J as soon as you see a face, ,JK,,,,,,,,,,,,,,,,,,,,,,,,,,,,,,,,,,,,,,,,,,,,,,504.9143,0,32,32,37,1,109,0,0,0,0,1,98,,,,,,,,,,,,,,,,,,,,,,,,,,,,,,,,,,,,,,,,,,,,,,,,,,,,,,,,,,,,,,,,,,,
,,,,914816,001,2023-11-09_20h48.07.469,fluency,2022.2.4,Win32,260.756193,,,,,,,,,,,,,,,,,,,,,,,,,,,,,,,,,,,,,,,,,,,,,,,,,,,,,,,,,,,,,,,,,,,,,,,,,,,,,,,,,,0,0,0,0,1,,"[""j""]",[0.8367000000001781],0,"[""space"",""j""]","[0.5173000000007733,0.8366000000005442]",,,,,,,,,,,,,,,,,,,,,,,,,,,,,,,,,,,,,,,,,,,,,,,,,,,,,,,,,,,,,,
,,,,914816,001,2023-11-09_20h48.07.469,fluency,2022.2.4,Win32,260.756193,,,,,,,,,,,,,,,,,,,,,,,4,4,img/B04_04.jpg,CONTROL,Press J as soon as you see a face, ,JK,,,,,,,,,,,,,,,,,,,,,,,,,,,,,,,,8,1.0703,,,,,,,,,,,,,,0,32,32,37,1,,,,,,,,,,,,,space,0.4587,,,,,,,,,,,,,,,,,,,,,,,,,,,,,,,,,,,,,,,,,,,,,,,,,,,,,,,,,,,,
,,,,914816,001,2023-11-09_20h48.07.469,fluency,2022.2.4,Win32,260.756193,,,,,,,,,,,,,,,,,,,,,,,9,6,img/B06_09.jpg,CONTROL,Press J as soon as you see a face, ,JK,,,,,,,,,,,,,,,,,,,,,,,,,,,,,,,,,,,,,,,,,,,,,,510.4762,0,33,33,64,1,109,0,0,0,0,1,98,,,,,,,,,,,,,,,,,,,,,,,,,,,,,,,,,,,,,,,,,,,,,,,,,,,,,,,,,,,,,,,,,,,
,,,,914816,001,2023-11-09_20h48.07.469,fluency,2022.2.4,Win32,260.756193,,,,,,,,,,,,,,,,,,,,,,,,,,,,,,,,,,,,,,,,,,,,,,,,,,,,,,,,,,,,,,,,,,,,,,,,,,,,,,,,,,0,0,0,0,1,,"[""j""]",[0.46679999999980737],0,"[""j""]",[0.46679999999980737],,,,,,,,,,,,,,,,,,,,,,,,,,,,,,,,,,,,,,,,,,,,,,,,,,,,,,,,,,,,,,
,,,,914816,001,2023-11-09_20h48.07.469,fluency,2022.2.4,Win32,260.756193,,,,,,,,,,,,,,,,,,,,,,,9,6,img/B06_09.jpg,CONTROL,Press J as soon as you see a face, ,JK,,,,,,,,,,,,,,,,,,,,,,,,,,,,,,,,5,0.4646,,,,,,,,,,,,,,0,33,33,64,1,,,,,,,,,,,,,space,0.2615,,,,,,,,,,,,,,,,,,,,,,,,,,,,,,,,,,,,,,,,,,,,,,,,,,,,,,,,,,,,
,,,,914816,001,2023-11-09_20h48.07.469,fluency,2022.2.4,Win32,260.756193,,,,,,,,,,,,,,,,,,,,,,,6,9,img/B09_06.jpg,CONTROL,Press J as soon as you see a face, ,JK,,,,,,,,,,,,,,,,,,,,,,,,,,,,,,,,,,,,,,,,,,,,,,516.2183,0,34,34,94,1,109,0,0,0,0,1,98,,,,,,,,,,,,,,,,,,,,,,,,,,,,,,,,,,,,,,,,,,,,,,,,,,,,,,,,,,,,,,,,,,,
,,,,914816,001,2023-11-09_20h48.07.469,fluency,2022.2.4,Win32,260.756193,,,,,,,,,,,,,,,,,,,,,,,,,,,,,,,,,,,,,,,,,,,,,,,,,,,,,,,,,,,,,,,,,,,,,,,,,,,,,,,,,,0,0,0,0,1,,"[""j""]",[0.3556000000006634],0,"[""j""]",[0.3556000000006634],,,,,,,,,,,,,,,,,,,,,,,,,,,,,,,,,,,,,,,,,,,,,,,,,,,,,,,,,,,,,,
,,,,914816,001,2023-11-09_20h48.07.469,fluency,2022.2.4,Win32,260.756193,,,,,,,,,,,,,,,,,,,,,,,6,9,img/B09_06.jpg,CONTROL,Press J as soon as you see a face, ,JK,,,,,,,,,,,,,,,,,,,,,,,,,,,,,,,,5,0.271,,,,,,,,,,,,,,0,34,34,94,1,,,,,,,,,,,,,space,0.2514,,,,,,,,,,,,,,,,,,,,,,,,,,,,,,,,,,,,,,,,,,,,,,,,,,,,,,,,,,,,
,,,,914816,001,2023-11-09_20h48.07.469,fluency,2022.2.4,Win32,260.756193,,,,,,,,,,,,,,,,,,,,,,,4,2,img/B02_04.jpg,CONTROL,Press J as soon as you see a face, ,JK,,,,,,,,,,,,,,,,,,,,,,,,,,,,,,,,,,,,,,,,,,,,,,521.772,0,35,35,15,1,109,0,0,0,0,1,98,,,,,,,,,,,,,,,,,,,,,,,,,,,,,,,,,,,,,,,,,,,,,,,,,,,,,,,,,,,,,,,,,,,
,,,,914816,001,2023-11-09_20h48.07.469,fluency,2022.2.4,Win32,260.756193,,,,,,,,,,,,,,,,,,,,,,,,,,,,,,,,,,,,,,,,,,,,,,,,,,,,,,,,,,,,,,,,,,,,,,,,,,,,,,,,,,0,0,0,0,1,,"[""j""]",[0.33689999999944575],0,"[""j""]",[0.33689999999944575],,,,,,,,,,,,,,,,,,,,,,,,,,,,,,,,,,,,,,,,,,,,,,,,,,,,,,,,,,,,,,
,,,,914816,001,2023-11-09_20h48.07.469,fluency,2022.2.4,Win32,260.756193,,,,,,,,,,,,,,,,,,,,,,,4,2,img/B02_04.jpg,CONTROL,Press J as soon as you see a face, ,JK,,,,,,,,,,,,,,,,,,,,,,,,,,,,,,,,2,1.2825,,,,,,,,,,,,,,0,35,35,15,1,,,,,,,,,,,,,space,0.7659,,,,,,,,,,,,,,,,,,,,,,,,,,,,,,,,,,,,,,,,,,,,,,,,,,,,,,,,,,,,
,,,,914816,001,2023-11-09_20h48.07.469,fluency,2022.2.4,Win32,260.756193,,,,,,,,,,,,,,,,,,,,,,,3,7,img/B07_03.jpg,CONTROL,Press J as soon as you see a face, ,JK,,,,,,,,,,,,,,,,,,,,,,,,,,,,,,,,,,,,,,,,,,,,,,528.8452,0,36,36,69,1,109,0,0,0,0,1,98,,,,,,,,,,,,,,,,,,,,,,,,,,,,,,,,,,,,,,,,,,,,,,,,,,,,,,,,,,,,,,,,,,,
,,,,914816,001,2023-11-09_20h48.07.469,fluency,2022.2.4,Win32,260.756193,,,,,,,,,,,,,,,,,,,,,,,,,,,,,,,,,,,,,,,,,,,,,,,,,,,,,,,,,,,,,,,,,,,,,,,,,,,,,,,,,,0,0,0,0,1,,"[""j""]",[0.21420000000011896],0,"[""j""]",[0.21420000000011896],,,,,,,,,,,,,,,,,,,,,,,,,,,,,,,,,,,,,,,,,,,,,,,,,,,,,,,,,,,,,,
,,,,914816,001,2023-11-09_20h48.07.469,fluency,2022.2.4,Win32,260.756193,,,,,,,,,,,,,,,,,,,,,,,3,7,img/B07_03.jpg,CONTROL,Press J as soon as you see a face, ,JK,,,,,,,,,,,,,,,,,,,,,,,,,,,,,,,,3,0.4208,,,,,,,,,,,,,,0,36,36,69,1,,,,,,,,,,,,,space,3.4846,,,,,,,,,,,,,,,,,,,,,,,,,,,,,,,,,,,,,,,,,,,,,,,,,,,,,,,,,,,,
,,,,914816,001,2023-11-09_20h48.07.469,fluency,2022.2.4,Win32,260.756193,,,,,,,,,,,,,,,,,,,,,,,5,1,img/B01_05.jpg,CONTROL,Press J as soon as you see a face, ,JK,,,,,,,,,,,,,,,,,,,,,,,,,,,,,,,,,,,,,,,,,,,,,,536.7799,0,37,37,5,1,109,0,0,0,0,1,98,,,,,,,,,,,,,,,,,,,,,,,,,,,,,,,,,,,,,,,,,,,,,,,,,,,,,,,,,,,,,,,,,,,
,,,,914816,001,2023-11-09_20h48.07.469,fluency,2022.2.4,Win32,260.756193,,,,,,,,,,,,,,,,,,,,,,,,,,,,,,,,,,,,,,,,,,,,,,,,,,,,,,,,,,,,,,,,,,,,,,,,,,,,,,,,,,0,0,0,0,1,,"[""j""]",[0.6416999999992186],0,"[""space"",""j""]","[0.42799999999999727,0.6416999999992186]",,,,,,,,,,,,,,,,,,,,,,,,,,,,,,,,,,,,,,,,,,,,,,,,,,,,,,,,,,,,,,
,,,,914816,001,2023-11-09_20h48.07.469,fluency,2022.2.4,Win32,260.756193,,,,,,,,,,,,,,,,,,,,,,,5,1,img/B01_05.jpg,CONTROL,Press J as soon as you see a face, ,JK,,,,,,,,,,,,,,,,,,,,,,,,,,,,,,,,3,2.8067,,,,,,,,,,,,,,0,37,37,5,1,,,,,,,,,,,,,space,0.4919,,,,,,,,,,,,,,,,,,,,,,,,,,,,,,,,,,,,,,,,,,,,,,,,,,,,,,,,,,,,
,,,,914816,001,2023-11-09_20h48.07.469,fluency,2022.2.4,Win32,260.756193,,,,,,,,,,,,,,,,,,,,,,,5,5,img/B05_05.jpg,CONTROL,Press J as soon as you see a face, ,JK,,,,,,,,,,,,,,,,,,,,,,,,,,,,,,,,,,,,,,,,,,,,,,544.1071,0,38,38,49,1,109,0,0,0,0,1,98,,,,,,,,,,,,,,,,,,,,,,,,,,,,,,,,,,,,,,,,,,,,,,,,,,,,,,,,,,,,,,,,,,,
,,,,914816,001,2023-11-09_20h48.07.469,fluency,2022.2.4,Win32,260.756193,,,,,,,,,,,,,,,,,,,,,,,,,,,,,,,,,,,,,,,,,,,,,,,,,,,,,,,,,,,,,,,,,,,,,,,,,,,,,,,,,,0,0,0,0,1,,"[""j""]",[0.2950999999995929],0,"[""j""]",[0.2950999999995929],,,,,,,,,,,,,,,,,,,,,,,,,,,,,,,,,,,,,,,,,,,,,,,,,,,,,,,,,,,,,,
,,,,914816,001,2023-11-09_20h48.07.469,fluency,2022.2.4,Win32,260.756193,,,,,,,,,,,,,,,,,,,,,,,5,5,img/B05_05.jpg,CONTROL,Press J as soon as you see a face, ,JK,,,,,,,,,,,,,,,,,,,,,,,,,,,,,,,,4,2.4226,,,,,,,,,,,,,,0,38,38,49,1,,,,,,,,,,,,,space,4.0021,,,,,,,,,,,,,,,,,,,,,,,,,,,,,,,,,,,,,,,,,,,,,,,,,,,,,,,,,,,,
,,,,914816,001,2023-11-09_20h48.07.469,fluency,2022.2.4,Win32,260.756193,,,,,,,,,,,,,,,,,,,,,,,2,1,img/B01_02.jpg,CONTROL,Press J as soon as you see a face, ,JK,,,,,,,,,,,,,,,,,,,,,,,,,,,,,,,,,,,,,,,,,,,,,,554.5648,0,39,39,2,1,109,0,0,0,0,1,98,,,,,,,,,,,,,,,,,,,,,,,,,,,,,,,,,,,,,,,,,,,,,,,,,,,,,,,,,,,,,,,,,,,
,,,,914816,001,2023-11-09_20h48.07.469,fluency,2022.2.4,Win32,260.756193,,,,,,,,,,,,,,,,,,,,,,,,,,,,,,,,,,,,,,,,,,,,,,,,,,,,,,,,,,,,,,,,,,,,,,,,,,,,,,,,,,0,0,0,0,1,,"[""j""]",[0.6014999999999873],0,"[""j""]",[0.6014999999999873],,,,,,,,,,,,,,,,,,,,,,,,,,,,,,,,,,,,,,,,,,,,,,,,,,,,,,,,,,,,,,
,,,,914816,001,2023-11-09_20h48.07.469,fluency,2022.2.4,Win32,260.756193,,,,,,,,,,,,,,,,,,,,,,,2,1,img/B01_02.jpg,CONTROL,Press J as soon as you see a face, ,JK,,,,,,,,,,,,,,,,,,,,,,,,,,,,,,,,3,2.6535,,,,,,,,,,,,,,0,39,39,2,1,,,,,,,,,,,,,space,0.5807,,,,,,,,,,,,,,,,,,,,,,,,,,,,,,,,,,,,,,,,,,,,,,,,,,,,,,,,,,,,
,,,,914816,001,2023-11-09_20h48.07.469,fluency,2022.2.4,Win32,260.756193,,,,,,,,,,,,,,,,,,,,,,,1,4,img/B04_01.jpg,CONTROL,Press J as soon as you see a face, ,JK,,,,,,,,,,,,,,,,,,,,,,,,,,,,,,,,,,,,,,,,,,,,,,561.8339,0,40,40,34,1,109,0,0,0,0,1,98,,,,,,,,,,,,,,,,,,,,,,,,,,,,,,,,,,,,,,,,,,,,,,,,,,,,,,,,,,,,,,,,,,,
,,,,914816,001,2023-11-09_20h48.07.469,fluency,2022.2.4,Win32,260.756193,,,,,,,,,,,,,,,,,,,,,,,,,,,,,,,,,,,,,,,,,,,,,,,,,,,,,,,,,,,,,,,,,,,,,,,,,,,,,,,,,,0,0,0,0,1,,"[""j""]",[0.6636999999992668],0,"[""j""]",[0.6635999999996329],,,,,,,,,,,,,,,,,,,,,,,,,,,,,,,,,,,,,,,,,,,,,,,,,,,,,,,,,,,,,,
,,,,914816,001,2023-11-09_20h48.07.469,fluency,2022.2.4,Win32,260.756193,,,,,,,,,,,,,,,,,,,,,,,1,4,img/B04_01.jpg,CONTROL,Press J as soon as you see a face, ,JK,,,,,,,,,,,,,,,,,,,,,,,,,,,,,,,,9,1.436,,,,,,,,,,,,,,0,40,40,34,1,,,,,,,,,,,,,space,1.1745,,,,,,,,,,,,,,,,,,,,,,,,,,,,,,,,,,,,,,,,,,,,,,,,,,,,,,,,,,,,
,,,,914816,001,2023-11-09_20h48.07.469,fluency,2022.2.4,Win32,260.756193,,,,,,,,,,,,,,,,,,,,,,,4,1,img/B01_04.jpg,CONTROL,Press J as soon as you see a face, ,JK,,,,,,,,,,,,,,,,,,,,,,,,,,,,,,,,,,,,,,,,,,,,,,568.4686,0,41,41,4,1,109,0,0,0,0,1,98,,,,,,,,,,,,,,,,,,,,,,,,,,,,,,,,,,,,,,,,,,,,,,,,,,,,,,,,,,,,,,,,,,,
,,,,914816,001,2023-11-09_20h48.07.469,fluency,2022.2.4,Win32,260.756193,,,,,,,,,,,,,,,,,,,,,,,,,,,,,,,,,,,,,,,,,,,,,,,,,,,,,,,,,,,,,,,,,,,,,,,,,,,,,,,,,,0,0,0,0,1,,"[""j""]",[0.4865999999997257],0,"[""j""]",[0.48650000000009186],,,,,,,,,,,,,,,,,,,,,,,,,,,,,,,,,,,,,,,,,,,,,,,,,,,,,,,,,,,,,,
,,,,914816,001,2023-11-09_20h48.07.469,fluency,2022.2.4,Win32,260.756193,,,,,,,,,,,,,,,,,,,,,,,4,1,img/B01_04.jpg,CONTROL,Press J as soon as you see a face, ,JK,,,,,,,,,,,,,,,,,,,,,,,,,,,,,,,,5,0.5848,,,,,,,,,,,,,,0,41,41,4,1,,,,,,,,,,,,,space,0.4717,,,,,,,,,,,,,,,,,,,,,,,,,,,,,,,,,,,,,,,,,,,,,,,,,,,,,,,,,,,,
,,,,914816,001,2023-11-09_20h48.07.469,fluency,2022.2.4,Win32,260.756193,,,,,,,,,,,,,,,,,,,,,,,8,1,img/B01_08.jpg,CONTROL,Press J as soon as you see a face, ,JK,,,,,,,,,,,,,,,,,,,,,,,,,,,,,,,,,,,,,,,,,,,,,,573.5417,0,42,42,8,1,109,0,0,0,0,1,98,,,,,,,,,,,,,,,,,,,,,,,,,,,,,,,,,,,,,,,,,,,,,,,,,,,,,,,,,,,,,,,,,,,
,,,,914816,001,2023-11-09_20h48.07.469,fluency,2022.2.4,Win32,260.756193,,,,,,,,,,,,,,,,,,,,,,,,,,,,,,,,,,,,,,,,,,,,,,,,,,,,,,,,,,,,,,,,,,,,,,,,,,,,,,,,,,0,0,0,0,1,,"[""j""]",[0.5047000000001844],0,"[""j""]",[0.5047000000001844],,,,,,,,,,,,,,,,,,,,,,,,,,,,,,,,,,,,,,,,,,,,,,,,,,,,,,,,,,,,,,
,,,,914816,001,2023-11-09_20h48.07.469,fluency,2022.2.4,Win32,260.756193,,,,,,,,,,,,,,,,,,,,,,,8,1,img/B01_08.jpg,CONTROL,Press J as soon as you see a face, ,JK,,,,,,,,,,,,,,,,,,,,,,,,,,,,,,,,4,0.7125,,,,,,,,,,,,,,0,42,42,8,1,,,,,,,,,,,,,space,0.4907,,,,,,,,,,,,,,,,,,,,,,,,,,,,,,,,,,,,,,,,,,,,,,,,,,,,,,,,,,,,
,,,,914816,001,2023-11-09_20h48.07.469,fluency,2022.2.4,Win32,260.756193,,,,,,,,,,,,,,,,,,,,,,,2,6,img/B06_02.jpg,CONTROL,Press J as soon as you see a face, ,JK,,,,,,,,,,,,,,,,,,,,,,,,,,,,,,,,,,,,,,,,,,,,,,579.7647,0,43,43,57,1,109,0,0,0,0,1,98,,,,,,,,,,,,,,,,,,,,,,,,,,,,,,,,,,,,,,,,,,,,,,,,,,,,,,,,,,,,,,,,,,,
,,,,914816,001,2023-11-09_20h48.07.469,fluency,2022.2.4,Win32,260.756193,,,,,,,,,,,,,,,,,,,,,,,,,,,,,,,,,,,,,,,,,,,,,,,,,,,,,,,,,,,,,,,,,,,,,,,,,,,,,,,,,,0,0,0,0,1,,"[""j""]",[0.21450000000004366],0,"[""j""]",[0.21440000000040982],,,,,,,,,,,,,,,,,,,,,,,,,,,,,,,,,,,,,,,,,,,,,,,,,,,,,,,,,,,,,,
,,,,914816,001,2023-11-09_20h48.07.469,fluency,2022.2.4,Win32,260.756193,,,,,,,,,,,,,,,,,,,,,,,2,6,img/B06_02.jpg,CONTROL,Press J as soon as you see a face, ,JK,,,,,,,,,,,,,,,,,,,,,,,,,,,,,,,,9,1.8346,,,,,,,,,,,,,,0,43,43,57,1,,,,,,,,,,,,,space,0.6691,,,,,,,,,,,,,,,,,,,,,,,,,,,,,,,,,,,,,,,,,,,,,,,,,,,,,,,,,,,,
,,,,914816,001,2023-11-09_20h48.07.469,fluency,2022.2.4,Win32,260.756193,,,,,,,,,,,,,,,,,,,,,,,5,9,img/B09_05.jpg,CONTROL,Press J as soon as you see a face, ,JK,,,,,,,,,,,,,,,,,,,,,,,,,,,,,,,,,,,,,,,,,,,,,,586.2919,0,44,44,93,1,109,0,0,0,0,1,98,,,,,,,,,,,,,,,,,,,,,,,,,,,,,,,,,,,,,,,,,,,,,,,,,,,,,,,,,,,,,,,,,,,
,,,,914816,001,2023-11-09_20h48.07.469,fluency,2022.2.4,Win32,260.756193,,,,,,,,,,,,,,,,,,,,,,,,,,,,,,,,,,,,,,,,,,,,,,,,,,,,,,,,,,,,,,,,,,,,,,,,,,,,,,,,,,0,0,0,0,1,,"[""j""]",[0.23840000000029704],0,"[""j""]",[0.2382999999997537],,,,,,,,,,,,,,,,,,,,,,,,,,,,,,,,,,,,,,,,,,,,,,,,,,,,,,,,,,,,,,
,,,,914816,001,2023-11-09_20h48.07.469,fluency,2022.2.4,Win32,260.756193,,,,,,,,,,,,,,,,,,,,,,,5,9,img/B09_05.jpg,CONTROL,Press J as soon as you see a face, ,JK,,,,,,,,,,,,,,,,,,,,,,,,,,,,,,,,5,0.8642,,,,,,,,,,,,,,0,44,44,93,1,,,,,,,,,,,,,space,0.5889,,,,,,,,,,,,,,,,,,,,,,,,,,,,,,,,,,,,,,,,,,,,,,,,,,,,,,,,,,,,
,,,,914816,001,2023-11-09_20h48.07.469,fluency,2022.2.4,Win32,260.756193,,,,,,,,,,,,,,,,,,,,,,,2,7,img/B07_02.jpg,CONTROL,Press J as soon as you see a face, ,JK,,,,,,,,,,,,,,,,,,,,,,,,,,,,,,,,,,,,,,,,,,,,,,591.7689,0,45,45,68,1,109,0,0,0,0,1,98,,,,,,,,,,,,,,,,,,,,,,,,,,,,,,,,,,,,,,,,,,,,,,,,,,,,,,,,,,,,,,,,,,,
,,,,914816,001,2023-11-09_20h48.07.469,fluency,2022.2.4,Win32,260.756193,,,,,,,,,,,,,,,,,,,,,,,,,,,,,,,,,,,,,,,,,,,,,,,,,,,,,,,,,,,,,,,,,,,,,,,,,,,,,,,,,,0,0,0,0,1,,"[""j""]",[0.4384000000004562],0,"[""j""]",[0.4382999999997992],,,,,,,,,,,,,,,,,,,,,,,,,,,,,,,,,,,,,,,,,,,,,,,,,,,,,,,,,,,,,,
,,,,914816,001,2023-11-09_20h48.07.469,fluency,2022.2.4,Win32,260.756193,,,,,,,,,,,,,,,,,,,,,,,2,7,img/B07_02.jpg,CONTROL,Press J as soon as you see a face, ,JK,,,,,,,,,,,,,,,,,,,,,,,,,,,,,,,,4,0.1899,,,,,,,,,,,,,,0,45,45,68,1,,,,,,,,,,,,,space,0.2191,,,,,,,,,,,,,,,,,,,,,,,,,,,,,,,,,,,,,,,,,,,,,,,,,,,,,,,,,,,,
,,,,914816,001,2023-11-09_20h48.07.469,fluency,2022.2.4,Win32,260.756193,,,,,,,,,,,,,,,,,,,,,,,7,10,img/B10_07.jpg,CONTROL,Press J as soon as you see a face, ,JK,,,,,,,,,,,,,,,,,,,,,,,,,,,,,,,,,,,,,,,,,,,,,,596.2035,0,46,46,106,1,109,0,0,0,0,1,98,,,,,,,,,,,,,,,,,,,,,,,,,,,,,,,,,,,,,,,,,,,,,,,,,,,,,,,,,,,,,,,,,,,
,,,,914816,001,2023-11-09_20h48.07.469,fluency,2022.2.4,Win32,260.756193,,,,,,,,,,,,,,,,,,,,,,,,,,,,,,,,,,,,,,,,,,,,,,,,,,,,,,,,,,,,,,,,,,,,,,,,,,,,,,,,,,0,0,0,0,1,,"[""j""]",[0.3687000000002172],0,"[""j""]",[0.3687000000002172],,,,,,,,,,,,,,,,,,,,,,,,,,,,,,,,,,,,,,,,,,,,,,,,,,,,,,,,,,,,,,
,,,,914816,001,2023-11-09_20h48.07.469,fluency,2022.2.4,Win32,260.756193,,,,,,,,,,,,,,,,,,,,,,,7,10,img/B10_07.jpg,CONTROL,Press J as soon as you see a face, ,JK,,,,,,,,,,,,,,,,,,,,,,,,,,,,,,,,2,0.5194,,,,,,,,,,,,,,0,46,46,106,1,,,,,,,,,,,,,space,0.5119,,,,,,,,,,,,,,,,,,,,,,,,,,,,,,,,,,,,,,,,,,,,,,,,,,,,,,,,,,,,
,,,,914816,001,2023-11-09_20h48.07.469,fluency,2022.2.4,Win32,260.756193,,,,,,,,,,,,,,,,,,,,,,,4,8,img/B08_04.jpg,CONTROL,Press J as soon as you see a face, ,JK,,,,,,,,,,,,,,,,,,,,,,,,,,,,,,,,,,,,,,,,,,,,,,601.2615,0,47,47,81,1,109,0,0,0,0,1,98,,,,,,,,,,,,,,,,,,,,,,,,,,,,,,,,,,,,,,,,,,,,,,,,,,,,,,,,,,,,,,,,,,,
,,,,914816,001,2023-11-09_20h48.07.469,fluency,2022.2.4,Win32,260.756193,,,,,,,,,,,,,,,,,,,,,,,,,,,,,,,,,,,,,,,,,,,,,,,,,,,,,,,,,,,,,,,,,,,,,,,,,,,,,,,,,,0,0,0,0,1,,"[""j""]",[0.2923000000007505],0,"[""j""]",[0.2922000000002072],,,,,,,,,,,,,,,,,,,,,,,,,,,,,,,,,,,,,,,,,,,,,,,,,,,,,,,,,,,,,,
,,,,914816,001,2023-11-09_20h48.07.469,fluency,2022.2.4,Win32,260.756193,,,,,,,,,,,,,,,,,,,,,,,4,8,img/B08_04.jpg,CONTROL,Press J as soon as you see a face, ,JK,,,,,,,,,,,,,,,,,,,,,,,,,,,,,,,,2,1.0381,,,,,,,,,,,,,,0,47,47,81,1,,,,,,,,,,,,,space,0.4257,,,,,,,,,,,,,,,,,,,,,,,,,,,,,,,,,,,,,,,,,,,,,,,,,,,,,,,,,,,,
,,,,914816,001,2023-11-09_20h48.07.469,fluency,2022.2.4,Win32,260.756193,,,,,,,,,,,,,,,,,,,,,,,9,10,img/B10_09.jpg,CONTROL,Press J as soon as you see a face, ,JK,,,,,,,,,,,,,,,,,,,,,,,,,,,,,,,,,,,,,,,,,,,,,,606.7628,0,48,48,108,1,109,0,0,0,0,1,98,,,,,,,,,,,,,,,,,,,,,,,,,,,,,,,,,,,,,,,,,,,,,,,,,,,,,,,,,,,,,,,,,,,
,,,,914816,001,2023-11-09_20h48.07.469,fluency,2022.2.4,Win32,260.756193,,,,,,,,,,,,,,,,,,,,,,,,,,,,,,,,,,,,,,,,,,,,,,,,,,,,,,,,,,,,,,,,,,,,,,,,,,,,,,,,,,0,0,0,0,1,,"[""j""]",[0.21109999999953288],0,"[""j""]",[0.21099999999989905],,,,,,,,,,,,,,,,,,,,,,,,,,,,,,,,,,,,,,,,,,,,,,,,,,,,,,,,,,,,,,
,,,,914816,001,2023-11-09_20h48.07.469,fluency,2022.2.4,Win32,260.756193,,,,,,,,,,,,,,,,,,,,,,,9,10,img/B10_09.jpg,CONTROL,Press J as soon as you see a face, ,JK,,,,,,,,,,,,,,,,,,,,,,,,,,,,,,,,3,0.5448,,,,,,,,,,,,,,0,48,48,108,1,,,,,,,,,,,,,space,0.5139,,,,,,,,,,,,,,,,,,,,,,,,,,,,,,,,,,,,,,,,,,,,,,,,,,,,,,,,,,,,
,,,,914816,001,2023-11-09_20h48.07.469,fluency,2022.2.4,Win32,260.756193,,,,,,,,,,,,,,,,,,,,,,,6,7,img/B07_06.jpg,CONTROL,Press J as soon as you see a face, ,JK,,,,,,,,,,,,,,,,,,,,,,,,,,,,,,,,,,,,,,,,,,,,,,611.8419,0,49,49,72,1,109,0,0,0,0,1,98,,,,,,,,,,,,,,,,,,,,,,,,,,,,,,,,,,,,,,,,,,,,,,,,,,,,,,,,,,,,,,,,,,,
,,,,914816,001,2023-11-09_20h48.07.469,fluency,2022.2.4,Win32,260.756193,,,,,,,,,,,,,,,,,,,,,,,,,,,,,,,,,,,,,,,,,,,,,,,,,,,,,,,,,,,,,,,,,,,,,,,,,,,,,,,,,,0,0,0,0,1,,"[""j""]",[0.25760000000059335],0,"[""j""]",[0.25760000000059335],,,,,,,,,,,,,,,,,,,,,,,,,,,,,,,,,,,,,,,,,,,,,,,,,,,,,,,,,,,,,,
,,,,914816,001,2023-11-09_20h48.07.469,fluency,2022.2.4,Win32,260.756193,,,,,,,,,,,,,,,,,,,,,,,6,7,img/B07_06.jpg,CONTROL,Press J as soon as you see a face, ,JK,,,,,,,,,,,,,,,,,,,,,,,,,,,,,,,,6,1.2453,,,,,,,,,,,,,,0,49,49,72,1,,,,,,,,,,,,,space,0.3468,,,,,,,,,,,,,,,,,,,,,,,,,,,,,,,,,,,,,,,,,,,,,,,,,,,,,,,,,,,,
,,,,914816,001,2023-11-09_20h48.07.469,fluency,2022.2.4,Win32,260.756193,,,,,,,,,,,,,,,,,,,,,,,10,7,img/B07_10.jpg,CONTROL,Press J as soon as you see a face, ,JK,,,,,,,,,,,,,,,,,,,,,,,,,,,,,,,,,,,,,,,,,,,,,,617.4535,0,50,50,76,1,109,0,0,0,0,1,98,,,,,,,,,,,,,,,,,,,,,,,,,,,,,,,,,,,,,,,,,,,,,,,,,,,,,,,,,,,,,,,,,,,
,,,,914816,001,2023-11-09_20h48.07.469,fluency,2022.2.4,Win32,260.756193,,,,,,,,,,,,,,,,,,,,,,,,,,,,,,,,,,,,,,,,,,,,,,,,,,,,,,,,,,,,,,,,,,,,,,,,,,,,,,,,,,0,0,0,0,1,,"[""j""]",[0.26609999999971023],0,"[""j""]",[0.2660000000000764],,,,,,,,,,,,,,,,,,,,,,,,,,,,,,,,,,,,,,,,,,,,,,,,,,,,,,,,,,,,,,
,,,,914816,001,2023-11-09_20h48.07.469,fluency,2022.2.4,Win32,260.756193,,,,,,,,,,,,,,,,,,,,,,,10,7,img/B07_10.jpg,CONTROL,Press J as soon as you see a face, ,JK,,,,,,,,,,,,,,,,,,,,,,,,,,,,,,,,5,0.7394,,,,,,,,,,,,,,0,50,50,76,1,,,,,,,,,,,,,space,0.3275,,,,,,,,,,,,,,,,,,,,,,,,,,,,,,,,,,,,,,,,,,,,,,,,,,,,,,,,,,,,
,,,,914816,001,2023-11-09_20h48.07.469,fluency,2022.2.4,Win32,260.756193,,,,,,,,,,,,,,,,,,,,,,,0,5,img/B05_00.jpg,CONTROL,Press J as soon as you see a face, ,JK,,,,,,,,,,,,,,,,,,,,,,,,,,,,,,,,,,,,,,,,,,,,,,623.5459,0,51,51,44,1,109,0,0,0,0,1,98,,,,,,,,,,,,,,,,,,,,,,,,,,,,,,,,,,,,,,,,,,,,,,,,,,,,,,,,,,,,,,,,,,,
,,,,914816,001,2023-11-09_20h48.07.469,fluency,2022.2.4,Win32,260.756193,,,,,,,,,,,,,,,,,,,,,,,,,,,,,,,,,,,,,,,,,,,,,,,,,,,,,,,,,,,,,,,,,,,,,,,,,,,,,,,,,,0,0,0,0,1,,"[""j""]",[0.222599999999602],0,"[""j""]",[0.222599999999602],,,,,,,,,,,,,,,,,,,,,,,,,,,,,,,,,,,,,,,,,,,,,,,,,,,,,,,,,,,,,,
,,,,914816,001,2023-11-09_20h48.07.469,fluency,2022.2.4,Win32,260.756193,,,,,,,,,,,,,,,,,,,,,,,0,5,img/B05_00.jpg,CONTROL,Press J as soon as you see a face, ,JK,,,,,,,,,,,,,,,,,,,,,,,,,,,,,,,,4,0.4456,,,,,,,,,,,,,,0,51,51,44,1,,,,,,,,,,,,,space,0.4703,,,,,,,,,,,,,,,,,,,,,,,,,,,,,,,,,,,,,,,,,,,,,,,,,,,,,,,,,,,,
,,,,914816,001,2023-11-09_20h48.07.469,fluency,2022.2.4,Win32,260.756193,,,,,,,,,,,,,,,,,,,,,,,8,8,img/B08_08.jpg,CONTROL,Press J as soon as you see a face, ,JK,,,,,,,,,,,,,,,,,,,,,,,,,,,,,,,,,,,,,,,,,,,,,,629.5077,0,52,52,85,1,109,0,0,0,0,1,98,,,,,,,,,,,,,,,,,,,,,,,,,,,,,,,,,,,,,,,,,,,,,,,,,,,,,,,,,,,,,,,,,,,
,,,,914816,001,2023-11-09_20h48.07.469,fluency,2022.2.4,Win32,260.756193,,,,,,,,,,,,,,,,,,,,,,,,,,,,,,,,,,,,,,,,,,,,,,,,,,,,,,,,,,,,,,,,,,,,,,,,,,,,,,,,,,0,0,0,0,1,,"[""j""]",[0.3965999999995802],0,"[""j""]",[0.3965999999995802],,,,,,,,,,,,,,,,,,,,,,,,,,,,,,,,,,,,,,,,,,,,,,,,,,,,,,,,,,,,,,
,,,,914816,001,2023-11-09_20h48.07.469,fluency,2022.2.4,Win32,260.756193,,,,,,,,,,,,,,,,,,,,,,,8,8,img/B08_08.jpg,CONTROL,Press J as soon as you see a face, ,JK,,,,,,,,,,,,,,,,,,,,,,,,,,,,,,,,6,2.3347,,,,,,,,,,,,,,0,52,52,85,1,,,,,,,,,,,,,space,0.6544,,,,,,,,,,,,,,,,,,,,,,,,,,,,,,,,,,,,,,,,,,,,,,,,,,,,,,,,,,,,
,,,,914816,001,2023-11-09_20h48.07.469,fluency,2022.2.4,Win32,260.756193,,,,,,,,,,,,,,,,,,,,,,,0,9,img/B09_00.jpg,CONTROL,Press J as soon as you see a face, ,JK,,,,,,,,,,,,,,,,,,,,,,,,,,,,,,,,,,,,,,,,,,,,,,637.5382,0,53,53,88,1,109,0,0,0,0,1,98,,,,,,,,,,,,,,,,,,,,,,,,,,,,,,,,,,,,,,,,,,,,,,,,,,,,,,,,,,,,,,,,,,,
,,,,914816,001,2023-11-09_20h48.07.469,fluency,2022.2.4,Win32,260.756193,,,,,,,,,,,,,,,,,,,,,,,,,,,,,,,,,,,,,,,,,,,,,,,,,,,,,,,,,,,,,,,,,,,,,,,,,,,,,,,,,,0,0,0,0,1,,"[""j""]",[0.26949999999999363],0,"[""j""]",[0.2693999999994503],,,,,,,,,,,,,,,,,,,,,,,,,,,,,,,,,,,,,,,,,,,,,,,,,,,,,,,,,,,,,,
,,,,914816,001,2023-11-09_20h48.07.469,fluency,2022.2.4,Win32,260.756193,,,,,,,,,,,,,,,,,,,,,,,0,9,img/B09_00.jpg,CONTROL,Press J as soon as you see a face, ,JK,,,,,,,,,,,,,,,,,,,,,,,,,,,,,,,,1,1.663,,,,,,,,,,,,,,0,53,53,88,1,,,,,,,,,,,,,space,0.4487,,,,,,,,,,,,,,,,,,,,,,,,,,,,,,,,,,,,,,,,,,,,,,,,,,,,,,,,,,,,
,,,,914816,001,2023-11-09_20h48.07.469,fluency,2022.2.4,Win32,260.756193,,,,,,,,,,,,,,,,,,,,,,,7,9,img/B09_07.jpg,CONTROL,Press J as soon as you see a face, ,JK,,,,,,,,,,,,,,,,,,,,,,,,,,,,,,,,,,,,,,,,,,,,,,643.6767,0,54,54,95,1,109,0,0,0,0,1,98,,,,,,,,,,,,,,,,,,,,,,,,,,,,,,,,,,,,,,,,,,,,,,,,,,,,,,,,,,,,,,,,,,,
,,,,914816,001,2023-11-09_20h48.07.469,fluency,2022.2.4,Win32,260.756193,,,,,,,,,,,,,,,,,,,,,,,,,,,,,,,,,,,,,,,,,,,,,,,,,,,,,,,,,,,,,,,,,,,,,,,,,,,,,,,,,,0,0,0,0,1,,"[""j""]",[0.4452000000002272],0,"[""j""]",[0.4452000000002272],,,,,,,,,,,,,,,,,,,,,,,,,,,,,,,,,,,,,,,,,,,,,,,,,,,,,,,,,,,,,,
,,,,914816,001,2023-11-09_20h48.07.469,fluency,2022.2.4,Win32,260.756193,,,,,,,,,,,,,,,,,,,,,,,7,9,img/B09_07.jpg,CONTROL,Press J as soon as you see a face, ,JK,,,,,,,,,,,,,,,,,,,,,,,,,,,,,,,,4,0.4131,,,,,,,,,,,,,,0,54,54,95,1,,,,,,,,,,,,,space,0.35,,,,,,,,,,,,,,,,,,,,,,,,,,,,,,,,,,,,,,,,,,,,,,,,,,,,,,,,,,,,
,,,,914816,001,2023-11-09_20h48.07.469,fluency,2022.2.4,Win32,260.756193,,,,,,,,,,,,,,,,,,,,,,,5,2,img/B02_05.jpg,CONTROL,Press J as soon as you see a face, ,JK,,,,,,,,,,,,,,,,,,,,,,,,,,,,,,,,,,,,,,,,,,,,,,649.4653,0,55,55,16,1,109,0,0,0,0,1,98,,,,,,,,,,,,,,,,,,,,,,,,,,,,,,,,,,,,,,,,,,,,,,,,,,,,,,,,,,,,,,,,,,,
,,,,914816,001,2023-11-09_20h48.07.469,fluency,2022.2.4,Win32,260.756193,,,,,,,,,,,,,,,,,,,,,,,,,,,,,,,,,,,,,,,,,,,,,,,,,,,,,,,,,,,,,,,,,,,,,,,,,,,,,,,,,,0,0,0,0,1,,"[""j""]",[0.208299999999781],0,"[""j""]",[0.208299999999781],,,,,,,,,,,,,,,,,,,,,,,,,,,,,,,,,,,,,,,,,,,,,,,,,,,,,,,,,,,,,,
,,,,914816,001,2023-11-09_20h48.07.469,fluency,2022.2.4,Win32,260.756193,,,,,,,,,,,,,,,,,,,,,,,5,2,img/B02_05.jpg,CONTROL,Press J as soon as you see a face, ,JK,,,,,,,,,,,,,,,,,,,,,,,,,,,,,,,,2,1.6462,,,,,,,,,,,,,,0,55,55,16,1,,,,,,,,,,,,,space,0.3248,,,,,,,,,,,,,,,,,,,,,,,,,,,,,,,,,,,,,,,,,,,,,,,,,,,,,,,,,,,,
,,,,914816,001,2023-11-09_20h48.07.469,fluency,2022.2.4,Win32,260.756193,,,,,,,,,,,,,,,,,,,,,,,6,6,img/B06_06.jpg,CONTROL,Press J as soon as you see a face, ,JK,,,,,,,,,,,,,,,,,,,,,,,,,,,,,,,,,,,,,,,,,,,,,,656.4691,0,56,56,61,1,109,0,0,0,0,1,98,,,,,,,,,,,,,,,,,,,,,,,,,,,,,,,,,,,,,,,,,,,,,,,,,,,,,,,,,,,,,,,,,,,
,,,,914816,001,2023-11-09_20h48.07.469,fluency,2022.2.4,Win32,260.756193,,,,,,,,,,,,,,,,,,,,,,,,,,,,,,,,,,,,,,,,,,,,,,,,,,,,,,,,,,,,,,,,,,,,,,,,,,,,,,,,,,0,0,0,0,1,,"[""j""]",[0.2694000000003598],0,"[""j""]",[0.2694000000003598],,,,,,,,,,,,,,,,,,,,,,,,,,,,,,,,,,,,,,,,,,,,,,,,,,,,,,,,,,,,,,
,,,,914816,001,2023-11-09_20h48.07.469,fluency,2022.2.4,Win32,260.756193,,,,,,,,,,,,,,,,,,,,,,,6,6,img/B06_06.jpg,CONTROL,Press J as soon as you see a face, ,JK,,,,,,,,,,,,,,,,,,,,,,,,,,,,,,,,6,0.638,,,,,,,,,,,,,,0,56,56,61,1,,,,,,,,,,,,,space,0.3277,,,,,,,,,,,,,,,,,,,,,,,,,,,,,,,,,,,,,,,,,,,,,,,,,,,,,,,,,,,,
,,,,914816,001,2023-11-09_20h48.07.469,fluency,2022.2.4,Win32,260.756193,,,,,,,,,,,,,,,,,,,,,,,10,6,img/B06_10.jpg,CONTROL,Press J as soon as you see a face, ,JK,,,,,,,,,,,,,,,,,,,,,,,,,,,,,,,,,,,,,,,,,,,,,,661.4653,0,57,57,65,1,109,0,0,0,0,1,98,,,,,,,,,,,,,,,,,,,,,,,,,,,,,,,,,,,,,,,,,,,,,,,,,,,,,,,,,,,,,,,,,,,
,,,,914816,001,2023-11-09_20h48.07.469,fluency,2022.2.4,Win32,260.756193,,,,,,,,,,,,,,,,,,,,,,,,,,,,,,,,,,,,,,,,,,,,,,,,,,,,,,,,,,,,,,,,,,,,,,,,,,,,,,,,,,0,0,0,0,1,,"[""j""]",[0.8695999999996502],0,"[""j""]",[0.8695000000000164],,,,,,,,,,,,,,,,,,,,,,,,,,,,,,,,,,,,,,,,,,,,,,,,,,,,,,,,,,,,,,
,,,,914816,001,2023-11-09_20h48.07.469,fluency,2022.2.4,Win32,260.756193,,,,,,,,,,,,,,,,,,,,,,,10,6,img/B06_10.jpg,CONTROL,Press J as soon as you see a face, ,JK,,,,,,,,,,,,,,,,,,,,,,,,,,,,,,,,1,0.5116,,,,,,,,,,,,,,0,57,57,65,1,,,,,,,,,,,,,space,0.4155,,,,,,,,,,,,,,,,,,,,,,,,,,,,,,,,,,,,,,,,,,,,,,,,,,,,,,,,,,,,
,,,,914816,001,2023-11-09_20h48.07.469,fluency,2022.2.4,Win32,260.756193,,,,,,,,,,,,,,,,,,,,,,,1,8,img/B08_01.jpg,CONTROL,Press J as soon as you see a face, ,JK,,,,,,,,,,,,,,,,,,,,,,,,,,,,,,,,,,,,,,,,,,,,,,666.4272,0,58,58,78,1,109,0,0,0,0,1,98,,,,,,,,,,,,,,,,,,,,,,,,,,,,,,,,,,,,,,,,,,,,,,,,,,,,,,,,,,,,,,,,,,,
,,,,914816,001,2023-11-09_20h48.07.469,fluency,2022.2.4,Win32,260.756193,,,,,,,,,,,,,,,,,,,,,,,,,,,,,,,,,,,,,,,,,,,,,,,,,,,,,,,,,,,,,,,,,,,,,,,,,,,,,,,,,,0,0,0,0,1,,"[""j""]",[0.5580999999996266],0,"[""j""]",[0.5579999999999927],,,,,,,,,,,,,,,,,,,,,,,,,,,,,,,,,,,,,,,,,,,,,,,,,,,,,,,,,,,,,,
,,,,914816,001,2023-11-09_20h48.07.469,fluency,2022.2.4,Win32,260.756193,,,,,,,,,,,,,,,,,,,,,,,1,8,img/B08_01.jpg,CONTROL,Press J as soon as you see a face, ,JK,,,,,,,,,,,,,,,,,,,,,,,,,,,,,,,,1,1.0958,,,,,,,,,,,,,,0,58,58,78,1,,,,,,,,,,,,,space,0.3465,,,,,,,,,,,,,,,,,,,,,,,,,,,,,,,,,,,,,,,,,,,,,,,,,,,,,,,,,,,,
,,,,914816,001,2023-11-09_20h48.07.469,fluency,2022.2.4,Win32,260.756193,,,,,,,,,,,,,,,,,,,,,,,9,5,img/B05_09.jpg,CONTROL,Press J as soon as you see a face, ,JK,,,,,,,,,,,,,,,,,,,,,,,,,,,,,,,,,,,,,,,,,,,,,,672.8925,0,59,59,53,1,109,0,0,0,0,1,98,,,,,,,,,,,,,,,,,,,,,,,,,,,,,,,,,,,,,,,,,,,,,,,,,,,,,,,,,,,,,,,,,,,
,,,,914816,001,2023-11-09_20h48.07.469,fluency,2022.2.4,Win32,260.756193,,,,,,,,,,,,,,,,,,,,,,,,,,,,,,,,,,,,,,,,,,,,,,,,,,,,,,,,,,,,,,,,,,,,,,,,,,,,,,,,,,0,0,0,0,1,,"[""j""]",[0.2305999999996402],0,"[""j""]",[0.23050000000000637],,,,,,,,,,,,,,,,,,,,,,,,,,,,,,,,,,,,,,,,,,,,,,,,,,,,,,,,,,,,,,
,,,,914816,001,2023-11-09_20h48.07.469,fluency,2022.2.4,Win32,260.756193,,,,,,,,,,,,,,,,,,,,,,,9,5,img/B05_09.jpg,CONTROL,Press J as soon as you see a face, ,JK,,,,,,,,,,,,,,,,,,,,,,,,,,,,,,,,4,1.3732,,,,,,,,,,,,,,0,59,59,53,1,,,,,,,,,,,,,space,0.3275,,,,,,,,,,,,,,,,,,,,,,,,,,,,,,,,,,,,,,,,,,,,,,,,,,,,,,,,,,,,
,,,,914816,001,2023-11-09_20h48.07.469,fluency,2022.2.4,Win32,260.756193,,,,,,,,,,,,,,,,,,,,,,,4,6,img/B06_04.jpg,CONTROL,Press J as soon as you see a face, ,JK,,,,,,,,,,,,,,,,,,,,,,,,,,,,,,,,,,,,,,,,,,,,,,678.6155,0,60,60,59,1,109,0,0,0,0,1,98,,,,,,,,,,,,,,,,,,,,,,,,,,,,,,,,,,,,,,,,,,,,,,,,,,,,,,,,,,,,,,,,,,,
,,,,914816,001,2023-11-09_20h48.07.469,fluency,2022.2.4,Win32,260.756193,,,,,,,,,,,,,,,,,,,,,,,,,,,,,,,,,,,,,,,,,,,,,,,,,,,,,,,,,,,,,,,,,,,,,,,,,,,,,,,,,,0,0,0,0,1,,"[""j""]",[0.264599999999632],0,"[""j""]",[0.264599999999632],,,,,,,,,,,,,,,,,,,,,,,,,,,,,,,,,,,,,,,,,,,,,,,,,,,,,,,,,,,,,,
,,,,914816,001,2023-11-09_20h48.07.469,fluency,2022.2.4,Win32,260.756193,,,,,,,,,,,,,,,,,,,,,,,4,6,img/B06_04.jpg,CONTROL,Press J as soon as you see a face, ,JK,,,,,,,,,,,,,,,,,,,,,,,,,,,,,,,,6,0.3358,,,,,,,,,,,,,,0,60,60,59,1,,,,,,,,,,,,,space,0.2482,,,,,,,,,,,,,,,,,,,,,,,,,,,,,,,,,,,,,,,,,,,,,,,,,,,,,,,,,,,,
,,,,914816,001,2023-11-09_20h48.07.469,fluency,2022.2.4,Win32,260.756193,,,,,,,,,,,,,,,,,,,,,,,2,2,img/B02_02.jpg,CONTROL,Press J as soon as you see a face, ,JK,,,,,,,,,,,,,,,,,,,,,,,,,,,,,,,,,,,,,,,,,,,,,,683.2232,0,61,61,13,1,109,0,0,0,0,1,98,,,,,,,,,,,,,,,,,,,,,,,,,,,,,,,,,,,,,,,,,,,,,,,,,,,,,,,,,,,,,,,,,,,
,,,,914816,001,2023-11-09_20h48.07.469,fluency,2022.2.4,Win32,260.756193,,,,,,,,,,,,,,,,,,,,,,,,,,,,,,,,,,,,,,,,,,,,,,,,,,,,,,,,,,,,,,,,,,,,,,,,,,,,,,,,,,0,0,0,0,1,,"[""j""]",[0.6076999999992267],0,"[""j""]",[0.6076999999992267],,,,,,,,,,,,,,,,,,,,,,,,,,,,,,,,,,,,,,,,,,,,,,,,,,,,,,,,,,,,,,
,,,,914816,001,2023-11-09_20h48.07.469,fluency,2022.2.4,Win32,260.756193,,,,,,,,,,,,,,,,,,,,,,,2,2,img/B02_02.jpg,CONTROL,Press J as soon as you see a face, ,JK,,,,,,,,,,,,,,,,,,,,,,,,,,,,,,,,4,8.4715,,,,,,,,,,,,,,0,61,61,13,1,,,,,,,,,,,,,space,0.5808,,,,,,,,,,,,,,,,,,,,,,,,,,,,,,,,,,,,,,,,,,,,,,,,,,,,,,,,,,,,
,,,,914816,001,2023-11-09_20h48.07.469,fluency,2022.2.4,Win32,260.756193,,,,,,,,,,,,,,,,,,,,,,,1,10,img/B10_01.jpg,CONTROL,Press J as soon as you see a face, ,JK,,,,,,,,,,,,,,,,,,,,,,,,,,,,,,,,,,,,,,,,,,,,,,697.3298,0,62,62,100,1,109,0,0,0,0,1,98,,,,,,,,,,,,,,,,,,,,,,,,,,,,,,,,,,,,,,,,,,,,,,,,,,,,,,,,,,,,,,,,,,,
,,,,914816,001,2023-11-09_20h48.07.469,fluency,2022.2.4,Win32,260.756193,,,,,,,,,,,,,,,,,,,,,,,,,,,,,,,,,,,,,,,,,,,,,,,,,,,,,,,,,,,,,,,,,,,,,,,,,,,,,,,,,,0,0,0,0,1,,"[""j""]",[0.21239999999943393],0,"[""j""]",[0.21239999999943393],,,,,,,,,,,,,,,,,,,,,,,,,,,,,,,,,,,,,,,,,,,,,,,,,,,,,,,,,,,,,,
,,,,914816,001,2023-11-09_20h48.07.469,fluency,2022.2.4,Win32,260.756193,,,,,,,,,,,,,,,,,,,,,,,1,10,img/B10_01.jpg,CONTROL,Press J as soon as you see a face, ,JK,,,,,,,,,,,,,,,,,,,,,,,,,,,,,,,,8,1.0107,,,,,,,,,,,,,,0,62,62,100,1,,,,,,,,,,,,,space,0.5155,,,,,,,,,,,,,,,,,,,,,,,,,,,,,,,,,,,,,,,,,,,,,,,,,,,,,,,,,,,,
,,,,914816,001,2023-11-09_20h48.07.469,fluency,2022.2.4,Win32,260.756193,,,,,,,,,,,,,,,,,,,,,,,2,5,img/B05_02.jpg,CONTROL,Press J as soon as you see a face, ,JK,,,,,,,,,,,,,,,,,,,,,,,,,,,,,,,,,,,,,,,,,,,,,,702.9041,0,63,63,46,1,109,0,0,0,0,1,98,,,,,,,,,,,,,,,,,,,,,,,,,,,,,,,,,,,,,,,,,,,,,,,,,,,,,,,,,,,,,,,,,,,
,,,,914816,001,2023-11-09_20h48.07.469,fluency,2022.2.4,Win32,260.756193,,,,,,,,,,,,,,,,,,,,,,,,,,,,,,,,,,,,,,,,,,,,,,,,,,,,,,,,,,,,,,,,,,,,,,,,,,,,,,,,,,0,0,0,0,1,,"[""j""]",[0.40509999999960655],0,"[""j""]",[0.4049999999999727],,,,,,,,,,,,,,,,,,,,,,,,,,,,,,,,,,,,,,,,,,,,,,,,,,,,,,,,,,,,,,
,,,,914816,001,2023-11-09_20h48.07.469,fluency,2022.2.4,Win32,260.756193,,,,,,,,,,,,,,,,,,,,,,,2,5,img/B05_02.jpg,CONTROL,Press J as soon as you see a face, ,JK,,,,,,,,,,,,,,,,,,,,,,,,,,,,,,,,4,1.2095,,,,,,,,,,,,,,0,63,63,46,1,,,,,,,,,,,,,space,0.8233,,,,,,,,,,,,,,,,,,,,,,,,,,,,,,,,,,,,,,,,,,,,,,,,,,,,,,,,,,,,
,,,,914816,001,2023-11-09_20h48.07.469,fluency,2022.2.4,Win32,260.756193,,,,,,,,,,,,,,,,,,,,,,,3,5,img/B05_03.jpg,CONTROL,Press J as soon as you see a face, ,JK,,,,,,,,,,,,,,,,,,,,,,,,,,,,,,,,,,,,,,,,,,,,,,708.9657,0,64,64,47,1,109,0,0,0,0,1,98,,,,,,,,,,,,,,,,,,,,,,,,,,,,,,,,,,,,,,,,,,,,,,,,,,,,,,,,,,,,,,,,,,,
,,,,914816,001,2023-11-09_20h48.07.469,fluency,2022.2.4,Win32,260.756193,,,,,,,,,,,,,,,,,,,,,,,,,,,,,,,,,,,,,,,,,,,,,,,,,,,,,,,,,,,,,,,,,,,,,,,,,,,,,,,,,,0,0,0,0,1,,"[""j""]",[0.38109999999960564],0,"[""j""]",[0.38109999999960564],,,,,,,,,,,,,,,,,,,,,,,,,,,,,,,,,,,,,,,,,,,,,,,,,,,,,,,,,,,,,,
,,,,914816,001,2023-11-09_20h48.07.469,fluency,2022.2.4,Win32,260.756193,,,,,,,,,,,,,,,,,,,,,,,3,5,img/B05_03.jpg,CONTROL,Press J as soon as you see a face, ,JK,,,,,,,,,,,,,,,,,,,,,,,,,,,,,,,,4,0.9569,,,,,,,,,,,,,,0,64,64,47,1,,,,,,,,,,,,,space,0.2582,,,,,,,,,,,,,,,,,,,,,,,,,,,,,,,,,,,,,,,,,,,,,,,,,,,,,,,,,,,,
,,,,914816,001,2023-11-09_20h48.07.469,fluency,2022.2.4,Win32,260.756193,,,,,,,,,,,,,,,,,,,,,,,5,8,img/B08_05.jpg,CONTROL,Press J as soon as you see a face, ,JK,,,,,,,,,,,,,,,,,,,,,,,,,,,,,,,,,,,,,,,,,,,,,,714.2005,0,65,65,82,1,109,0,0,0,0,1,98,,,,,,,,,,,,,,,,,,,,,,,,,,,,,,,,,,,,,,,,,,,,,,,,,,,,,,,,,,,,,,,,,,,
,,,,914816,001,2023-11-09_20h48.07.469,fluency,2022.2.4,Win32,260.756193,,,,,,,,,,,,,,,,,,,,,,,,,,,,,,,,,,,,,,,,,,,,,,,,,,,,,,,,,,,,,,,,,,,,,,,,,,,,,,,,,,0,0,0,0,1,,"[""j""]",[0.7100999999996702],0,"[""j""]",[0.710199999999304],,,,,,,,,,,,,,,,,,,,,,,,,,,,,,,,,,,,,,,,,,,,,,,,,,,,,,,,,,,,,,
,,,,914816,001,2023-11-09_20h48.07.469,fluency,2022.2.4,Win32,260.756193,,,,,,,,,,,,,,,,,,,,,,,5,8,img/B08_05.jpg,CONTROL,Press J as soon as you see a face, ,JK,,,,,,,,,,,,,,,,,,,,,,,,,,,,,,,,4,2.5785,,,,,,,,,,,,,,0,65,65,82,1,,,,,,,,,,,,,space,0.8004,,,,,,,,,,,,,,,,,,,,,,,,,,,,,,,,,,,,,,,,,,,,,,,,,,,,,,,,,,,,
,,,,914816,001,2023-11-09_20h48.07.469,fluency,2022.2.4,Win32,260.756193,,,,,,,,,,,,,,,,,,,,,,,4,10,img/B10_04.jpg,CONTROL,Press J as soon as you see a face, ,JK,,,,,,,,,,,,,,,,,,,,,,,,,,,,,,,,,,,,,,,,,,,,,,722.6157,0,66,66,103,1,109,0,0,0,0,1,98,,,,,,,,,,,,,,,,,,,,,,,,,,,,,,,,,,,,,,,,,,,,,,,,,,,,,,,,,,,,,,,,,,,
,,,,914816,001,2023-11-09_20h48.07.469,fluency,2022.2.4,Win32,260.756193,,,,,,,,,,,,,,,,,,,,,,,,,,,,,,,,,,,,,,,,,,,,,,,,,,,,,,,,,,,,,,,,,,,,,,,,,,,,,,,,,,0,0,0,0,1,,"[""j""]",[0.31950000000006185],0,"[""j""]",[0.3195999999996957],,,,,,,,,,,,,,,,,,,,,,,,,,,,,,,,,,,,,,,,,,,,,,,,,,,,,,,,,,,,,,
,,,,914816,001,2023-11-09_20h48.07.469,fluency,2022.2.4,Win32,260.756193,,,,,,,,,,,,,,,,,,,,,,,4,10,img/B10_04.jpg,CONTROL,Press J as soon as you see a face, ,JK,,,,,,,,,,,,,,,,,,,,,,,,,,,,,,,,6,2.3642,,,,,,,,,,,,,,0,66,66,103,1,,,,,,,,,,,,,space,0.469,,,,,,,,,,,,,,,,,,,,,,,,,,,,,,,,,,,,,,,,,,,,,,,,,,,,,,,,,,,,
,,,,914816,001,2023-11-09_20h48.07.469,fluency,2022.2.4,Win32,260.756193,,,,,,,,,,,,,,,,,,,,,,,7,6,img/B06_07.jpg,CONTROL,Press J as soon as you see a face, ,JK,,,,,,,,,,,,,,,,,,,,,,,,,,,,,,,,,,,,,,,,,,,,,,730.4772,0,67,67,62,1,109,0,0,0,0,1,98,,,,,,,,,,,,,,,,,,,,,,,,,,,,,,,,,,,,,,,,,,,,,,,,,,,,,,,,,,,,,,,,,,,
,,,,914816,001,2023-11-09_20h48.07.469,fluency,2022.2.4,Win32,260.756193,,,,,,,,,,,,,,,,,,,,,,,,,,,,,,,,,,,,,,,,,,,,,,,,,,,,,,,,,,,,,,,,,,,,,,,,,,,,,,,,,,0,0,0,0,1,,"[""j""]",[0.631600000000617],0,"[""j""]",[0.631600000000617],,,,,,,,,,,,,,,,,,,,,,,,,,,,,,,,,,,,,,,,,,,,,,,,,,,,,,,,,,,,,,
,,,,914816,001,2023-11-09_20h48.07.469,fluency,2022.2.4,Win32,260.756193,,,,,,,,,,,,,,,,,,,,,,,7,6,img/B06_07.jpg,CONTROL,Press J as soon as you see a face, ,JK,,,,,,,,,,,,,,,,,,,,,,,,,,,,,,,,5,2.4145,,,,,,,,,,,,,,0,67,67,62,1,,,,,,,,,,,,,space,0.5814,,,,,,,,,,,,,,,,,,,,,,,,,,,,,,,,,,,,,,,,,,,,,,,,,,,,,,,,,,,,
,,,,914816,001,2023-11-09_20h48.07.469,fluency,2022.2.4,Win32,260.756193,,,,,,,,,,,,,,,,,,,,,,,5,4,img/B04_05.jpg,CONTROL,Press J as soon as you see a face, ,JK,,,,,,,,,,,,,,,,,,,,,,,,,,,,,,,,,,,,,,,,,,,,,,737.4965,0,68,68,38,1,109,0,0,0,0,1,98,,,,,,,,,,,,,,,,,,,,,,,,,,,,,,,,,,,,,,,,,,,,,,,,,,,,,,,,,,,,,,,,,,,
,,,,914816,001,2023-11-09_20h48.07.469,fluency,2022.2.4,Win32,260.756193,,,,,,,,,,,,,,,,,,,,,,,,,,,,,,,,,,,,,,,,,,,,,,,,,,,,,,,,,,,,,,,,,,,,,,,,,,,,,,,,,,0,0,0,0,1,,"[""j""]",[0.28040000000032705],0,"[""j""]",[0.28040000000032705],,,,,,,,,,,,,,,,,,,,,,,,,,,,,,,,,,,,,,,,,,,,,,,,,,,,,,,,,,,,,,
,,,,914816,001,2023-11-09_20h48.07.469,fluency,2022.2.4,Win32,260.756193,,,,,,,,,,,,,,,,,,,,,,,5,4,img/B04_05.jpg,CONTROL,Press J as soon as you see a face, ,JK,,,,,,,,,,,,,,,,,,,,,,,,,,,,,,,,4,0.8094,,,,,,,,,,,,,,0,68,68,38,1,,,,,,,,,,,,,space,0.5155,,,,,,,,,,,,,,,,,,,,,,,,,,,,,,,,,,,,,,,,,,,,,,,,,,,,,,,,,,,,
,,,,914816,001,2023-11-09_20h48.07.469,fluency,2022.2.4,Win32,260.756193,,,,,,,,,,,,,,,,,,,,,,,7,4,img/B04_07.jpg,CONTROL,Press J as soon as you see a face, ,JK,,,,,,,,,,,,,,,,,,,,,,,,,,,,,,,,,,,,,,,,,,,,,,742.8467,0,69,69,40,1,109,0,0,0,0,1,98,,,,,,,,,,,,,,,,,,,,,,,,,,,,,,,,,,,,,,,,,,,,,,,,,,,,,,,,,,,,,,,,,,,
,,,,914816,001,2023-11-09_20h48.07.469,fluency,2022.2.4,Win32,260.756193,,,,,,,,,,,,,,,,,,,,,,,,,,,,,,,,,,,,,,,,,,,,,,,,,,,,,,,,,,,,,,,,,,,,,,,,,,,,,,,,,,0,0,0,0,1,,"[""j""]",[0.8040000000000873],0,"[""j""]",[0.8039000000004535],,,,,,,,,,,,,,,,,,,,,,,,,,,,,,,,,,,,,,,,,,,,,,,,,,,,,,,,,,,,,,
,,,,914816,001,2023-11-09_20h48.07.469,fluency,2022.2.4,Win32,260.756193,,,,,,,,,,,,,,,,,,,,,,,7,4,img/B04_07.jpg,CONTROL,Press J as soon as you see a face, ,JK,,,,,,,,,,,,,,,,,,,,,,,,,,,,,,,,3,0.4384,,,,,,,,,,,,,,0,69,69,40,1,,,,,,,,,,,,,space,0.4043,,,,,,,,,,,,,,,,,,,,,,,,,,,,,,,,,,,,,,,,,,,,,,,,,,,,,,,,,,,,
,,,,914816,001,2023-11-09_20h48.07.469,fluency,2022.2.4,Win32,260.756193,,,,,,,,,,,,,,,,,,,,,,,4,5,img/B05_04.jpg,CONTROL,Press J as soon as you see a face, ,JK,,,,,,,,,,,,,,,,,,,,,,,,,,,,,,,,,,,,,,,,,,,,,,747.7081,0,70,70,48,1,109,0,0,0,0,1,98,,,,,,,,,,,,,,,,,,,,,,,,,,,,,,,,,,,,,,,,,,,,,,,,,,,,,,,,,,,,,,,,,,,
,,,,914816,001,2023-11-09_20h48.07.469,fluency,2022.2.4,Win32,260.756193,,,,,,,,,,,,,,,,,,,,,,,,,,,,,,,,,,,,,,,,,,,,,,,,,,,,,,,,,,,,,,,,,,,,,,,,,,,,,,,,,,0,0,0,0,1,,"[""j""]",[0.5306999999992286],0,"[""j""]",[0.5305999999995947],,,,,,,,,,,,,,,,,,,,,,,,,,,,,,,,,,,,,,,,,,,,,,,,,,,,,,,,,,,,,,
,,,,914816,001,2023-11-09_20h48.07.469,fluency,2022.2.4,Win32,260.756193,,,,,,,,,,,,,,,,,,,,,,,4,5,img/B05_04.jpg,CONTROL,Press J as soon as you see a face, ,JK,,,,,,,,,,,,,,,,,,,,,,,,,,,,,,,,2,0.8442,,,,,,,,,,,,,,0,70,70,48,1,,,,,,,,,,,,,space,0.3039,,,,,,,,,,,,,,,,,,,,,,,,,,,,,,,,,,,,,,,,,,,,,,,,,,,,,,,,,,,,
,,,,914816,001,2023-11-09_20h48.07.469,fluency,2022.2.4,Win32,260.756193,,,,,,,,,,,,,,,,,,,,,,,6,10,img/B10_06.jpg,CONTROL,Press J as soon as you see a face, ,JK,,,,,,,,,,,,,,,,,,,,,,,,,,,,,,,,,,,,,,,,,,,,,,752.8787,0,71,71,105,1,109,0,0,0,0,1,98,,,,,,,,,,,,,,,,,,,,,,,,,,,,,,,,,,,,,,,,,,,,,,,,,,,,,,,,,,,,,,,,,,,
,,,,914816,001,2023-11-09_20h48.07.469,fluency,2022.2.4,Win32,260.756193,,,,,,,,,,,,,,,,,,,,,,,,,,,,,,,,,,,,,,,,,,,,,,,,,,,,,,,,,,,,,,,,,,,,,,,,,,,,,,,,,,0,0,0,0,1,,"[""j""]",[0.24389999999948486],0,"[""j""]",[0.24389999999948486],,,,,,,,,,,,,,,,,,,,,,,,,,,,,,,,,,,,,,,,,,,,,,,,,,,,,,,,,,,,,,
,,,,914816,001,2023-11-09_20h48.07.469,fluency,2022.2.4,Win32,260.756193,,,,,,,,,,,,,,,,,,,,,,,6,10,img/B10_06.jpg,CONTROL,Press J as soon as you see a face, ,JK,,,,,,,,,,,,,,,,,,,,,,,,,,,,,,,,2,0.6428,,,,,,,,,,,,,,0,71,71,105,1,,,,,,,,,,,,,space,1.04,,,,,,,,,,,,,,,,,,,,,,,,,,,,,,,,,,,,,,,,,,,,,,,,,,,,,,,,,,,,
,,,,914816,001,2023-11-09_20h48.07.469,fluency,2022.2.4,Win32,260.756193,,,,,,,,,,,,,,,,,,,,,,,0,3,img/B03_00.jpg,CONTROL,Press J as soon as you see a face, ,JK,,,,,,,,,,,,,,,,,,,,,,,,,,,,,,,,,,,,,,,,,,,,,,758.5852,0,72,72,22,1,109,0,0,0,0,1,98,,,,,,,,,,,,,,,,,,,,,,,,,,,,,,,,,,,,,,,,,,,,,,,,,,,,,,,,,,,,,,,,,,,
,,,,914816,001,2023-11-09_20h48.07.469,fluency,2022.2.4,Win32,260.756193,,,,,,,,,,,,,,,,,,,,,,,,,,,,,,,,,,,,,,,,,,,,,,,,,,,,,,,,,,,,,,,,,,,,,,,,,,,,,,,,,,0,0,0,0,1,,"[""j""]",[0.3236000000006243],0,"[""j""]",[0.3236000000006243],,,,,,,,,,,,,,,,,,,,,,,,,,,,,,,,,,,,,,,,,,,,,,,,,,,,,,,,,,,,,,
,,,,914816,001,2023-11-09_20h48.07.469,fluency,2022.2.4,Win32,260.756193,,,,,,,,,,,,,,,,,,,,,,,0,3,img/B03_00.jpg,CONTROL,Press J as soon as you see a face, ,JK,,,,,,,,,,,,,,,,,,,,,,,,,,,,,,,,4,1.4612,,,,,,,,,,,,,,0,72,72,22,1,,,,,,,,,,,,,space,0.7007,,,,,,,,,,,,,,,,,,,,,,,,,,,,,,,,,,,,,,,,,,,,,,,,,,,,,,,,,,,,
,,,,914816,001,2023-11-09_20h48.07.469,fluency,2022.2.4,Win32,260.756193,,,,,,,,,,,,,,,,,,,,,,,5,3,img/B03_05.jpg,CONTROL,Press J as soon as you see a face, ,JK,,,,,,,,,,,,,,,,,,,,,,,,,,,,,,,,,,,,,,,,,,,,,,764.7699,0,73,73,27,1,109,0,0,0,0,1,98,,,,,,,,,,,,,,,,,,,,,,,,,,,,,,,,,,,,,,,,,,,,,,,,,,,,,,,,,,,,,,,,,,,
,,,,914816,001,2023-11-09_20h48.07.469,fluency,2022.2.4,Win32,260.756193,,,,,,,,,,,,,,,,,,,,,,,,,,,,,,,,,,,,,,,,,,,,,,,,,,,,,,,,,,,,,,,,,,,,,,,,,,,,,,,,,,0,0,0,0,1,,"[""j""]",[0.23020000000019536],0,"[""j""]",[0.2302999999998292],,,,,,,,,,,,,,,,,,,,,,,,,,,,,,,,,,,,,,,,,,,,,,,,,,,,,,,,,,,,,,
,,,,914816,001,2023-11-09_20h48.07.469,fluency,2022.2.4,Win32,260.756193,,,,,,,,,,,,,,,,,,,,,,,5,3,img/B03_05.jpg,CONTROL,Press J as soon as you see a face, ,JK,,,,,,,,,,,,,,,,,,,,,,,,,,,,,,,,3,1.4862,,,,,,,,,,,,,,0,73,73,27,1,,,,,,,,,,,,,space,1.1937,,,,,,,,,,,,,,,,,,,,,,,,,,,,,,,,,,,,,,,,,,,,,,,,,,,,,,,,,,,,
,,,,914816,001,2023-11-09_20h48.07.469,fluency,2022.2.4,Win32,260.756193,,,,,,,,,,,,,,,,,,,,,,,1,3,img/B03_01.jpg,CONTROL,Press J as soon as you see a face, ,JK,,,,,,,,,,,,,,,,,,,,,,,,,,,,,,,,,,,,,,,,,,,,,,771.4776,0,74,74,23,1,109,0,0,0,0,1,98,,,,,,,,,,,,,,,,,,,,,,,,,,,,,,,,,,,,,,,,,,,,,,,,,,,,,,,,,,,,,,,,,,,
,,,,914816,001,2023-11-09_20h48.07.469,fluency,2022.2.4,Win32,260.756193,,,,,,,,,,,,,,,,,,,,,,,,,,,,,,,,,,,,,,,,,,,,,,,,,,,,,,,,,,,,,,,,,,,,,,,,,,,,,,,,,,0,0,0,0,1,,"[""j""]",[0.4752000000001999],0,"[""space"",""j""]","[0.2332000000002381,0.4752000000001999]",,,,,,,,,,,,,,,,,,,,,,,,,,,,,,,,,,,,,,,,,,,,,,,,,,,,,,,,,,,,,,
,,,,914816,001,2023-11-09_20h48.07.469,fluency,2022.2.4,Win32,260.756193,,,,,,,,,,,,,,,,,,,,,,,1,3,img/B03_01.jpg,CONTROL,Press J as soon as you see a face, ,JK,,,,,,,,,,,,,,,,,,,,,,,,,,,,,,,,7,1.7873,,,,,,,,,,,,,,0,74,74,23,1,,,,,,,,,,,,,space,0.6243,,,,,,,,,,,,,,,,,,,,,,,,,,,,,,,,,,,,,,,,,,,,,,,,,,,,,,,,,,,,
,,,,914816,001,2023-11-09_20h48.07.469,fluency,2022.2.4,Win32,260.756193,,,,,,,,,,,,,,,,,,,,,,,8,9,img/B09_08.jpg,CONTROL,Press J as soon as you see a face, ,JK,,,,,,,,,,,,,,,,,,,,,,,,,,,,,,,,,,,,,,,,,,,,,,777.9122,0,75,75,96,1,109,0,0,0,0,1,98,,,,,,,,,,,,,,,,,,,,,,,,,,,,,,,,,,,,,,,,,,,,,,,,,,,,,,,,,,,,,,,,,,,
,,,,914816,001,2023-11-09_20h48.07.469,fluency,2022.2.4,Win32,260.756193,,,,,,,,,,,,,,,,,,,,,,,,,,,,,,,,,,,,,,,,,,,,,,,,,,,,,,,,,,,,,,,,,,,,,,,,,,,,,,,,,,0,0,0,0,1,,"[""j""]",[0.2556999999992513],0,"[""j"",""space""]","[0.25559999999961747,0.26670000000012806]",,,,,,,,,,,,,,,,,,,,,,,,,,,,,,,,,,,,,,,,,,,,,,,,,,,,,,,,,,,,,,
,,,,914816,001,2023-11-09_20h48.07.469,fluency,2022.2.4,Win32,260.756193,,,,,,,,,,,,,,,,,,,,,,,8,9,img/B09_08.jpg,CONTROL,Press J as soon as you see a face, ,JK,,,,,,,,,,,,,,,,,,,,,,,,,,,,,,,,4,2.227,,,,,,,,,,,,,,0,75,75,96,1,,,,,,,,,,,,,space,0.5576,,,,,,,,,,,,,,,,,,,,,,,,,,,,,,,,,,,,,,,,,,,,,,,,,,,,,,,,,,,,
,,,,914816,001,2023-11-09_20h48.07.469,fluency,2022.2.4,Win32,260.756193,,,,,,,,,,,,,,,,,,,,,,,3,2,img/B02_03.jpg,CONTROL,Press J as soon as you see a face, ,JK,,,,,,,,,,,,,,,,,,,,,,,,,,,,,,,,,,,,,,,,,,,,,,784.7238,0,76,76,14,1,109,0,0,0,0,1,98,,,,,,,,,,,,,,,,,,,,,,,,,,,,,,,,,,,,,,,,,,,,,,,,,,,,,,,,,,,,,,,,,,,
,,,,914816,001,2023-11-09_20h48.07.469,fluency,2022.2.4,Win32,260.756193,,,,,,,,,,,,,,,,,,,,,,,,,,,,,,,,,,,,,,,,,,,,,,,,,,,,,,,,,,,,,,,,,,,,,,,,,,,,,,,,,,0,0,0,0,1,,"[""j""]",[0.24349999999992633],0,"[""j""]",[0.243399999999383],,,,,,,,,,,,,,,,,,,,,,,,,,,,,,,,,,,,,,,,,,,,,,,,,,,,,,,,,,,,,,
,,,,914816,001,2023-11-09_20h48.07.469,fluency,2022.2.4,Win32,260.756193,,,,,,,,,,,,,,,,,,,,,,,3,2,img/B02_03.jpg,CONTROL,Press J as soon as you see a face, ,JK,,,,,,,,,,,,,,,,,,,,,,,,,,,,,,,,3,0.2339,,,,,,,,,,,,,,0,76,76,14,1,,,,,,,,,,,,,space,0.4009,,,,,,,,,,,,,,,,,,,,,,,,,,,,,,,,,,,,,,,,,,,,,,,,,,,,,,,,,,,,
,,,,914816,001,2023-11-09_20h48.07.469,fluency,2022.2.4,Win32,260.756193,,,,,,,,,,,,,,,,,,,,,,,9,2,img/B02_09.jpg,CONTROL,Press J as soon as you see a face, ,JK,,,,,,,,,,,,,,,,,,,,,,,,,,,,,,,,,,,,,,,,,,,,,,790.3776,0,77,77,20,1,109,0,0,0,0,1,98,,,,,,,,,,,,,,,,,,,,,,,,,,,,,,,,,,,,,,,,,,,,,,,,,,,,,,,,,,,,,,,,,,,
,,,,914816,001,2023-11-09_20h48.07.469,fluency,2022.2.4,Win32,260.756193,,,,,,,,,,,,,,,,,,,,,,,,,,,,,,,,,,,,,,,,,,,,,,,,,,,,,,,,,,,,,,,,,,,,,,,,,,,,,,,,,,0,0,0,0,1,,"[""j""]",[0.20939999999939118],0,"[""j""]",[0.20939999999939118],,,,,,,,,,,,,,,,,,,,,,,,,,,,,,,,,,,,,,,,,,,,,,,,,,,,,,,,,,,,,,
,,,,914816,001,2023-11-09_20h48.07.469,fluency,2022.2.4,Win32,260.756193,,,,,,,,,,,,,,,,,,,,,,,9,2,img/B02_09.jpg,CONTROL,Press J as soon as you see a face, ,JK,,,,,,,,,,,,,,,,,,,,,,,,,,,,,,,,3,3.1872,,,,,,,,,,,,,,0,77,77,20,1,,,,,,,,,,,,,space,7.6873,,,,,,,,,,,,,,,,,,,,,,,,,,,,,,,,,,,,,,,,,,,,,,,,,,,,,,,,,,,,
,,,,914816,001,2023-11-09_20h48.07.469,fluency,2022.2.4,Win32,260.756193,,,,,,,,,,,,,,,,,,,,,,,8,3,img/B03_08.jpg,CONTROL,Press J as soon as you see a face, ,JK,,,,,,,,,,,,,,,,,,,,,,,,,,,,,,,,,,,,,,,,,,,,,,805.2896,0,78,78,30,1,109,0,0,0,0,1,98,,,,,,,,,,,,,,,,,,,,,,,,,,,,,,,,,,,,,,,,,,,,,,,,,,,,,,,,,,,,,,,,,,,
,,,,914816,001,2023-11-09_20h48.07.469,fluency,2022.2.4,Win32,260.756193,,,,,,,,,,,,,,,,,,,,,,,,,,,,,,,,,,,,,,,,,,,,,,,,,,,,,,,,,,,,,,,,,,,,,,,,,,,,,,,,,,0,0,0,0,1,,"[""j""]",[0.40800000000001546],0,"[""j""]",[0.40800000000001546],,,,,,,,,,,,,,,,,,,,,,,,,,,,,,,,,,,,,,,,,,,,,,,,,,,,,,,,,,,,,,
,,,,914816,001,2023-11-09_20h48.07.469,fluency,2022.2.4,Win32,260.756193,,,,,,,,,,,,,,,,,,,,,,,8,3,img/B03_08.jpg,CONTROL,Press J as soon as you see a face, ,JK,,,,,,,,,,,,,,,,,,,,,,,,,,,,,,,,6,2.1689,,,,,,,,,,,,,,0,78,78,30,1,,,,,,,,,,,,,space,5.5076,,,,,,,,,,,,,,,,,,,,,,,,,,,,,,,,,,,,,,,,,,,,,,,,,,,,,,,,,,,,
,,,,914816,001,2023-11-09_20h48.07.469,fluency,2022.2.4,Win32,260.756193,,,,,,,,,,,,,,,,,,,,,,,1,5,img/B05_01.jpg,CONTROL,Press J as soon as you see a face, ,JK,,,,,,,,,,,,,,,,,,,,,,,,,,,,,,,,,,,,,,,,,,,,,,818.0169,0,79,79,45,1,109,0,0,0,0,1,98,,,,,,,,,,,,,,,,,,,,,,,,,,,,,,,,,,,,,,,,,,,,,,,,,,,,,,,,,,,,,,,,,,,
,,,,914816,001,2023-11-09_20h48.07.469,fluency,2022.2.4,Win32,260.756193,,,,,,,,,,,,,,,,,,,,,,,,,,,,,,,,,,,,,,,,,,,,,,,,,,,,,,,,,,,,,,,,,,,,,,,,,,,,,,,,,,0,0,0,0,1,,"[""j""]",[0.24950000000001182],0,"[""j""]",[0.24950000000001182],,,,,,,,,,,,,,,,,,,,,,,,,,,,,,,,,,,,,,,,,,,,,,,,,,,,,,,,,,,,,,
,,,,914816,001,2023-11-09_20h48.07.469,fluency,2022.2.4,Win32,260.756193,,,,,,,,,,,,,,,,,,,,,,,1,5,img/B05_01.jpg,CONTROL,Press J as soon as you see a face, ,JK,,,,,,,,,,,,,,,,,,,,,,,,,,,,,,,,4,0.5486,,,,,,,,,,,,,,0,79,79,45,1,,,,,,,,,,,,,space,0.4472,,,,,,,,,,,,,,,,,,,,,,,,,,,,,,,,,,,,,,,,,,,,,,,,,,,,,,,,,,,,
,,,,914816,001,2023-11-09_20h48.07.469,fluency,2022.2.4,Win32,260.756193,,,,,,,,,,,,,,,,,,,,,,,6,2,img/B02_06.jpg,CONTROL,Press J as soon as you see a face, ,JK,,,,,,,,,,,,,,,,,,,,,,,,,,,,,,,,,,,,,,,,,,,,,,823.0356,0,80,80,17,1,109,0,0,0,0,1,98,,,,,,,,,,,,,,,,,,,,,,,,,,,,,,,,,,,,,,,,,,,,,,,,,,,,,,,,,,,,,,,,,,,
,,,,914816,001,2023-11-09_20h48.07.469,fluency,2022.2.4,Win32,260.756193,,,,,,,,,,,,,,,,,,,,,,,,,,,,,,,,,,,,,,,,,,,,,,,,,,,,,,,,,,,,,,,,,,,,,,,,,,,,,,,,,,0,0,0,0,1,,"[""j""]",[0.619399999999473],0,"[""j""]",[0.619399999999473],,,,,,,,,,,,,,,,,,,,,,,,,,,,,,,,,,,,,,,,,,,,,,,,,,,,,,,,,,,,,,
,,,,914816,001,2023-11-09_20h48.07.469,fluency,2022.2.4,Win32,260.756193,,,,,,,,,,,,,,,,,,,,,,,6,2,img/B02_06.jpg,CONTROL,Press J as soon as you see a face, ,JK,,,,,,,,,,,,,,,,,,,,,,,,,,,,,,,,3,0.9894,,,,,,,,,,,,,,0,80,80,17,1,,,,,,,,,,,,,space,0.6046,,,,,,,,,,,,,,,,,,,,,,,,,,,,,,,,,,,,,,,,,,,,,,,,,,,,,,,,,,,,
,,,,914816,001,2023-11-09_20h48.07.469,fluency,2022.2.4,Win32,260.756193,,,,,,,,,,,,,,,,,,,,,,,6,1,img/B01_06.jpg,CONTROL,Press J as soon as you see a face, ,JK,,,,,,,,,,,,,,,,,,,,,,,,,,,,,,,,,,,,,,,,,,,,,,829.6472,0,81,81,6,1,109,0,0,0,0,1,98,,,,,,,,,,,,,,,,,,,,,,,,,,,,,,,,,,,,,,,,,,,,,,,,,,,,,,,,,,,,,,,,,,,
,,,,914816,001,2023-11-09_20h48.07.469,fluency,2022.2.4,Win32,260.756193,,,,,,,,,,,,,,,,,,,,,,,,,,,,,,,,,,,,,,,,,,,,,,,,,,,,,,,,,,,,,,,,,,,,,,,,,,,,,,,,,,0,0,0,0,1,,"[""j""]",[0.2537000000002081],0,"[""j""]",[0.2537000000002081],,,,,,,,,,,,,,,,,,,,,,,,,,,,,,,,,,,,,,,,,,,,,,,,,,,,,,,,,,,,,,
,,,,914816,001,2023-11-09_20h48.07.469,fluency,2022.2.4,Win32,260.756193,,,,,,,,,,,,,,,,,,,,,,,6,1,img/B01_06.jpg,CONTROL,Press J as soon as you see a face, ,JK,,,,,,,,,,,,,,,,,,,,,,,,,,,,,,,,2,0.794,,,,,,,,,,,,,,0,81,81,6,1,,,,,,,,,,,,,space,1.0401,,,,,,,,,,,,,,,,,,,,,,,,,,,,,,,,,,,,,,,,,,,,,,,,,,,,,,,,,,,,
,,,,914816,001,2023-11-09_20h48.07.469,fluency,2022.2.4,Win32,260.756193,,,,,,,,,,,,,,,,,,,,,,,4,7,img/B07_04.jpg,CONTROL,Press J as soon as you see a face, ,JK,,,,,,,,,,,,,,,,,,,,,,,,,,,,,,,,,,,,,,,,,,,,,,835.5089,0,82,82,70,1,109,0,0,0,0,1,98,,,,,,,,,,,,,,,,,,,,,,,,,,,,,,,,,,,,,,,,,,,,,,,,,,,,,,,,,,,,,,,,,,,
,,,,914816,001,2023-11-09_20h48.07.469,fluency,2022.2.4,Win32,260.756193,,,,,,,,,,,,,,,,,,,,,,,,,,,,,,,,,,,,,,,,,,,,,,,,,,,,,,,,,,,,,,,,,,,,,,,,,,,,,,,,,,0,0,0,0,1,,"[""j""]",[0.750299999999811],0,"[""j""]",[0.7502000000001772],,,,,,,,,,,,,,,,,,,,,,,,,,,,,,,,,,,,,,,,,,,,,,,,,,,,,,,,,,,,,,
,,,,914816,001,2023-11-09_20h48.07.469,fluency,2022.2.4,Win32,260.756193,,,,,,,,,,,,,,,,,,,,,,,4,7,img/B07_04.jpg,CONTROL,Press J as soon as you see a face, ,JK,,,,,,,,,,,,,,,,,,,,,,,,,,,,,,,,2,1.0931,,,,,,,,,,,,,,0,82,82,70,1,,,,,,,,,,,,,space,0.6157,,,,,,,,,,,,,,,,,,,,,,,,,,,,,,,,,,,,,,,,,,,,,,,,,,,,,,,,,,,,
,,,,914816,001,2023-11-09_20h48.07.469,fluency,2022.2.4,Win32,260.756193,,,,,,,,,,,,,,,,,,,,,,,0,1,img/B01_00.jpg,CONTROL,Press J as soon as you see a face, ,JK,,,,,,,,,,,,,,,,,,,,,,,,,,,,,,,,,,,,,,,,,,,,,,842.2434,0,83,83,0,1,109,0,0,0,0,1,98,,,,,,,,,,,,,,,,,,,,,,,,,,,,,,,,,,,,,,,,,,,,,,,,,,,,,,,,,,,,,,,,,,,
,,,,914816,001,2023-11-09_20h48.07.469,fluency,2022.2.4,Win32,260.756193,,,,,,,,,,,,,,,,,,,,,,,,,,,,,,,,,,,,,,,,,,,,,,,,,,,,,,,,,,,,,,,,,,,,,,,,,,,,,,,,,,0,0,0,0,1,,"[""j""]",[0.21209999999962292],0,"[""j""]",[0.21209999999962292],,,,,,,,,,,,,,,,,,,,,,,,,,,,,,,,,,,,,,,,,,,,,,,,,,,,,,,,,,,,,,
,,,,914816,001,2023-11-09_20h48.07.469,fluency,2022.2.4,Win32,260.756193,,,,,,,,,,,,,,,,,,,,,,,0,1,img/B01_00.jpg,CONTROL,Press J as soon as you see a face, ,JK,,,,,,,,,,,,,,,,,,,,,,,,,,,,,,,,3,1.0404,,,,,,,,,,,,,,0,83,83,0,1,,,,,,,,,,,,,space,0.5664,,,,,,,,,,,,,,,,,,,,,,,,,,,,,,,,,,,,,,,,,,,,,,,,,,,,,,,,,,,,
,,,,914816,001,2023-11-09_20h48.07.469,fluency,2022.2.4,Win32,260.756193,,,,,,,,,,,,,,,,,,,,,,,3,9,img/B09_03.jpg,CONTROL,Press J as soon as you see a face, ,JK,,,,,,,,,,,,,,,,,,,,,,,,,,,,,,,,,,,,,,,,,,,,,,847.8743,0,84,84,91,1,109,0,0,0,0,1,98,,,,,,,,,,,,,,,,,,,,,,,,,,,,,,,,,,,,,,,,,,,,,,,,,,,,,,,,,,,,,,,,,,,
,,,,914816,001,2023-11-09_20h48.07.469,fluency,2022.2.4,Win32,260.756193,,,,,,,,,,,,,,,,,,,,,,,,,,,,,,,,,,,,,,,,,,,,,,,,,,,,,,,,,,,,,,,,,,,,,,,,,,,,,,,,,,0,0,0,0,1,,"[""j""]",[0.2665999999995847],0,"[""j""]",[0.2664999999999509],,,,,,,,,,,,,,,,,,,,,,,,,,,,,,,,,,,,,,,,,,,,,,,,,,,,,,,,,,,,,,
,,,,914816,001,2023-11-09_20h48.07.469,fluency,2022.2.4,Win32,260.756193,,,,,,,,,,,,,,,,,,,,,,,3,9,img/B09_03.jpg,CONTROL,Press J as soon as you see a face, ,JK,,,,,,,,,,,,,,,,,,,,,,,,,,,,,,,,3,0.2522,,,,,,,,,,,,,,0,84,84,91,1,,,,,,,,,,,,,space,0.7437,,,,,,,,,,,,,,,,,,,,,,,,,,,,,,,,,,,,,,,,,,,,,,,,,,,,,,,,,,,,
,,,,914816,001,2023-11-09_20h48.07.469,fluency,2022.2.4,Win32,260.756193,,,,,,,,,,,,,,,,,,,,,,,10,5,img/B05_10.jpg,CONTROL,Press J as soon as you see a face, ,JK,,,,,,,,,,,,,,,,,,,,,,,,,,,,,,,,,,,,,,,,,,,,,,853.8897,0,85,85,54,1,109,0,0,0,0,1,98,,,,,,,,,,,,,,,,,,,,,,,,,,,,,,,,,,,,,,,,,,,,,,,,,,,,,,,,,,,,,,,,,,,
,,,,914816,001,2023-11-09_20h48.07.469,fluency,2022.2.4,Win32,260.756193,,,,,,,,,,,,,,,,,,,,,,,,,,,,,,,,,,,,,,,,,,,,,,,,,,,,,,,,,,,,,,,,,,,,,,,,,,,,,,,,,,0,0,0,0,1,,"[""j""]",[0.23590000000035616],0,"[""j""]",[0.23579999999981283],,,,,,,,,,,,,,,,,,,,,,,,,,,,,,,,,,,,,,,,,,,,,,,,,,,,,,,,,,,,,,
,,,,914816,001,2023-11-09_20h48.07.469,fluency,2022.2.4,Win32,260.756193,,,,,,,,,,,,,,,,,,,,,,,10,5,img/B05_10.jpg,CONTROL,Press J as soon as you see a face, ,JK,,,,,,,,,,,,,,,,,,,,,,,,,,,,,,,,5,1.1091,,,,,,,,,,,,,,0,85,85,54,1,,,,,,,,,,,,,space,0.6578,,,,,,,,,,,,,,,,,,,,,,,,,,,,,,,,,,,,,,,,,,,,,,,,,,,,,,,,,,,,
,,,,914816,001,2023-11-09_20h48.07.469,fluency,2022.2.4,Win32,260.756193,,,,,,,,,,,,,,,,,,,,,,,9,9,img/B09_09.jpg,CONTROL,Press J as soon as you see a face, ,JK,,,,,,,,,,,,,,,,,,,,,,,,,,,,,,,,,,,,,,,,,,,,,,859.6784,0,86,86,97,1,109,0,0,0,0,1,98,,,,,,,,,,,,,,,,,,,,,,,,,,,,,,,,,,,,,,,,,,,,,,,,,,,,,,,,,,,,,,,,,,,
,,,,914816,001,2023-11-09_20h48.07.469,fluency,2022.2.4,Win32,260.756193,,,,,,,,,,,,,,,,,,,,,,,,,,,,,,,,,,,,,,,,,,,,,,,,,,,,,,,,,,,,,,,,,,,,,,,,,,,,,,,,,,0,0,0,0,1,,"[""j""]",[0.26579999999978554],0,"[""j""]",[0.26590000000044256],,,,,,,,,,,,,,,,,,,,,,,,,,,,,,,,,,,,,,,,,,,,,,,,,,,,,,,,,,,,,,
,,,,914816,001,2023-11-09_20h48.07.469,fluency,2022.2.4,Win32,260.756193,,,,,,,,,,,,,,,,,,,,,,,9,9,img/B09_09.jpg,CONTROL,Press J as soon as you see a face, ,JK,,,,,,,,,,,,,,,,,,,,,,,,,,,,,,,,4,1.8527,,,,,,,,,,,,,,0,86,86,97,1,,,,,,,,,,,,,space,0.823,,,,,,,,,,,,,,,,,,,,,,,,,,,,,,,,,,,,,,,,,,,,,,,,,,,,,,,,,,,,
,,,,914816,001,2023-11-09_20h48.07.469,fluency,2022.2.4,Win32,260.756193,,,,,,,,,,,,,,,,,,,,,,,0,2,img/B02_00.jpg,CONTROL,Press J as soon as you see a face, ,JK,,,,,,,,,,,,,,,,,,,,,,,,,,,,,,,,,,,,,,,,,,,,,,866.3782,0,87,87,11,1,109,0,0,0,0,1,98,,,,,,,,,,,,,,,,,,,,,,,,,,,,,,,,,,,,,,,,,,,,,,,,,,,,,,,,,,,,,,,,,,,
,,,,914816,001,2023-11-09_20h48.07.469,fluency,2022.2.4,Win32,260.756193,,,,,,,,,,,,,,,,,,,,,,,,,,,,,,,,,,,,,,,,,,,,,,,,,,,,,,,,,,,,,,,,,,,,,,,,,,,,,,,,,,0,0,0,0,1,,"[""j""]",[0.4730999999995902],0,"[""j""]",[0.473199999999224],,,,,,,,,,,,,,,,,,,,,,,,,,,,,,,,,,,,,,,,,,,,,,,,,,,,,,,,,,,,,,
,,,,914816,001,2023-11-09_20h48.07.469,fluency,2022.2.4,Win32,260.756193,,,,,,,,,,,,,,,,,,,,,,,0,2,img/B02_00.jpg,CONTROL,Press J as soon as you see a face, ,JK,,,,,,,,,,,,,,,,,,,,,,,,,,,,,,,,3,0.4803,,,,,,,,,,,,,,0,87,87,11,1,,,,,,,,,,,,,space,0.7457,,,,,,,,,,,,,,,,,,,,,,,,,,,,,,,,,,,,,,,,,,,,,,,,,,,,,,,,,,,,
,,,,914816,001,2023-11-09_20h48.07.469,fluency,2022.2.4,Win32,260.756193,,,,,,,,,,,,,,,,,,,,,,,2,3,img/B03_02.jpg,CONTROL,Press J as soon as you see a face, ,JK,,,,,,,,,,,,,,,,,,,,,,,,,,,,,,,,,,,,,,,,,,,,,,872.6244,0,88,88,24,1,109,0,0,0,0,1,98,,,,,,,,,,,,,,,,,,,,,,,,,,,,,,,,,,,,,,,,,,,,,,,,,,,,,,,,,,,,,,,,,,,
,,,,914816,001,2023-11-09_20h48.07.469,fluency,2022.2.4,Win32,260.756193,,,,,,,,,,,,,,,,,,,,,,,,,,,,,,,,,,,,,,,,,,,,,,,,,,,,,,,,,,,,,,,,,,,,,,,,,,,,,,,,,,0,0,0,0,1,,"[""j""]",[0.20159999999964384],0,"[""j""]",[0.20159999999964384],,,,,,,,,,,,,,,,,,,,,,,,,,,,,,,,,,,,,,,,,,,,,,,,,,,,,,,,,,,,,,
,,,,914816,001,2023-11-09_20h48.07.469,fluency,2022.2.4,Win32,260.756193,,,,,,,,,,,,,,,,,,,,,,,2,3,img/B03_02.jpg,CONTROL,Press J as soon as you see a face, ,JK,,,,,,,,,,,,,,,,,,,,,,,,,,,,,,,,8,0.3554,,,,,,,,,,,,,,0,88,88,24,1,,,,,,,,,,,,,space,0.7321,,,,,,,,,,,,,,,,,,,,,,,,,,,,,,,,,,,,,,,,,,,,,,,,,,,,,,,,,,,,
,,,,914816,001,2023-11-09_20h48.07.469,fluency,2022.2.4,Win32,260.756193,,,,,,,,,,,,,,,,,,,,,,,6,5,img/B05_06.jpg,CONTROL,Press J as soon as you see a face, ,JK,,,,,,,,,,,,,,,,,,,,,,,,,,,,,,,,,,,,,,,,,,,,,,878.7287,0,89,89,50,1,109,0,0,0,0,1,98,,,,,,,,,,,,,,,,,,,,,,,,,,,,,,,,,,,,,,,,,,,,,,,,,,,,,,,,,,,,,,,,,,,
,,,,914816,001,2023-11-09_20h48.07.469,fluency,2022.2.4,Win32,260.756193,,,,,,,,,,,,,,,,,,,,,,,,,,,,,,,,,,,,,,,,,,,,,,,,,,,,,,,,,,,,,,,,,,,,,,,,,,,,,,,,,,0,0,0,0,1,,"[""j""]",[0.1986000000005106],0,"[""j""]",[0.1986000000005106],,,,,,,,,,,,,,,,,,,,,,,,,,,,,,,,,,,,,,,,,,,,,,,,,,,,,,,,,,,,,,
,,,,914816,001,2023-11-09_20h48.07.469,fluency,2022.2.4,Win32,260.756193,,,,,,,,,,,,,,,,,,,,,,,6,5,img/B05_06.jpg,CONTROL,Press J as soon as you see a face, ,JK,,,,,,,,,,,,,,,,,,,,,,,,,,,,,,,,4,1.6215,,,,,,,,,,,,,,0,89,89,50,1,,,,,,,,,,,,,space,0.6768,,,,,,,,,,,,,,,,,,,,,,,,,,,,,,,,,,,,,,,,,,,,,,,,,,,,,,,,,,,,
,,,,914816,001,2023-11-09_20h48.07.469,fluency,2022.2.4,Win32,260.756193,,,,,,,,,,,,,,,,,,,,,,,6,4,img/B04_06.jpg,CONTROL,Press J as soon as you see a face, ,JK,,,,,,,,,,,,,,,,,,,,,,,,,,,,,,,,,,,,,,,,,,,,,,885.0552,0,90,90,39,1,109,0,0,0,0,1,98,,,,,,,,,,,,,,,,,,,,,,,,,,,,,,,,,,,,,,,,,,,,,,,,,,,,,,,,,,,,,,,,,,,
,,,,914816,001,2023-11-09_20h48.07.469,fluency,2022.2.4,Win32,260.756193,,,,,,,,,,,,,,,,,,,,,,,,,,,,,,,,,,,,,,,,,,,,,,,,,,,,,,,,,,,,,,,,,,,,,,,,,,,,,,,,,,0,0,0,0,1,,"[""j""]",[0.22279999999977917],0,"[""j""]",[0.22279999999977917],,,,,,,,,,,,,,,,,,,,,,,,,,,,,,,,,,,,,,,,,,,,,,,,,,,,,,,,,,,,,,
,,,,914816,001,2023-11-09_20h48.07.469,fluency,2022.2.4,Win32,260.756193,,,,,,,,,,,,,,,,,,,,,,,6,4,img/B04_06.jpg,CONTROL,Press J as soon as you see a face, ,JK,,,,,,,,,,,,,,,,,,,,,,,,,,,,,,,,2,1.373,,,,,,,,,,,,,,0,90,90,39,1,,,,,,,,,,,,,space,0.5881,,,,,,,,,,,,,,,,,,,,,,,,,,,,,,,,,,,,,,,,,,,,,,,,,,,,,,,,,,,,
,,,,914816,001,2023-11-09_20h48.07.469,fluency,2022.2.4,Win32,260.756193,,,,,,,,,,,,,,,,,,,,,,,2,9,img/B09_02.jpg,CONTROL,Press J as soon as you see a face, ,JK,,,,,,,,,,,,,,,,,,,,,,,,,,,,,,,,,,,,,,,,,,,,,,892.0401,0,91,91,90,1,109,0,0,0,0,1,98,,,,,,,,,,,,,,,,,,,,,,,,,,,,,,,,,,,,,,,,,,,,,,,,,,,,,,,,,,,,,,,,,,,
,,,,914816,001,2023-11-09_20h48.07.469,fluency,2022.2.4,Win32,260.756193,,,,,,,,,,,,,,,,,,,,,,,,,,,,,,,,,,,,,,,,,,,,,,,,,,,,,,,,,,,,,,,,,,,,,,,,,,,,,,,,,,0,0,0,0,1,,"[""j""]",[0.20959999999968204],0,"[""j""]",[0.20959999999968204],,,,,,,,,,,,,,,,,,,,,,,,,,,,,,,,,,,,,,,,,,,,,,,,,,,,,,,,,,,,,,
,,,,914816,001,2023-11-09_20h48.07.469,fluency,2022.2.4,Win32,260.756193,,,,,,,,,,,,,,,,,,,,,,,2,9,img/B09_02.jpg,CONTROL,Press J as soon as you see a face, ,JK,,,,,,,,,,,,,,,,,,,,,,,,,,,,,,,,5,2.2629,,,,,,,,,,,,,,0,91,91,90,1,,,,,,,,,,,,,space,0.7445,,,,,,,,,,,,,,,,,,,,,,,,,,,,,,,,,,,,,,,,,,,,,,,,,,,,,,,,,,,,
,,,,914816,001,2023-11-09_20h48.07.469,fluency,2022.2.4,Win32,260.756193,,,,,,,,,,,,,,,,,,,,,,,0,4,img/B04_00.jpg,CONTROL,Press J as soon as you see a face, ,JK,,,,,,,,,,,,,,,,,,,,,,,,,,,,,,,,,,,,,,,,,,,,,,899.0849,0,92,92,33,1,109,0,0,0,0,1,98,,,,,,,,,,,,,,,,,,,,,,,,,,,,,,,,,,,,,,,,,,,,,,,,,,,,,,,,,,,,,,,,,,,
,,,,914816,001,2023-11-09_20h48.07.469,fluency,2022.2.4,Win32,260.756193,,,,,,,,,,,,,,,,,,,,,,,,,,,,,,,,,,,,,,,,,,,,,,,,,,,,,,,,,,,,,,,,,,,,,,,,,,,,,,,,,,0,0,0,0,1,,"[""j""]",[0.27809999999965385],0,"[""j""]",[0.27809999999965385],,,,,,,,,,,,,,,,,,,,,,,,,,,,,,,,,,,,,,,,,,,,,,,,,,,,,,,,,,,,,,
,,,,914816,001,2023-11-09_20h48.07.469,fluency,2022.2.4,Win32,260.756193,,,,,,,,,,,,,,,,,,,,,,,0,4,img/B04_00.jpg,CONTROL,Press J as soon as you see a face, ,JK,,,,,,,,,,,,,,,,,,,,,,,,,,,,,,,,5,1.2171,,,,,,,,,,,,,,0,92,92,33,1,,,,,,,,,,,,,space,0.3269,,,,,,,,,,,,,,,,,,,,,,,,,,,,,,,,,,,,,,,,,,,,,,,,,,,,,,,,,,,,
,,,,914816,001,2023-11-09_20h48.07.469,fluency,2022.2.4,Win32,260.756193,,,,,,,,,,,,,,,,,,,,,,,3,1,img/B01_03.jpg,CONTROL,Press J as soon as you see a face, ,JK,,,,,,,,,,,,,,,,,,,,,,,,,,,,,,,,,,,,,,,,,,,,,,905.6592,0,93,93,3,1,109,0,0,0,0,1,98,,,,,,,,,,,,,,,,,,,,,,,,,,,,,,,,,,,,,,,,,,,,,,,,,,,,,,,,,,,,,,,,,,,
,,,,914816,001,2023-11-09_20h48.07.469,fluency,2022.2.4,Win32,260.756193,,,,,,,,,,,,,,,,,,,,,,,,,,,,,,,,,,,,,,,,,,,,,,,,,,,,,,,,,,,,,,,,,,,,,,,,,,,,,,,,,,0,0,0,0,1,,"[""j""]",[0.20989999999949305],0,"[""j""]",[0.2097999999998592],,,,,,,,,,,,,,,,,,,,,,,,,,,,,,,,,,,,,,,,,,,,,,,,,,,,,,,,,,,,,,
,,,,914816,001,2023-11-09_20h48.07.469,fluency,2022.2.4,Win32,260.756193,,,,,,,,,,,,,,,,,,,,,,,3,1,img/B01_03.jpg,CONTROL,Press J as soon as you see a face, ,JK,,,,,,,,,,,,,,,,,,,,,,,,,,,,,,,,4,1.2107,,,,,,,,,,,,,,0,93,93,3,1,,,,,,,,,,,,,space,0.2398,,,,,,,,,,,,,,,,,,,,,,,,,,,,,,,,,,,,,,,,,,,,,,,,,,,,,,,,,,,,
,,,,914816,001,2023-11-09_20h48.07.469,fluency,2022.2.4,Win32,260.756193,,,,,,,,,,,,,,,,,,,,,,,0,7,img/B07_00.jpg,CONTROL,Press J as soon as you see a face, ,JK,,,,,,,,,,,,,,,,,,,,,,,,,,,,,,,,,,,,,,,,,,,,,,912.1362,0,94,94,66,1,109,0,0,0,0,1,98,,,,,,,,,,,,,,,,,,,,,,,,,,,,,,,,,,,,,,,,,,,,,,,,,,,,,,,,,,,,,,,,,,,
,,,,914816,001,2023-11-09_20h48.07.469,fluency,2022.2.4,Win32,260.756193,,,,,,,,,,,,,,,,,,,,,,,,,,,,,,,,,,,,,,,,,,,,,,,,,,,,,,,,,,,,,,,,,,,,,,,,,,,,,,,,,,0,0,0,0,1,,"[""j""]",[0.31369999999924403],0,"[""j""]",[0.31369999999924403],,,,,,,,,,,,,,,,,,,,,,,,,,,,,,,,,,,,,,,,,,,,,,,,,,,,,,,,,,,,,,
,,,,914816,001,2023-11-09_20h48.07.469,fluency,2022.2.4,Win32,260.756193,,,,,,,,,,,,,,,,,,,,,,,0,7,img/B07_00.jpg,CONTROL,Press J as soon as you see a face, ,JK,,,,,,,,,,,,,,,,,,,,,,,,,,,,,,,,1,0.9941,,,,,,,,,,,,,,0,94,94,66,1,,,,,,,,,,,,,space,0.3154,,,,,,,,,,,,,,,,,,,,,,,,,,,,,,,,,,,,,,,,,,,,,,,,,,,,,,,,,,,,
,,,,914816,001,2023-11-09_20h48.07.469,fluency,2022.2.4,Win32,260.756193,,,,,,,,,,,,,,,,,,,,,,,5,6,img/B06_05.jpg,CONTROL,Press J as soon as you see a face, ,JK,,,,,,,,,,,,,,,,,,,,,,,,,,,,,,,,,,,,,,,,,,,,,,917.4752,0,95,95,60,1,109,0,0,0,0,1,98,,,,,,,,,,,,,,,,,,,,,,,,,,,,,,,,,,,,,,,,,,,,,,,,,,,,,,,,,,,,,,,,,,,
,,,,914816,001,2023-11-09_20h48.07.469,fluency,2022.2.4,Win32,260.756193,,,,,,,,,,,,,,,,,,,,,,,,,,,,,,,,,,,,,,,,,,,,,,,,,,,,,,,,,,,,,,,,,,,,,,,,,,,,,,,,,,0,0,0,0,1,,"[""j""]",[0.5087999999997237],0,"[""j""]",[0.5087000000002035],,,,,,,,,,,,,,,,,,,,,,,,,,,,,,,,,,,,,,,,,,,,,,,,,,,,,,,,,,,,,,
,,,,914816,001,2023-11-09_20h48.07.469,fluency,2022.2.4,Win32,260.756193,,,,,,,,,,,,,,,,,,,,,,,5,6,img/B06_05.jpg,CONTROL,Press J as soon as you see a face, ,JK,,,,,,,,,,,,,,,,,,,,,,,,,,,,,,,,2,0.3534,,,,,,,,,,,,,,0,95,95,60,1,,,,,,,,,,,,,space,0.6561,,,,,,,,,,,,,,,,,,,,,,,,,,,,,,,,,,,,,,,,,,,,,,,,,,,,,,,,,,,,
,,,,914816,001,2023-11-09_20h48.07.469,fluency,2022.2.4,Win32,260.756193,,,,,,,,,,,,,,,,,,,,,,,9,1,img/B01_09.jpg,CONTROL,Press J as soon as you see a face, ,JK,,,,,,,,,,,,,,,,,,,,,,,,,,,,,,,,,,,,,,,,,,,,,,923.5094,0,96,96,9,1,109,0,0,0,0,1,98,,,,,,,,,,,,,,,,,,,,,,,,,,,,,,,,,,,,,,,,,,,,,,,,,,,,,,,,,,,,,,,,,,,
,,,,914816,001,2023-11-09_20h48.07.469,fluency,2022.2.4,Win32,260.756193,,,,,,,,,,,,,,,,,,,,,,,,,,,,,,,,,,,,,,,,,,,,,,,,,,,,,,,,,,,,,,,,,,,,,,,,,,,,,,,,,,0,0,0,0,1,,"[""j""]",[0.2562999999998965],0,"[""j""]",[0.2562999999998965],,,,,,,,,,,,,,,,,,,,,,,,,,,,,,,,,,,,,,,,,,,,,,,,,,,,,,,,,,,,,,
,,,,914816,001,2023-11-09_20h48.07.469,fluency,2022.2.4,Win32,260.756193,,,,,,,,,,,,,,,,,,,,,,,9,1,img/B01_09.jpg,CONTROL,Press J as soon as you see a face, ,JK,,,,,,,,,,,,,,,,,,,,,,,,,,,,,,,,2,0.4493,,,,,,,,,,,,,,0,96,96,9,1,,,,,,,,,,,,,space,66.6025,,,,,,,,,,,,,,,,,,,,,,,,,,,,,,,,,,,,,,,,,,,,,,,,,,,,,,,,,,,,
,,,,914816,001,2023-11-09_20h48.07.469,fluency,2022.2.4,Win32,260.756193,,,,,,,,,,,,,,,,,,,,,,,7,1,img/B01_07.jpg,CONTROL,Press J as soon as you see a face, ,JK,,,,,,,,,,,,,,,,,,,,,,,,,,,,,,,,,,,,,,,,,,,,,,995.6023,0,97,97,7,1,109,0,0,0,0,1,98,,,,,,,,,,,,,,,,,,,,,,,,,,,,,,,,,,,,,,,,,,,,,,,,,,,,,,,,,,,,,,,,,,,
,,,,914816,001,2023-11-09_20h48.07.469,fluency,2022.2.4,Win32,260.756193,,,,,,,,,,,,,,,,,,,,,,,,,,,,,,,,,,,,,,,,,,,,,,,,,,,,,,,,,,,,,,,,,,,,,,,,,,,,,,,,,,0,0,0,0,1,,"[""j""]",[0.4353999999993903],0,"[""j""]",[0.4353999999993903],,,,,,,,,,,,,,,,,,,,,,,,,,,,,,,,,,,,,,,,,,,,,,,,,,,,,,,,,,,,,,
,,,,914816,001,2023-11-09_20h48.07.469,fluency,2022.2.4,Win32,260.756193,,,,,,,,,,,,,,,,,,,,,,,7,1,img/B01_07.jpg,CONTROL,Press J as soon as you see a face, ,JK,,,,,,,,,,,,,,,,,,,,,,,,,,,,,,,,4,0.7536,,,,,,,,,,,,,,0,97,97,7,1,,,,,,,,,,,,,space,0.3154,,,,,,,,,,,,,,,,,,,,,,,,,,,,,,,,,,,,,,,,,,,,,,,,,,,,,,,,,,,,
,,,,914816,001,2023-11-09_20h48.07.469,fluency,2022.2.4,Win32,260.756193,,,,,,,,,,,,,,,,,,,,,,,0,8,img/B08_00.jpg,CONTROL,Press J as soon as you see a face, ,JK,,,,,,,,,,,,,,,,,,,,,,,,,,,,,,,,,,,,,,,,,,,,,,1001.7137,0,98,98,77,1,109,0,0,0,0,1,98,,,,,,,,,,,,,,,,,,,,,,,,,,,,,,,,,,,,,,,,,,,,,,,,,,,,,,,,,,,,,,,,,,,
,,,,914816,001,2023-11-09_20h48.07.469,fluency,2022.2.4,Win32,260.756193,,,,,,,,,,,,,,,,,,,,,,,,,,,,,,,,,,,,,,,,,,,,,,,,,,,,,,,,,,,,,,,,,,,,,,,,,,,,,,,,,,0,0,0,0,1,,"[""j""]",[0.22199999999998],0,"[""j""]",[0.22189999999955035],,,,,,,,,,,,,,,,,,,,,,,,,,,,,,,,,,,,,,,,,,,,,,,,,,,,,,,,,,,,,,
,,,,914816,001,2023-11-09_20h48.07.469,fluency,2022.2.4,Win32,260.756193,,,,,,,,,,,,,,,,,,,,,,,0,8,img/B08_00.jpg,CONTROL,Press J as soon as you see a face, ,JK,,,,,,,,,,,,,,,,,,,,,,,,,,,,,,,,1,0.2576,,,,,,,,,,,,,,0,98,98,77,1,,,,,,,,,,,,,space,0.3614,,,,,,,,,,,,,,,,,,,,,,,,,,,,,,,,,,,,,,,,,,,,,,,,,,,,,,,,,,,,
,,,,914816,001,2023-11-09_20h48.07.469,fluency,2022.2.4,Win32,260.756193,,,,,,,,,,,,,,,,,,,,,,,1,9,img/B09_01.jpg,CONTROL,Press J as soon as you see a face, ,JK,,,,,,,,,,,,,,,,,,,,,,,,,,,,,,,,,,,,,,,,,,,,,,1006.3563,0,99,99,89,1,109,0,0,0,0,1,98,,,,,,,,,,,,,,,,,,,,,,,,,,,,,,,,,,,,,,,,,,,,,,,,,,,,,,,,,,,,,,,,,,,
,,,,914816,001,2023-11-09_20h48.07.469,fluency,2022.2.4,Win32,260.756193,,,,,,,,,,,,,,,,,,,,,,,,,,,,,,,,,,,,,,,,,,,,,,,,,,,,,,,,,,,,,,,,,,,,,,,,,,,,,,,,,,0,0,0,0,1,,"[""j""]",[0.3133999999995467],0,"[""j""]",[0.31340000000022883],,,,,,,,,,,,,,,,,,,,,,,,,,,,,,,,,,,,,,,,,,,,,,,,,,,,,,,,,,,,,,
,,,,914816,001,2023-11-09_20h48.07.469,fluency,2022.2.4,Win32,260.756193,,,,,,,,,,,,,,,,,,,,,,,1,9,img/B09_01.jpg,CONTROL,Press J as soon as you see a face, ,JK,,,,,,,,,,,,,,,,,,,,,,,,,,,,,,,,2,0.6026,,,,,,,,,,,,,,0,99,99,89,1,,,,,,,,,,,,,space,0.1628,,,,,,,,,,,,,,,,,,,,,,,,,,,,,,,,,,,,,,,,,,,,,,,,,,,,,,,,,,,,
,,,,914816,001,2023-11-09_20h48.07.469,fluency,2022.2.4,Win32,260.756193,,,,,,,,,,,,,,,,,,,,,,,7,2,img/B02_07.jpg,CONTROL,Press J as soon as you see a face, ,JK,,,,,,,,,,,,,,,,,,,,,,,,,,,,,,,,,,,,,,,,,,,,,,1011.1525,0,100,100,18,1,109,0,0,0,0,1,98,,,,,,,,,,,,,,,,,,,,,,,,,,,,,,,,,,,,,,,,,,,,,,,,,,,,,,,,,,,,,,,,,,,
,,,,914816,001,2023-11-09_20h48.07.469,fluency,2022.2.4,Win32,260.756193,,,,,,,,,,,,,,,,,,,,,,,,,,,,,,,,,,,,,,,,,,,,,,,,,,,,,,,,,,,,,,,,,,,,,,,,,,,,,,,,,,0,0,0,0,1,,"[""j""]",[0.3580999999996948],0,"[""j""]",[0.3580000000001746],,,,,,,,,,,,,,,,,,,,,,,,,,,,,,,,,,,,,,,,,,,,,,,,,,,,,,,,,,,,,,
,,,,914816,001,2023-11-09_20h48.07.469,fluency,2022.2.4,Win32,260.756193,,,,,,,,,,,,,,,,,,,,,,,7,2,img/B02_07.jpg,CONTROL,Press J as soon as you see a face, ,JK,,,,,,,,,,,,,,,,,,,,,,,,,,,,,,,,1,0.3629,,,,,,,,,,,,,,0,100,100,18,1,,,,,,,,,,,,,space,0.2157,,,,,,,,,,,,,,,,,,,,,,,,,,,,,,,,,,,,,,,,,,,,,,,,,,,,,,,,,,,,
,,,,914816,001,2023-11-09_20h48.07.469,fluency,2022.2.4,Win32,260.756193,,,,,,,,,,,,,,,,,,,,,,,5,7,img/B07_05.jpg,CONTROL,Press J as soon as you see a face, ,JK,,,,,,,,,,,,,,,,,,,,,,,,,,,,,,,,,,,,,,,,,,,,,,1016.76,0,101,101,71,1,109,0,0,0,0,1,98,,,,,,,,,,,,,,,,,,,,,,,,,,,,,,,,,,,,,,,,,,,,,,,,,,,,,,,,,,,,,,,,,,,
,,,,914816,001,2023-11-09_20h48.07.469,fluency,2022.2.4,Win32,260.756193,,,,,,,,,,,,,,,,,,,,,,,,,,,,,,,,,,,,,,,,,,,,,,,,,,,,,,,,,,,,,,,,,,,,,,,,,,,,,,,,,,0,0,0,0,1,,"[""j""]",[0.826799999999821],0,"[""space"",""j""]","[0.5625,0.8267000000003009]",,,,,,,,,,,,,,,,,,,,,,,,,,,,,,,,,,,,,,,,,,,,,,,,,,,,,,,,,,,,,,
,,,,914816,001,2023-11-09_20h48.07.469,fluency,2022.2.4,Win32,260.756193,,,,,,,,,,,,,,,,,,,,,,,5,7,img/B07_05.jpg,CONTROL,Press J as soon as you see a face, ,JK,,,,,,,,,,,,,,,,,,,,,,,,,,,,,,,,2,0.3681,,,,,,,,,,,,,,0,101,101,71,1,,,,,,,,,,,,,space,0.1928,,,,,,,,,,,,,,,,,,,,,,,,,,,,,,,,,,,,,,,,,,,,,,,,,,,,,,,,,,,,
