idTextbox.text,welcomeDone.numClicks,welcomeDone.timesOn,welcomeDone.timesOff,participant,session,date,expName,psychopyVersion,OS,frameRate,consent_advance.keys,consent_advance.rt,consent_advance_2.keys,consent_advance_2.rt,consentClick.x,consentClick.y,consentClick.leftButton,consentClick.midButton,consentClick.rightButton,consentClick.time,consentClick.clicked_name,instr_advance_3.keys,instr_advance_3.rt,spec_instr_adv.keys,spec_instr_adv.rt,spec_instr_adv2.keys,spec_instr_adv2.rt,instrLoop.thisRepN,instrLoop.thisTrialN,instrLoop.thisN,instrLoop.thisIndex,instrLoop.ran,steps,fams,face_file,cond,instr,term,key_map,attnKeyResp1.keys,attnKeyResp1.rt,q1.thisRepN,q1.thisTrialN,q1.thisN,q1.thisIndex,q1.ran,attnKeyResp2.keys,attnKeyResp2.rt,q2.thisRepN,q2.thisTrialN,q2.thisN,q2.thisIndex,q2.ran,attnKeyResp3.keys,attnKeyResp3.rt,q3.thisRepN,q3.thisTrialN,q3.thisN,q3.thisIndex,q3.ran,practiceStart.keys,practiceStart.rt,practiceResp.keys,practiceResp.rt,timesRedone,practiceRepeat.thisRepN,practiceRepeat.thisTrialN,practiceRepeat.thisN,practiceRepeat.thisIndex,practiceRepeat.ran,attrRating.keys,attrRating.rt,practiceTrial.thisRepN,practiceTrial.thisTrialN,practiceTrial.thisN,practiceTrial.thisIndex,practiceTrial.ran,key_resp_3.keys,key_resp_3.rt,attnChecker.thisRepN,attnChecker.thisTrialN,attnChecker.thisN,attnChecker.thisIndex,attnChecker.ran,faceOnsetTime,trials.thisRepN,trials.thisTrialN,trials.thisN,trials.thisIndex,trials.ran,trials.order,repeat_loop.thisRepN,repeat_loop.thisTrialN,repeat_loop.thisN,repeat_loop.thisIndex,repeat_loop.ran,repeat_loop.order,catResp.keys,catResp.rt,globalTimesRedone,catAllKeys.keys,catAllKeys.rt,contResp.keys,contResp.rt,redo_keypress.keys,redo_keypress.rt,redo_feedback_loop.thisRepN,redo_feedback_loop.thisTrialN,redo_feedback_loop.thisN,redo_feedback_loop.thisIndex,redo_feedback_loop.ran,contResp_2.keys,contResp_2.rt,respQ1.response,respQ1.rt,respQ2.response,respQ2.rt,respQ3.response,respQ3.rt,respQ4.response,respQ4.rt,surveyContinue1.numClicks,surveyContinue1.timesOn,surveyContinue1.timesOff,respQ5.response,respQ5.rt,respQ6.response,respQ6.rt,respQ7.response,respQ7.rt,respQ8.response,respQ8.rt,surveyContinue2.numClicks,surveyContinue2.timesOn,surveyContinue2.timesOff,respQ9.response,respQ9.rt,respQ10.response,respQ10.rt,respQ11.response,respQ11.rt,respQ12.response,respQ12.rt,surveyContinue3.numClicks,surveyContinue3.timesOn,surveyContinue3.timesOff,respQ13.response,respQ13.rt,respQ14.response,respQ14.rt,respQ15.response,respQ15.rt,surveyContinue4.numClicks,surveyContinue4.timesOn,surveyContinue4.timesOff,respAge.response,respAge.rt,genderResp1.response,genderResp1.rt,genderResp2.text,demogexitClick.numClicks,demogexitClick.timesOn,demogexitClick.timesOff,textbox.text,openAnswerClick.numClicks,openAnswerClick.timesOn,openAnswerClick.timesOff,debriefEnd.keys,debriefEnd.rt,exitKey.keys,exitKey.rt
6509afd5de37875b4dbed467,1,[10.782299999952318],[10.782299999952318],421791,001,2023-11-09_22h16.29.873,fluency,2022.2.4,Win32,59.97001499,,,,,,,,,,,,,,,,,,,,,,,,,,,,,,,,,,,,,,,,,,,,,,,,,,,,,,,,,,,,,,,,,,,,,,,,,,,,,,,,,,,,,,,,,,,,,,,,,,,,,,,,,,,,,,,,,,,,,,,,,,,,,,,,,,,,,,,,,,,,,,,,,,,,,,,,,,,,,,,,,
,,,,421791,001,2023-11-09_22h16.29.873,fluency,2022.2.4,Win32,59.97001499,space,4.603,,,,,,,,,,,,,,,,,,,,,,,,,,,,,,,,,,,,,,,,,,,,,,,,,,,,,,,,,,,,,,,,,,,,,,,,,,,,,,,,,,,,,,,,,,,,,,,,,,,,,,,,,,,,,,,,,,,,,,,,,,,,,,,,,,,,,,,,,,,,,,,,,,,,,,,,,,,,,,,
,,,,421791,001,2023-11-09_22h16.29.873,fluency,2022.2.4,Win32,59.97001499,,,space,2.9299,,,,,,,,,,,,,,,,,,,,,,,,,,,,,,,,,,,,,,,,,,,,,,,,,,,,,,,,,,,,,,,,,,,,,,,,,,,,,,,,,,,,,,,,,,,,,,,,,,,,,,,,,,,,,,,,,,,,,,,,,,,,,,,,,,,,,,,,,,,,,,,,,,,,,,,,,,,,,
,,,,421791,001,2023-11-09_22h16.29.873,fluency,2022.2.4,Win32,59.97001499,,,,,0.277820056,-0.354499428,1,0,0,5.6395,iAgree,,,,,,,,,,,,,,,,,,,,,,,,,,,,,,,,,,,,,,,,,,,,,,,,,,,,,,,,,,,,,,,,,,,,,,,,,,,,,,,,,,,,,,,,,,,,,,,,,,,,,,,,,,,,,,,,,,,,,,,,,,,,,,,,,,,,,,,,,,,,,,,,,,,,,,
,,,,421791,001,2023-11-09_22h16.29.873,fluency,2022.2.4,Win32,59.97001499,,,,,,,,,,,,space,32.8453,,,,,,,,,,,,,,,,,,,,,,,,,,,,,,,,,,,,,,,,,,,,,,,,,,,,,,,,,,,,,,,,,,,,,,,,,,,,,,,,,,,,,,,,,,,,,,,,,,,,,,,,,,,,,,,,,,,,,,,,,,,,,,,,,,,,,,,,,,,,,,,,,,,,
,,,,421791,001,2023-11-09_22h16.29.873,fluency,2022.2.4,Win32,59.97001499,,,,,,,,,,,,,,space,39.9582,space,6.672,0,0,0,38,1,5,4,img/B04_05.jpg,BLEND,Press J if the face is a NON-BLEND and K if the face is a BLEND,A blend is a computer-generated image created by combining together multiple photos of real human faces. A non-blend is a regular photo of a human face.,KJ,,,,,,,,,,,,,,,,,,,,,,,,,,,,,,,,,,,,,,,,,,,,,,,,,,,,,,,,,,,,,,,,,,,,,,,,,,,,,,,,,,,,,,,,,,,,,,,,,,,,,,,,,,,,,,,,,,,,,,,,,,,,,,,,,,,,
,,,,421791,001,2023-11-09_22h16.29.873,fluency,2022.2.4,Win32,59.97001499,,,,,,,,,,,,,,,,,,,,,,,,,,,,,,c,12.6917,0,0,0,0,1,,,,,,,,,,,,,,,,,,,,,,,,,,,,,,,,,,,,,,,,,,,,,,,,,,,,,,,,,,,,,,,,,,,,,,,,,,,,,,,,,,,,,,,,,,,,,,,,,,,,,,,,,,,,,,,,,,,,,,,,,,,,,
,,,,421791,001,2023-11-09_22h16.29.873,fluency,2022.2.4,Win32,59.97001499,,,,,,,,,,,,,,,,,,,,,,,,,,,,,,,,,,,,,a,7.3048,0,0,0,0,1,,,,,,,,,,,,,,,,,,,,,,,,,,,,,,,,,,,,,,,,,,,,,,,,,,,,,,,,,,,,,,,,,,,,,,,,,,,,,,,,,,,,,,,,,,,,,,,,,,,,,,,,,,,,,,,,,,,,,,
,,,,421791,001,2023-11-09_22h16.29.873,fluency,2022.2.4,Win32,59.97001499,,,,,,,,,,,,,,,,,,,,,,,,,,,,,,,,,,,,,,,,,,,,c,8.5318,0,0,0,0,1,,,,,,,,,,,,,,,,,,,,,,,,,,,,,,,,,,,,,,,,,,,,,,,,,,,,,,,,,,,,,,,,,,,,,,,,,,,,,,,,,,,,,,,,,,,,,,,,,,,,,,,,,,,,,,,
,,,,421791,001,2023-11-09_22h16.29.873,fluency,2022.2.4,Win32,59.97001499,,,,,,,,,,,,,,,,,,,,,,,,,,,,,,,,,,,,,,,,,,,,,,,,,,,space,1.3598,k,1.5818,0,0,0,0,0,1,,,,,,,,,,,,,,,,,,,,,,,,,,,,,,,,,,,,,,,,,,,,,,,,,,,,,,,,,,,,,,,,,,,,,,,,,,,,,,,,,,,,,,,,,,,,,,,,,,,,,
,,,,421791,001,2023-11-09_22h16.29.873,fluency,2022.2.4,Win32,59.97001499,,,,,,,,,,,,,,,,,,,,,,,,,,,,,,,,,,,,,,,,,,,,,,,,,,,,,,,,,,,,,4,2.0783,0,0,0,0,1,,,,,,,,,,,,,,,,,,,,,,,,,,,,,,,,,,,,,,,,,,,,,,,,,,,,,,,,,,,,,,,,,,,,,,,,,,,,,,,,,,,,,,,,,,,,,,
,,,,421791,001,2023-11-09_22h16.29.873,fluency,2022.2.4,Win32,59.97001499,,,,,,,,,,,,,,,,,,,,,,,,,,,,,,,,,,,,,,,,,,,,,,,,,,,,,,,,,,,,,,,,,,,,space,2.1151,0,0,0,0,1,,,,,,,,,,,,,,,,,,,,,,,,,,,,,,,,,,,,,,,,,,,,,,,,,,,,,,,,,,,,,,,,,,,,,,,,,,,,,,,,,,,,,,,
,,,,421791,001,2023-11-09_22h16.29.873,fluency,2022.2.4,Win32,59.97001499,,,,,,,,,,,,,,,,,,,,,,,5,8,img/B08_05.jpg,BLEND,Press J if the face is a NON-BLEND and K if the face is a BLEND,A blend is a computer-generated image created by combining together multiple photos of real human faces. A non-blend is a regular photo of a human face.,KJ,,,,,,,,,,,,,,,,,,,,,,,,,,,,,,,,,,,,,,,,,,,,,,161.2004,0,0,0,82,1,109,0,0,0,0,1,98,,,,,,,,,,,,,,,,,,,,,,,,,,,,,,,,,,,,,,,,,,,,,,,,,,,,,,,,,,,,,,,,,,,,,,,,,,
,,,,421791,001,2023-11-09_22h16.29.873,fluency,2022.2.4,Win32,59.97001499,,,,,,,,,,,,,,,,,,,,,,,,,,,,,,,,,,,,,,,,,,,,,,,,,,,,,,,,,,,,,,,,,,,,,,,,,,,,,,,,,,0,0,0,0,1,,"[""k""]",[2.224399999856928],0,"[""k""]",[2.224399999856928],,,,,,,,,,,,,,,,,,,,,,,,,,,,,,,,,,,,,,,,,,,,,,,,,,,,,,,,,,,,,,,,,,,,,
,,,,421791,001,2023-11-09_22h16.29.873,fluency,2022.2.4,Win32,59.97001499,,,,,,,,,,,,,,,,,,,,,,,5,8,img/B08_05.jpg,BLEND,Press J if the face is a NON-BLEND and K if the face is a BLEND,A blend is a computer-generated image created by combining together multiple photos of real human faces. A non-blend is a regular photo of a human face.,KJ,,,,,,,,,,,,,,,,,,,,,,,,,,,,,,,,2,1.3263,,,,,,,,,,,,,,0,0,0,82,1,,,,,,,,,,,,,space,3.5094,,,,,,,,,,,,,,,,,,,,,,,,,,,,,,,,,,,,,,,,,,,,,,,,,,,,,,,,,,,,,,,,,,,
,,,,421791,001,2023-11-09_22h16.29.873,fluency,2022.2.4,Win32,59.97001499,,,,,,,,,,,,,,,,,,,,,,,5,1,img/B01_05.jpg,BLEND,Press J if the face is a NON-BLEND and K if the face is a BLEND,A blend is a computer-generated image created by combining together multiple photos of real human faces. A non-blend is a regular photo of a human face.,KJ,,,,,,,,,,,,,,,,,,,,,,,,,,,,,,,,,,,,,,,,,,,,,,171.1838,0,1,1,5,1,109,0,0,0,0,1,98,,,,,,,,,,,,,,,,,,,,,,,,,,,,,,,,,,,,,,,,,,,,,,,,,,,,,,,,,,,,,,,,,,,,,,,,,,
,,,,421791,001,2023-11-09_22h16.29.873,fluency,2022.2.4,Win32,59.97001499,,,,,,,,,,,,,,,,,,,,,,,,,,,,,,,,,,,,,,,,,,,,,,,,,,,,,,,,,,,,,,,,,,,,,,,,,,,,,,,,,,0,0,0,0,1,,,,0,,,,,,,,,,,,,,,,,,,,,,,,,,,,,,,,,,,,,,,,,,,,,,,,,,,,,,,,,,,,,,,,,,,,,,,
,,,,421791,001,2023-11-09_22h16.29.873,fluency,2022.2.4,Win32,59.97001499,,,,,,,,,,,,,,,,,,,,,,,5,1,img/B01_05.jpg,BLEND,Press J if the face is a NON-BLEND and K if the face is a BLEND,A blend is a computer-generated image created by combining together multiple photos of real human faces. A non-blend is a regular photo of a human face.,KJ,,,,,,,,,,,,,,,,,,,,,,,,,,,,,,,,1,1.373,,,,,,,,,,,,,,0,1,1,5,1,,,,,,,,,,,,,space,0.6279,,,,,,,,,,,,,,,,,,,,,,,,,,,,,,,,,,,,,,,,,,,,,,,,,,,,,,,,,,,,,,,,,,,
,,,,421791,001,2023-11-09_22h16.29.873,fluency,2022.2.4,Win32,59.97001499,,,,,,,,,,,,,,,,,,,,,,,2,4,img/B04_02.jpg,BLEND,Press J if the face is a NON-BLEND and K if the face is a BLEND,A blend is a computer-generated image created by combining together multiple photos of real human faces. A non-blend is a regular photo of a human face.,KJ,,,,,,,,,,,,,,,,,,,,,,,,,,,,,,,,,,,,,,,,,,,,,,178.2349,0,2,2,35,1,109,0,0,0,0,1,98,,,,,,,,,,,,,,,,,,,,,,,,,,,,,,,,,,,,,,,,,,,,,,,,,,,,,,,,,,,,,,,,,,,,,,,,,,
,,,,421791,001,2023-11-09_22h16.29.873,fluency,2022.2.4,Win32,59.97001499,,,,,,,,,,,,,,,,,,,,,,,,,,,,,,,,,,,,,,,,,,,,,,,,,,,,,,,,,,,,,,,,,,,,,,,,,,,,,,,,,,0,0,0,0,1,,"[""k""]",[1.6915999999046392],0,"[""k"",""k""]","[-4.0885999999046305,1.6916000001430405]",,,,,,,,,,,,,,,,,,,,,,,,,,,,,,,,,,,,,,,,,,,,,,,,,,,,,,,,,,,,,,,,,,,,,
,,,,421791,001,2023-11-09_22h16.29.873,fluency,2022.2.4,Win32,59.97001499,,,,,,,,,,,,,,,,,,,,,,,2,4,img/B04_02.jpg,BLEND,Press J if the face is a NON-BLEND and K if the face is a BLEND,A blend is a computer-generated image created by combining together multiple photos of real human faces. A non-blend is a regular photo of a human face.,KJ,,,,,,,,,,,,,,,,,,,,,,,,,,,,,,,,3,1.2205,,,,,,,,,,,,,,0,2,2,35,1,,,,,,,,,,,,,space,0.4348,,,,,,,,,,,,,,,,,,,,,,,,,,,,,,,,,,,,,,,,,,,,,,,,,,,,,,,,,,,,,,,,,,,
,,,,421791,001,2023-11-09_22h16.29.873,fluency,2022.2.4,Win32,59.97001499,,,,,,,,,,,,,,,,,,,,,,,3,6,img/B06_03.jpg,BLEND,Press J if the face is a NON-BLEND and K if the face is a BLEND,A blend is a computer-generated image created by combining together multiple photos of real human faces. A non-blend is a regular photo of a human face.,KJ,,,,,,,,,,,,,,,,,,,,,,,,,,,,,,,,,,,,,,,,,,,,,,184.9685,0,3,3,58,1,109,0,0,0,0,1,98,,,,,,,,,,,,,,,,,,,,,,,,,,,,,,,,,,,,,,,,,,,,,,,,,,,,,,,,,,,,,,,,,,,,,,,,,,
,,,,421791,001,2023-11-09_22h16.29.873,fluency,2022.2.4,Win32,59.97001499,,,,,,,,,,,,,,,,,,,,,,,,,,,,,,,,,,,,,,,,,,,,,,,,,,,,,,,,,,,,,,,,,,,,,,,,,,,,,,,,,,0,0,0,0,1,,"[""j""]",[1.377999999999986],0,"[""j""]",[1.378100000143064],,,,,,,,,,,,,,,,,,,,,,,,,,,,,,,,,,,,,,,,,,,,,,,,,,,,,,,,,,,,,,,,,,,,,
,,,,421791,001,2023-11-09_22h16.29.873,fluency,2022.2.4,Win32,59.97001499,,,,,,,,,,,,,,,,,,,,,,,3,6,img/B06_03.jpg,BLEND,Press J if the face is a NON-BLEND and K if the face is a BLEND,A blend is a computer-generated image created by combining together multiple photos of real human faces. A non-blend is a regular photo of a human face.,KJ,,,,,,,,,,,,,,,,,,,,,,,,,,,,,,,,4,1.4512,,,,,,,,,,,,,,0,3,3,58,1,,,,,,,,,,,,,space,0.4477,,,,,,,,,,,,,,,,,,,,,,,,,,,,,,,,,,,,,,,,,,,,,,,,,,,,,,,,,,,,,,,,,,,
,,,,421791,001,2023-11-09_22h16.29.873,fluency,2022.2.4,Win32,59.97001499,,,,,,,,,,,,,,,,,,,,,,,3,9,img/B09_03.jpg,BLEND,Press J if the face is a NON-BLEND and K if the face is a BLEND,A blend is a computer-generated image created by combining together multiple photos of real human faces. A non-blend is a regular photo of a human face.,KJ,,,,,,,,,,,,,,,,,,,,,,,,,,,,,,,,,,,,,,,,,,,,,,190.9354,0,4,4,91,1,109,0,0,0,0,1,98,,,,,,,,,,,,,,,,,,,,,,,,,,,,,,,,,,,,,,,,,,,,,,,,,,,,,,,,,,,,,,,,,,,,,,,,,,
,,,,421791,001,2023-11-09_22h16.29.873,fluency,2022.2.4,Win32,59.97001499,,,,,,,,,,,,,,,,,,,,,,,,,,,,,,,,,,,,,,,,,,,,,,,,,,,,,,,,,,,,,,,,,,,,,,,,,,,,,,,,,,0,0,0,0,1,,"[""j""]",[1.9364999999999952],0,"[""j""]",[1.9364999999999952],,,,,,,,,,,,,,,,,,,,,,,,,,,,,,,,,,,,,,,,,,,,,,,,,,,,,,,,,,,,,,,,,,,,,
,,,,421791,001,2023-11-09_22h16.29.873,fluency,2022.2.4,Win32,59.97001499,,,,,,,,,,,,,,,,,,,,,,,3,9,img/B09_03.jpg,BLEND,Press J if the face is a NON-BLEND and K if the face is a BLEND,A blend is a computer-generated image created by combining together multiple photos of real human faces. A non-blend is a regular photo of a human face.,KJ,,,,,,,,,,,,,,,,,,,,,,,,,,,,,,,,1,0.7571,,,,,,,,,,,,,,0,4,4,91,1,,,,,,,,,,,,,space,0.4027,,,,,,,,,,,,,,,,,,,,,,,,,,,,,,,,,,,,,,,,,,,,,,,,,,,,,,,,,,,,,,,,,,,
,,,,421791,001,2023-11-09_22h16.29.873,fluency,2022.2.4,Win32,59.97001499,,,,,,,,,,,,,,,,,,,,,,,7,2,img/B02_07.jpg,BLEND,Press J if the face is a NON-BLEND and K if the face is a BLEND,A blend is a computer-generated image created by combining together multiple photos of real human faces. A non-blend is a regular photo of a human face.,KJ,,,,,,,,,,,,,,,,,,,,,,,,,,,,,,,,,,,,,,,,,,,,,,197.1521,0,5,5,18,1,109,0,0,0,0,1,98,,,,,,,,,,,,,,,,,,,,,,,,,,,,,,,,,,,,,,,,,,,,,,,,,,,,,,,,,,,,,,,,,,,,,,,,,,
,,,,421791,001,2023-11-09_22h16.29.873,fluency,2022.2.4,Win32,59.97001499,,,,,,,,,,,,,,,,,,,,,,,,,,,,,,,,,,,,,,,,,,,,,,,,,,,,,,,,,,,,,,,,,,,,,,,,,,,,,,,,,,0,0,0,0,1,,"[""j""]",[0.9184999999999945],0,"[""j""]",[0.9184000000953745],,,,,,,,,,,,,,,,,,,,,,,,,,,,,,,,,,,,,,,,,,,,,,,,,,,,,,,,,,,,,,,,,,,,,
,,,,421791,001,2023-11-09_22h16.29.873,fluency,2022.2.4,Win32,59.97001499,,,,,,,,,,,,,,,,,,,,,,,7,2,img/B02_07.jpg,BLEND,Press J if the face is a NON-BLEND and K if the face is a BLEND,A blend is a computer-generated image created by combining together multiple photos of real human faces. A non-blend is a regular photo of a human face.,KJ,,,,,,,,,,,,,,,,,,,,,,,,,,,,,,,,2,0.4071,,,,,,,,,,,,,,0,5,5,18,1,,,,,,,,,,,,,space,0.3386,,,,,,,,,,,,,,,,,,,,,,,,,,,,,,,,,,,,,,,,,,,,,,,,,,,,,,,,,,,,,,,,,,,
,,,,421791,001,2023-11-09_22h16.29.873,fluency,2022.2.4,Win32,59.97001499,,,,,,,,,,,,,,,,,,,,,,,5,10,img/B10_05.jpg,BLEND,Press J if the face is a NON-BLEND and K if the face is a BLEND,A blend is a computer-generated image created by combining together multiple photos of real human faces. A non-blend is a regular photo of a human face.,KJ,,,,,,,,,,,,,,,,,,,,,,,,,,,,,,,,,,,,,,,,,,,,,,202.9852,0,6,6,104,1,109,0,0,0,0,1,98,,,,,,,,,,,,,,,,,,,,,,,,,,,,,,,,,,,,,,,,,,,,,,,,,,,,,,,,,,,,,,,,,,,,,,,,,,
,,,,421791,001,2023-11-09_22h16.29.873,fluency,2022.2.4,Win32,59.97001499,,,,,,,,,,,,,,,,,,,,,,,,,,,,,,,,,,,,,,,,,,,,,,,,,,,,,,,,,,,,,,,,,,,,,,,,,,,,,,,,,,,,,,,,,,1,,,,,space,19.1117,0,0,0,0,1,,,,,,,,,,,,,,,,,,,,,,,,,,,,,,,,,,,,,,,,,,,,,,,,,,,,,,,,,,,,
,,,,421791,001,2023-11-09_22h16.29.873,fluency,2022.2.4,Win32,59.97001499,,,,,,,,,,,,,,,,,,,,,,,,,,,,,,,,,,,,,,,,,,,,,,,,,,,,,,,,,,,,,,,,,,,,,,,,,,,,,,,,,,0,0,0,0,1,,,,,,,,,,,,,,,,,,,,,,,,,,,,,,,,,,,,,,,,,,,,,,,,,,,,,,,,,,,,,,,,,,,,,,,,,,,
,,,,421791,001,2023-11-09_22h16.29.873,fluency,2022.2.4,Win32,59.97001499,,,,,,,,,,,,,,,,,,,,,,,5,10,img/B10_05.jpg,BLEND,Press J if the face is a NON-BLEND and K if the face is a BLEND,A blend is a computer-generated image created by combining together multiple photos of real human faces. A non-blend is a regular photo of a human face.,KJ,,,,,,,,,,,,,,,,,,,,,,,,,,,,,,,,,,,,,,,,,,,,,,226.1871,0,6,6,104,1,109,1,0,1,0,1,98,,,,,,,,,,,,,,,,,,,,,,,,,,,,,,,,,,,,,,,,,,,,,,,,,,,,,,,,,,,,,,,,,,,,,,,,,,
,,,,421791,001,2023-11-09_22h16.29.873,fluency,2022.2.4,Win32,59.97001499,,,,,,,,,,,,,,,,,,,,,,,,,,,,,,,,,,,,,,,,,,,,,,,,,,,,,,,,,,,,,,,,,,,,,,,,,,,,,,,,,,1,0,1,0,1,,"[""j""]",[1.5002000000476698],1,"[""j""]",[1.5002000000476983],,,,,,,,,,,,,,,,,,,,,,,,,,,,,,,,,,,,,,,,,,,,,,,,,,,,,,,,,,,,,,,,,,,,,
,,,,421791,001,2023-11-09_22h16.29.873,fluency,2022.2.4,Win32,59.97001499,,,,,,,,,,,,,,,,,,,,,,,5,10,img/B10_05.jpg,BLEND,Press J if the face is a NON-BLEND and K if the face is a BLEND,A blend is a computer-generated image created by combining together multiple photos of real human faces. A non-blend is a regular photo of a human face.,KJ,,,,,,,,,,,,,,,,,,,,,,,,,,,,,,,,2,0.934,,,,,,,,,,,,,,0,6,6,104,1,,,,,,,,,,,,,space,0.4555,,,,,,,,,,,,,,,,,,,,,,,,,,,,,,,,,,,,,,,,,,,,,,,,,,,,,,,,,,,,,,,,,,,
,,,,421791,001,2023-11-09_22h16.29.873,fluency,2022.2.4,Win32,59.97001499,,,,,,,,,,,,,,,,,,,,,,,4,6,img/B06_04.jpg,BLEND,Press J if the face is a NON-BLEND and K if the face is a BLEND,A blend is a computer-generated image created by combining together multiple photos of real human faces. A non-blend is a regular photo of a human face.,KJ,,,,,,,,,,,,,,,,,,,,,,,,,,,,,,,,,,,,,,,,,,,,,,231.6707,0,7,7,59,1,109,0,0,0,0,1,98,,,,,,,,,,,,,,,,,,,,,,,,,,,,,,,,,,,,,,,,,,,,,,,,,,,,,,,,,,,,,,,,,,,,,,,,,,
,,,,421791,001,2023-11-09_22h16.29.873,fluency,2022.2.4,Win32,59.97001499,,,,,,,,,,,,,,,,,,,,,,,,,,,,,,,,,,,,,,,,,,,,,,,,,,,,,,,,,,,,,,,,,,,,,,,,,,,,,,,,,,0,0,0,0,1,,"[""j""]",[1.4058999998569277],1,"[""j""]",[1.4057999999523076],,,,,,,,,,,,,,,,,,,,,,,,,,,,,,,,,,,,,,,,,,,,,,,,,,,,,,,,,,,,,,,,,,,,,
,,,,421791,001,2023-11-09_22h16.29.873,fluency,2022.2.4,Win32,59.97001499,,,,,,,,,,,,,,,,,,,,,,,4,6,img/B06_04.jpg,BLEND,Press J if the face is a NON-BLEND and K if the face is a BLEND,A blend is a computer-generated image created by combining together multiple photos of real human faces. A non-blend is a regular photo of a human face.,KJ,,,,,,,,,,,,,,,,,,,,,,,,,,,,,,,,4,0.6812,,,,,,,,,,,,,,0,7,7,59,1,,,,,,,,,,,,,space,0.3347,,,,,,,,,,,,,,,,,,,,,,,,,,,,,,,,,,,,,,,,,,,,,,,,,,,,,,,,,,,,,,,,,,,
,,,,421791,001,2023-11-09_22h16.29.873,fluency,2022.2.4,Win32,59.97001499,,,,,,,,,,,,,,,,,,,,,,,2,5,img/B05_02.jpg,BLEND,Press J if the face is a NON-BLEND and K if the face is a BLEND,A blend is a computer-generated image created by combining together multiple photos of real human faces. A non-blend is a regular photo of a human face.,KJ,,,,,,,,,,,,,,,,,,,,,,,,,,,,,,,,,,,,,,,,,,,,,,236.771,0,8,8,46,1,109,0,0,0,0,1,98,,,,,,,,,,,,,,,,,,,,,,,,,,,,,,,,,,,,,,,,,,,,,,,,,,,,,,,,,,,,,,,,,,,,,,,,,,
,,,,421791,001,2023-11-09_22h16.29.873,fluency,2022.2.4,Win32,59.97001499,,,,,,,,,,,,,,,,,,,,,,,,,,,,,,,,,,,,,,,,,,,,,,,,,,,,,,,,,,,,,,,,,,,,,,,,,,,,,,,,,,0,0,0,0,1,,"[""j""]",[0.7835999999046521],1,"[""j""]",[0.7835999999046521],,,,,,,,,,,,,,,,,,,,,,,,,,,,,,,,,,,,,,,,,,,,,,,,,,,,,,,,,,,,,,,,,,,,,
,,,,421791,001,2023-11-09_22h16.29.873,fluency,2022.2.4,Win32,59.97001499,,,,,,,,,,,,,,,,,,,,,,,2,5,img/B05_02.jpg,BLEND,Press J if the face is a NON-BLEND and K if the face is a BLEND,A blend is a computer-generated image created by combining together multiple photos of real human faces. A non-blend is a regular photo of a human face.,KJ,,,,,,,,,,,,,,,,,,,,,,,,,,,,,,,,2,0.3739,,,,,,,,,,,,,,0,8,8,46,1,,,,,,,,,,,,,space,0.4121,,,,,,,,,,,,,,,,,,,,,,,,,,,,,,,,,,,,,,,,,,,,,,,,,,,,,,,,,,,,,,,,,,,
,,,,421791,001,2023-11-09_22h16.29.873,fluency,2022.2.4,Win32,59.97001499,,,,,,,,,,,,,,,,,,,,,,,10,1,img/B01_10.jpg,BLEND,Press J if the face is a NON-BLEND and K if the face is a BLEND,A blend is a computer-generated image created by combining together multiple photos of real human faces. A non-blend is a regular photo of a human face.,KJ,,,,,,,,,,,,,,,,,,,,,,,,,,,,,,,,,,,,,,,,,,,,,,241.6043,0,9,9,10,1,109,0,0,0,0,1,98,,,,,,,,,,,,,,,,,,,,,,,,,,,,,,,,,,,,,,,,,,,,,,,,,,,,,,,,,,,,,,,,,,,,,,,,,,
,,,,421791,001,2023-11-09_22h16.29.873,fluency,2022.2.4,Win32,59.97001499,,,,,,,,,,,,,,,,,,,,,,,,,,,,,,,,,,,,,,,,,,,,,,,,,,,,,,,,,,,,,,,,,,,,,,,,,,,,,,,,,,0,0,0,0,1,,"[""j""]",[1.011900000095352],1,"[""j""]",[1.011900000095352],,,,,,,,,,,,,,,,,,,,,,,,,,,,,,,,,,,,,,,,,,,,,,,,,,,,,,,,,,,,,,,,,,,,,
,,,,421791,001,2023-11-09_22h16.29.873,fluency,2022.2.4,Win32,59.97001499,,,,,,,,,,,,,,,,,,,,,,,10,1,img/B01_10.jpg,BLEND,Press J if the face is a NON-BLEND and K if the face is a BLEND,A blend is a computer-generated image created by combining together multiple photos of real human faces. A non-blend is a regular photo of a human face.,KJ,,,,,,,,,,,,,,,,,,,,,,,,,,,,,,,,1,0.2292,,,,,,,,,,,,,,0,9,9,10,1,,,,,,,,,,,,,space,0.2111,,,,,,,,,,,,,,,,,,,,,,,,,,,,,,,,,,,,,,,,,,,,,,,,,,,,,,,,,,,,,,,,,,,
,,,,421791,001,2023-11-09_22h16.29.873,fluency,2022.2.4,Win32,59.97001499,,,,,,,,,,,,,,,,,,,,,,,4,7,img/B07_04.jpg,BLEND,Press J if the face is a NON-BLEND and K if the face is a BLEND,A blend is a computer-generated image created by combining together multiple photos of real human faces. A non-blend is a regular photo of a human face.,KJ,,,,,,,,,,,,,,,,,,,,,,,,,,,,,,,,,,,,,,,,,,,,,,247.1212,0,10,10,70,1,109,0,0,0,0,1,98,,,,,,,,,,,,,,,,,,,,,,,,,,,,,,,,,,,,,,,,,,,,,,,,,,,,,,,,,,,,,,,,,,,,,,,,,,
,,,,421791,001,2023-11-09_22h16.29.873,fluency,2022.2.4,Win32,59.97001499,,,,,,,,,,,,,,,,,,,,,,,,,,,,,,,,,,,,,,,,,,,,,,,,,,,,,,,,,,,,,,,,,,,,,,,,,,,,,,,,,,0,0,0,0,1,,"[""j""]",[1.4842000000476787],1,"[""j""]",[1.4842000000476787],,,,,,,,,,,,,,,,,,,,,,,,,,,,,,,,,,,,,,,,,,,,,,,,,,,,,,,,,,,,,,,,,,,,,
,,,,421791,001,2023-11-09_22h16.29.873,fluency,2022.2.4,Win32,59.97001499,,,,,,,,,,,,,,,,,,,,,,,4,7,img/B07_04.jpg,BLEND,Press J if the face is a NON-BLEND and K if the face is a BLEND,A blend is a computer-generated image created by combining together multiple photos of real human faces. A non-blend is a regular photo of a human face.,KJ,,,,,,,,,,,,,,,,,,,,,,,,,,,,,,,,1,0.5545,,,,,,,,,,,,,,0,10,10,70,1,,,,,,,,,,,,,space,0.3675,,,,,,,,,,,,,,,,,,,,,,,,,,,,,,,,,,,,,,,,,,,,,,,,,,,,,,,,,,,,,,,,,,,
,,,,421791,001,2023-11-09_22h16.29.873,fluency,2022.2.4,Win32,59.97001499,,,,,,,,,,,,,,,,,,,,,,,5,9,img/B09_05.jpg,BLEND,Press J if the face is a NON-BLEND and K if the face is a BLEND,A blend is a computer-generated image created by combining together multiple photos of real human faces. A non-blend is a regular photo of a human face.,KJ,,,,,,,,,,,,,,,,,,,,,,,,,,,,,,,,,,,,,,,,,,,,,,252.1205,0,11,11,93,1,109,0,0,0,0,1,98,,,,,,,,,,,,,,,,,,,,,,,,,,,,,,,,,,,,,,,,,,,,,,,,,,,,,,,,,,,,,,,,,,,,,,,,,,
,,,,421791,001,2023-11-09_22h16.29.873,fluency,2022.2.4,Win32,59.97001499,,,,,,,,,,,,,,,,,,,,,,,,,,,,,,,,,,,,,,,,,,,,,,,,,,,,,,,,,,,,,,,,,,,,,,,,,,,,,,,,,,0,0,0,0,1,,"[""j""]",[1.2836000001430534],1,"[""j""]",[1.2836000001430534],,,,,,,,,,,,,,,,,,,,,,,,,,,,,,,,,,,,,,,,,,,,,,,,,,,,,,,,,,,,,,,,,,,,,
,,,,421791,001,2023-11-09_22h16.29.873,fluency,2022.2.4,Win32,59.97001499,,,,,,,,,,,,,,,,,,,,,,,5,9,img/B09_05.jpg,BLEND,Press J if the face is a NON-BLEND and K if the face is a BLEND,A blend is a computer-generated image created by combining together multiple photos of real human faces. A non-blend is a regular photo of a human face.,KJ,,,,,,,,,,,,,,,,,,,,,,,,,,,,,,,,2,0.6943,,,,,,,,,,,,,,0,11,11,93,1,,,,,,,,,,,,,space,0.2712,,,,,,,,,,,,,,,,,,,,,,,,,,,,,,,,,,,,,,,,,,,,,,,,,,,,,,,,,,,,,,,,,,,
,,,,421791,001,2023-11-09_22h16.29.873,fluency,2022.2.4,Win32,59.97001499,,,,,,,,,,,,,,,,,,,,,,,8,6,img/B06_08.jpg,BLEND,Press J if the face is a NON-BLEND and K if the face is a BLEND,A blend is a computer-generated image created by combining together multiple photos of real human faces. A non-blend is a regular photo of a human face.,KJ,,,,,,,,,,,,,,,,,,,,,,,,,,,,,,,,,,,,,,,,,,,,,,257.1384,0,12,12,63,1,109,0,0,0,0,1,98,,,,,,,,,,,,,,,,,,,,,,,,,,,,,,,,,,,,,,,,,,,,,,,,,,,,,,,,,,,,,,,,,,,,,,,,,,
,,,,421791,001,2023-11-09_22h16.29.873,fluency,2022.2.4,Win32,59.97001499,,,,,,,,,,,,,,,,,,,,,,,,,,,,,,,,,,,,,,,,,,,,,,,,,,,,,,,,,,,,,,,,,,,,,,,,,,,,,,,,,,0,0,0,0,1,,"[""j""]",[2.032299999952272],1,"[""j""]",[2.0323999998569207],,,,,,,,,,,,,,,,,,,,,,,,,,,,,,,,,,,,,,,,,,,,,,,,,,,,,,,,,,,,,,,,,,,,,
,,,,421791,001,2023-11-09_22h16.29.873,fluency,2022.2.4,Win32,59.97001499,,,,,,,,,,,,,,,,,,,,,,,8,6,img/B06_08.jpg,BLEND,Press J if the face is a NON-BLEND and K if the face is a BLEND,A blend is a computer-generated image created by combining together multiple photos of real human faces. A non-blend is a regular photo of a human face.,KJ,,,,,,,,,,,,,,,,,,,,,,,,,,,,,,,,1,0.5305,,,,,,,,,,,,,,0,12,12,63,1,,,,,,,,,,,,,space,0.1895,,,,,,,,,,,,,,,,,,,,,,,,,,,,,,,,,,,,,,,,,,,,,,,,,,,,,,,,,,,,,,,,,,,
,,,,421791,001,2023-11-09_22h16.29.873,fluency,2022.2.4,Win32,59.97001499,,,,,,,,,,,,,,,,,,,,,,,0,2,img/B02_00.jpg,BLEND,Press J if the face is a NON-BLEND and K if the face is a BLEND,A blend is a computer-generated image created by combining together multiple photos of real human faces. A non-blend is a regular photo of a human face.,KJ,,,,,,,,,,,,,,,,,,,,,,,,,,,,,,,,,,,,,,,,,,,,,,261.9383,0,13,13,11,1,109,0,0,0,0,1,98,,,,,,,,,,,,,,,,,,,,,,,,,,,,,,,,,,,,,,,,,,,,,,,,,,,,,,,,,,,,,,,,,,,,,,,,,,
,,,,421791,001,2023-11-09_22h16.29.873,fluency,2022.2.4,Win32,59.97001499,,,,,,,,,,,,,,,,,,,,,,,,,,,,,,,,,,,,,,,,,,,,,,,,,,,,,,,,,,,,,,,,,,,,,,,,,,,,,,,,,,0,0,0,0,1,,"[""k""]",[1.6586999998092438],1,"[""k""]",[1.6585999999045953],,,,,,,,,,,,,,,,,,,,,,,,,,,,,,,,,,,,,,,,,,,,,,,,,,,,,,,,,,,,,,,,,,,,,
,,,,421791,001,2023-11-09_22h16.29.873,fluency,2022.2.4,Win32,59.97001499,,,,,,,,,,,,,,,,,,,,,,,0,2,img/B02_00.jpg,BLEND,Press J if the face is a NON-BLEND and K if the face is a BLEND,A blend is a computer-generated image created by combining together multiple photos of real human faces. A non-blend is a regular photo of a human face.,KJ,,,,,,,,,,,,,,,,,,,,,,,,,,,,,,,,1,0.3625,,,,,,,,,,,,,,0,13,13,11,1,,,,,,,,,,,,,space,0.2792,,,,,,,,,,,,,,,,,,,,,,,,,,,,,,,,,,,,,,,,,,,,,,,,,,,,,,,,,,,,,,,,,,,
,,,,421791,001,2023-11-09_22h16.29.873,fluency,2022.2.4,Win32,59.97001499,,,,,,,,,,,,,,,,,,,,,,,8,3,img/B03_08.jpg,BLEND,Press J if the face is a NON-BLEND and K if the face is a BLEND,A blend is a computer-generated image created by combining together multiple photos of real human faces. A non-blend is a regular photo of a human face.,KJ,,,,,,,,,,,,,,,,,,,,,,,,,,,,,,,,,,,,,,,,,,,,,,267.6378,0,14,14,30,1,109,0,0,0,0,1,98,,,,,,,,,,,,,,,,,,,,,,,,,,,,,,,,,,,,,,,,,,,,,,,,,,,,,,,,,,,,,,,,,,,,,,,,,,
,,,,421791,001,2023-11-09_22h16.29.873,fluency,2022.2.4,Win32,59.97001499,,,,,,,,,,,,,,,,,,,,,,,,,,,,,,,,,,,,,,,,,,,,,,,,,,,,,,,,,,,,,,,,,,,,,,,,,,,,,,,,,,0,0,0,0,1,,"[""k""]",[1.6949999999999932],1,"[""k""]",[1.695100000143043],,,,,,,,,,,,,,,,,,,,,,,,,,,,,,,,,,,,,,,,,,,,,,,,,,,,,,,,,,,,,,,,,,,,,
,,,,421791,001,2023-11-09_22h16.29.873,fluency,2022.2.4,Win32,59.97001499,,,,,,,,,,,,,,,,,,,,,,,8,3,img/B03_08.jpg,BLEND,Press J if the face is a NON-BLEND and K if the face is a BLEND,A blend is a computer-generated image created by combining together multiple photos of real human faces. A non-blend is a regular photo of a human face.,KJ,,,,,,,,,,,,,,,,,,,,,,,,,,,,,,,,4,0.3746,,,,,,,,,,,,,,0,14,14,30,1,,,,,,,,,,,,,space,0.374,,,,,,,,,,,,,,,,,,,,,,,,,,,,,,,,,,,,,,,,,,,,,,,,,,,,,,,,,,,,,,,,,,,
,,,,421791,001,2023-11-09_22h16.29.873,fluency,2022.2.4,Win32,59.97001499,,,,,,,,,,,,,,,,,,,,,,,5,3,img/B03_05.jpg,BLEND,Press J if the face is a NON-BLEND and K if the face is a BLEND,A blend is a computer-generated image created by combining together multiple photos of real human faces. A non-blend is a regular photo of a human face.,KJ,,,,,,,,,,,,,,,,,,,,,,,,,,,,,,,,,,,,,,,,,,,,,,273.4441,0,15,15,27,1,109,0,0,0,0,1,98,,,,,,,,,,,,,,,,,,,,,,,,,,,,,,,,,,,,,,,,,,,,,,,,,,,,,,,,,,,,,,,,,,,,,,,,,,
,,,,421791,001,2023-11-09_22h16.29.873,fluency,2022.2.4,Win32,59.97001499,,,,,,,,,,,,,,,,,,,,,,,,,,,,,,,,,,,,,,,,,,,,,,,,,,,,,,,,,,,,,,,,,,,,,,,,,,,,,,,,,,0,0,0,0,1,,"[""j""]",[1.3185000000000286],1,"[""j""]",[1.3185000000000286],,,,,,,,,,,,,,,,,,,,,,,,,,,,,,,,,,,,,,,,,,,,,,,,,,,,,,,,,,,,,,,,,,,,,
,,,,421791,001,2023-11-09_22h16.29.873,fluency,2022.2.4,Win32,59.97001499,,,,,,,,,,,,,,,,,,,,,,,5,3,img/B03_05.jpg,BLEND,Press J if the face is a NON-BLEND and K if the face is a BLEND,A blend is a computer-generated image created by combining together multiple photos of real human faces. A non-blend is a regular photo of a human face.,KJ,,,,,,,,,,,,,,,,,,,,,,,,,,,,,,,,5,2.7585,,,,,,,,,,,,,,0,15,15,27,1,,,,,,,,,,,,,space,6.3727,,,,,,,,,,,,,,,,,,,,,,,,,,,,,,,,,,,,,,,,,,,,,,,,,,,,,,,,,,,,,,,,,,,
,,,,421791,001,2023-11-09_22h16.29.873,fluency,2022.2.4,Win32,59.97001499,,,,,,,,,,,,,,,,,,,,,,,4,4,img/B04_04.jpg,BLEND,Press J if the face is a NON-BLEND and K if the face is a BLEND,A blend is a computer-generated image created by combining together multiple photos of real human faces. A non-blend is a regular photo of a human face.,KJ,,,,,,,,,,,,,,,,,,,,,,,,,,,,,,,,,,,,,,,,,,,,,,286.6729,0,16,16,37,1,109,0,0,0,0,1,98,,,,,,,,,,,,,,,,,,,,,,,,,,,,,,,,,,,,,,,,,,,,,,,,,,,,,,,,,,,,,,,,,,,,,,,,,,
,,,,421791,001,2023-11-09_22h16.29.873,fluency,2022.2.4,Win32,59.97001499,,,,,,,,,,,,,,,,,,,,,,,,,,,,,,,,,,,,,,,,,,,,,,,,,,,,,,,,,,,,,,,,,,,,,,,,,,,,,,,,,,,,,,,,,,2,,,,,space,3.5512,0,0,0,0,1,,,,,,,,,,,,,,,,,,,,,,,,,,,,,,,,,,,,,,,,,,,,,,,,,,,,,,,,,,,,
,,,,421791,001,2023-11-09_22h16.29.873,fluency,2022.2.4,Win32,59.97001499,,,,,,,,,,,,,,,,,,,,,,,,,,,,,,,,,,,,,,,,,,,,,,,,,,,,,,,,,,,,,,,,,,,,,,,,,,,,,,,,,,0,0,0,0,1,,,,,,,,,,,,,,,,,,,,,,,,,,,,,,,,,,,,,,,,,,,,,,,,,,,,,,,,,,,,,,,,,,,,,,,,,,,
,,,,421791,001,2023-11-09_22h16.29.873,fluency,2022.2.4,Win32,59.97001499,,,,,,,,,,,,,,,,,,,,,,,4,4,img/B04_04.jpg,BLEND,Press J if the face is a NON-BLEND and K if the face is a BLEND,A blend is a computer-generated image created by combining together multiple photos of real human faces. A non-blend is a regular photo of a human face.,KJ,,,,,,,,,,,,,,,,,,,,,,,,,,,,,,,,,,,,,,,,,,,,,,294.2735,0,16,16,37,1,109,1,0,1,0,1,98,,,,,,,,,,,,,,,,,,,,,,,,,,,,,,,,,,,,,,,,,,,,,,,,,,,,,,,,,,,,,,,,,,,,,,,,,,
,,,,421791,001,2023-11-09_22h16.29.873,fluency,2022.2.4,Win32,59.97001499,,,,,,,,,,,,,,,,,,,,,,,,,,,,,,,,,,,,,,,,,,,,,,,,,,,,,,,,,,,,,,,,,,,,,,,,,,,,,,,,,,1,0,1,0,1,,"[""j""]",[2.8569000000953793],2,"[""j""]",[2.856899999856978],,,,,,,,,,,,,,,,,,,,,,,,,,,,,,,,,,,,,,,,,,,,,,,,,,,,,,,,,,,,,,,,,,,,,
,,,,421791,001,2023-11-09_22h16.29.873,fluency,2022.2.4,Win32,59.97001499,,,,,,,,,,,,,,,,,,,,,,,4,4,img/B04_04.jpg,BLEND,Press J if the face is a NON-BLEND and K if the face is a BLEND,A blend is a computer-generated image created by combining together multiple photos of real human faces. A non-blend is a regular photo of a human face.,KJ,,,,,,,,,,,,,,,,,,,,,,,,,,,,,,,,5,1.409,,,,,,,,,,,,,,0,16,16,37,1,,,,,,,,,,,,,space,0.3646,,,,,,,,,,,,,,,,,,,,,,,,,,,,,,,,,,,,,,,,,,,,,,,,,,,,,,,,,,,,,,,,,,,
,,,,421791,001,2023-11-09_22h16.29.873,fluency,2022.2.4,Win32,59.97001499,,,,,,,,,,,,,,,,,,,,,,,4,9,img/B09_04.jpg,BLEND,Press J if the face is a NON-BLEND and K if the face is a BLEND,A blend is a computer-generated image created by combining together multiple photos of real human faces. A non-blend is a regular photo of a human face.,KJ,,,,,,,,,,,,,,,,,,,,,,,,,,,,,,,,,,,,,,,,,,,,,,300.1401,0,17,17,92,1,109,0,0,0,0,1,98,,,,,,,,,,,,,,,,,,,,,,,,,,,,,,,,,,,,,,,,,,,,,,,,,,,,,,,,,,,,,,,,,,,,,,,,,,
,,,,421791,001,2023-11-09_22h16.29.873,fluency,2022.2.4,Win32,59.97001499,,,,,,,,,,,,,,,,,,,,,,,,,,,,,,,,,,,,,,,,,,,,,,,,,,,,,,,,,,,,,,,,,,,,,,,,,,,,,,,,,,0,0,0,0,1,,"[""k""]",[1.8386999998092506],2,"[""k""]",[1.8360999999046044],,,,,,,,,,,,,,,,,,,,,,,,,,,,,,,,,,,,,,,,,,,,,,,,,,,,,,,,,,,,,,,,,,,,,
,,,,421791,001,2023-11-09_22h16.29.873,fluency,2022.2.4,Win32,59.97001499,,,,,,,,,,,,,,,,,,,,,,,4,9,img/B09_04.jpg,BLEND,Press J if the face is a NON-BLEND and K if the face is a BLEND,A blend is a computer-generated image created by combining together multiple photos of real human faces. A non-blend is a regular photo of a human face.,KJ,,,,,,,,,,,,,,,,,,,,,,,,,,,,,,,,1,0.4827,,,,,,,,,,,,,,0,17,17,92,1,,,,,,,,,,,,,space,0.3927,,,,,,,,,,,,,,,,,,,,,,,,,,,,,,,,,,,,,,,,,,,,,,,,,,,,,,,,,,,,,,,,,,,
,,,,421791,001,2023-11-09_22h16.29.873,fluency,2022.2.4,Win32,59.97001499,,,,,,,,,,,,,,,,,,,,,,,7,1,img/B01_07.jpg,BLEND,Press J if the face is a NON-BLEND and K if the face is a BLEND,A blend is a computer-generated image created by combining together multiple photos of real human faces. A non-blend is a regular photo of a human face.,KJ,,,,,,,,,,,,,,,,,,,,,,,,,,,,,,,,,,,,,,,,,,,,,,306.0732,0,18,18,7,1,109,0,0,0,0,1,98,,,,,,,,,,,,,,,,,,,,,,,,,,,,,,,,,,,,,,,,,,,,,,,,,,,,,,,,,,,,,,,,,,,,,,,,,,
,,,,421791,001,2023-11-09_22h16.29.873,fluency,2022.2.4,Win32,59.97001499,,,,,,,,,,,,,,,,,,,,,,,,,,,,,,,,,,,,,,,,,,,,,,,,,,,,,,,,,,,,,,,,,,,,,,,,,,,,,,,,,,0,0,0,0,1,,"[""k""]",[1.4562999999523072],2,"[""k""]",[1.4562000000476587],,,,,,,,,,,,,,,,,,,,,,,,,,,,,,,,,,,,,,,,,,,,,,,,,,,,,,,,,,,,,,,,,,,,,
,,,,421791,001,2023-11-09_22h16.29.873,fluency,2022.2.4,Win32,59.97001499,,,,,,,,,,,,,,,,,,,,,,,7,1,img/B01_07.jpg,BLEND,Press J if the face is a NON-BLEND and K if the face is a BLEND,A blend is a computer-generated image created by combining together multiple photos of real human faces. A non-blend is a regular photo of a human face.,KJ,,,,,,,,,,,,,,,,,,,,,,,,,,,,,,,,1,0.4098,,,,,,,,,,,,,,0,18,18,7,1,,,,,,,,,,,,,space,0.3755,,,,,,,,,,,,,,,,,,,,,,,,,,,,,,,,,,,,,,,,,,,,,,,,,,,,,,,,,,,,,,,,,,,
,,,,421791,001,2023-11-09_22h16.29.873,fluency,2022.2.4,Win32,59.97001499,,,,,,,,,,,,,,,,,,,,,,,6,1,img/B01_06.jpg,BLEND,Press J if the face is a NON-BLEND and K if the face is a BLEND,A blend is a computer-generated image created by combining together multiple photos of real human faces. A non-blend is a regular photo of a human face.,KJ,,,,,,,,,,,,,,,,,,,,,,,,,,,,,,,,,,,,,,,,,,,,,,310.9069,0,19,19,6,1,109,0,0,0,0,1,98,,,,,,,,,,,,,,,,,,,,,,,,,,,,,,,,,,,,,,,,,,,,,,,,,,,,,,,,,,,,,,,,,,,,,,,,,,
,,,,421791,001,2023-11-09_22h16.29.873,fluency,2022.2.4,Win32,59.97001499,,,,,,,,,,,,,,,,,,,,,,,,,,,,,,,,,,,,,,,,,,,,,,,,,,,,,,,,,,,,,,,,,,,,,,,,,,,,,,,,,,0,0,0,0,1,,"[""k""]",[0.8089000000953206],2,"[""k""]",[0.8089000000953774],,,,,,,,,,,,,,,,,,,,,,,,,,,,,,,,,,,,,,,,,,,,,,,,,,,,,,,,,,,,,,,,,,,,,
,,,,421791,001,2023-11-09_22h16.29.873,fluency,2022.2.4,Win32,59.97001499,,,,,,,,,,,,,,,,,,,,,,,6,1,img/B01_06.jpg,BLEND,Press J if the face is a NON-BLEND and K if the face is a BLEND,A blend is a computer-generated image created by combining together multiple photos of real human faces. A non-blend is a regular photo of a human face.,KJ,,,,,,,,,,,,,,,,,,,,,,,,,,,,,,,,1,0.3939,,,,,,,,,,,,,,0,19,19,6,1,,,,,,,,,,,,,space,0.3137,,,,,,,,,,,,,,,,,,,,,,,,,,,,,,,,,,,,,,,,,,,,,,,,,,,,,,,,,,,,,,,,,,,
,,,,421791,001,2023-11-09_22h16.29.873,fluency,2022.2.4,Win32,59.97001499,,,,,,,,,,,,,,,,,,,,,,,0,4,img/B04_00.jpg,BLEND,Press J if the face is a NON-BLEND and K if the face is a BLEND,A blend is a computer-generated image created by combining together multiple photos of real human faces. A non-blend is a regular photo of a human face.,KJ,,,,,,,,,,,,,,,,,,,,,,,,,,,,,,,,,,,,,,,,,,,,,,315.6911,0,20,20,33,1,109,0,0,0,0,1,98,,,,,,,,,,,,,,,,,,,,,,,,,,,,,,,,,,,,,,,,,,,,,,,,,,,,,,,,,,,,,,,,,,,,,,,,,,
,,,,421791,001,2023-11-09_22h16.29.873,fluency,2022.2.4,Win32,59.97001499,,,,,,,,,,,,,,,,,,,,,,,,,,,,,,,,,,,,,,,,,,,,,,,,,,,,,,,,,,,,,,,,,,,,,,,,,,,,,,,,,,0,0,0,0,1,,"[""j""]",[2.5568999998569666],2,"[""j""]",[2.5568999998569666],,,,,,,,,,,,,,,,,,,,,,,,,,,,,,,,,,,,,,,,,,,,,,,,,,,,,,,,,,,,,,,,,,,,,
,,,,421791,001,2023-11-09_22h16.29.873,fluency,2022.2.4,Win32,59.97001499,,,,,,,,,,,,,,,,,,,,,,,0,4,img/B04_00.jpg,BLEND,Press J if the face is a NON-BLEND and K if the face is a BLEND,A blend is a computer-generated image created by combining together multiple photos of real human faces. A non-blend is a regular photo of a human face.,KJ,,,,,,,,,,,,,,,,,,,,,,,,,,,,,,,,3,0.853,,,,,,,,,,,,,,0,20,20,33,1,,,,,,,,,,,,,space,0.3022,,,,,,,,,,,,,,,,,,,,,,,,,,,,,,,,,,,,,,,,,,,,,,,,,,,,,,,,,,,,,,,,,,,
,,,,421791,001,2023-11-09_22h16.29.873,fluency,2022.2.4,Win32,59.97001499,,,,,,,,,,,,,,,,,,,,,,,0,3,img/B03_00.jpg,BLEND,Press J if the face is a NON-BLEND and K if the face is a BLEND,A blend is a computer-generated image created by combining together multiple photos of real human faces. A non-blend is a regular photo of a human face.,KJ,,,,,,,,,,,,,,,,,,,,,,,,,,,,,,,,,,,,,,,,,,,,,,321.9076,0,21,21,22,1,109,0,0,0,0,1,98,,,,,,,,,,,,,,,,,,,,,,,,,,,,,,,,,,,,,,,,,,,,,,,,,,,,,,,,,,,,,,,,,,,,,,,,,,
,,,,421791,001,2023-11-09_22h16.29.873,fluency,2022.2.4,Win32,59.97001499,,,,,,,,,,,,,,,,,,,,,,,,,,,,,,,,,,,,,,,,,,,,,,,,,,,,,,,,,,,,,,,,,,,,,,,,,,,,,,,,,,0,0,0,0,1,,"[""j""]",[1.5319000000953338],2,"[""j""]",[1.5319999999999823],,,,,,,,,,,,,,,,,,,,,,,,,,,,,,,,,,,,,,,,,,,,,,,,,,,,,,,,,,,,,,,,,,,,,
,,,,421791,001,2023-11-09_22h16.29.873,fluency,2022.2.4,Win32,59.97001499,,,,,,,,,,,,,,,,,,,,,,,0,3,img/B03_00.jpg,BLEND,Press J if the face is a NON-BLEND and K if the face is a BLEND,A blend is a computer-generated image created by combining together multiple photos of real human faces. A non-blend is a regular photo of a human face.,KJ,,,,,,,,,,,,,,,,,,,,,,,,,,,,,,,,4,0.3421,,,,,,,,,,,,,,0,21,21,22,1,,,,,,,,,,,,,space,0.2243,,,,,,,,,,,,,,,,,,,,,,,,,,,,,,,,,,,,,,,,,,,,,,,,,,,,,,,,,,,,,,,,,,,
,,,,421791,001,2023-11-09_22h16.29.873,fluency,2022.2.4,Win32,59.97001499,,,,,,,,,,,,,,,,,,,,,,,5,5,img/B05_05.jpg,BLEND,Press J if the face is a NON-BLEND and K if the face is a BLEND,A blend is a computer-generated image created by combining together multiple photos of real human faces. A non-blend is a regular photo of a human face.,KJ,,,,,,,,,,,,,,,,,,,,,,,,,,,,,,,,,,,,,,,,,,,,,,327.5411,0,22,22,49,1,109,0,0,0,0,1,98,,,,,,,,,,,,,,,,,,,,,,,,,,,,,,,,,,,,,,,,,,,,,,,,,,,,,,,,,,,,,,,,,,,,,,,,,,
,,,,421791,001,2023-11-09_22h16.29.873,fluency,2022.2.4,Win32,59.97001499,,,,,,,,,,,,,,,,,,,,,,,,,,,,,,,,,,,,,,,,,,,,,,,,,,,,,,,,,,,,,,,,,,,,,,,,,,,,,,,,,,0,0,0,0,1,,"[""k""]",[1.6707000000477024],2,"[""k""]",[1.6707000000477024],,,,,,,,,,,,,,,,,,,,,,,,,,,,,,,,,,,,,,,,,,,,,,,,,,,,,,,,,,,,,,,,,,,,,
,,,,421791,001,2023-11-09_22h16.29.873,fluency,2022.2.4,Win32,59.97001499,,,,,,,,,,,,,,,,,,,,,,,5,5,img/B05_05.jpg,BLEND,Press J if the face is a NON-BLEND and K if the face is a BLEND,A blend is a computer-generated image created by combining together multiple photos of real human faces. A non-blend is a regular photo of a human face.,KJ,,,,,,,,,,,,,,,,,,,,,,,,,,,,,,,,2,0.3465,,,,,,,,,,,,,,0,22,22,49,1,,,,,,,,,,,,,space,0.3206,,,,,,,,,,,,,,,,,,,,,,,,,,,,,,,,,,,,,,,,,,,,,,,,,,,,,,,,,,,,,,,,,,,
,,,,421791,001,2023-11-09_22h16.29.873,fluency,2022.2.4,Win32,59.97001499,,,,,,,,,,,,,,,,,,,,,,,7,4,img/B04_07.jpg,BLEND,Press J if the face is a NON-BLEND and K if the face is a BLEND,A blend is a computer-generated image created by combining together multiple photos of real human faces. A non-blend is a regular photo of a human face.,KJ,,,,,,,,,,,,,,,,,,,,,,,,,,,,,,,,,,,,,,,,,,,,,,332.2912,0,23,23,40,1,109,0,0,0,0,1,98,,,,,,,,,,,,,,,,,,,,,,,,,,,,,,,,,,,,,,,,,,,,,,,,,,,,,,,,,,,,,,,,,,,,,,,,,,
,,,,421791,001,2023-11-09_22h16.29.873,fluency,2022.2.4,Win32,59.97001499,,,,,,,,,,,,,,,,,,,,,,,,,,,,,,,,,,,,,,,,,,,,,,,,,,,,,,,,,,,,,,,,,,,,,,,,,,,,,,,,,,0,0,0,0,1,,"[""j""]",[2.5852999999523263],2,"[""j""]",[2.5852999999523263],,,,,,,,,,,,,,,,,,,,,,,,,,,,,,,,,,,,,,,,,,,,,,,,,,,,,,,,,,,,,,,,,,,,,
,,,,421791,001,2023-11-09_22h16.29.873,fluency,2022.2.4,Win32,59.97001499,,,,,,,,,,,,,,,,,,,,,,,7,4,img/B04_07.jpg,BLEND,Press J if the face is a NON-BLEND and K if the face is a BLEND,A blend is a computer-generated image created by combining together multiple photos of real human faces. A non-blend is a regular photo of a human face.,KJ,,,,,,,,,,,,,,,,,,,,,,,,,,,,,,,,4,1.0094,,,,,,,,,,,,,,0,23,23,40,1,,,,,,,,,,,,,space,0.2532,,,,,,,,,,,,,,,,,,,,,,,,,,,,,,,,,,,,,,,,,,,,,,,,,,,,,,,,,,,,,,,,,,,
,,,,421791,001,2023-11-09_22h16.29.873,fluency,2022.2.4,Win32,59.97001499,,,,,,,,,,,,,,,,,,,,,,,7,10,img/B10_07.jpg,BLEND,Press J if the face is a NON-BLEND and K if the face is a BLEND,A blend is a computer-generated image created by combining together multiple photos of real human faces. A non-blend is a regular photo of a human face.,KJ,,,,,,,,,,,,,,,,,,,,,,,,,,,,,,,,,,,,,,,,,,,,,,337.6079,0,24,24,106,1,109,0,0,0,0,1,98,,,,,,,,,,,,,,,,,,,,,,,,,,,,,,,,,,,,,,,,,,,,,,,,,,,,,,,,,,,,,,,,,,,,,,,,,,
,,,,421791,001,2023-11-09_22h16.29.873,fluency,2022.2.4,Win32,59.97001499,,,,,,,,,,,,,,,,,,,,,,,,,,,,,,,,,,,,,,,,,,,,,,,,,,,,,,,,,,,,,,,,,,,,,,,,,,,,,,,,,,0,0,0,0,1,,"[""j""]",[2.19500000000005],2,"[""j""]",[2.193899999856967],,,,,,,,,,,,,,,,,,,,,,,,,,,,,,,,,,,,,,,,,,,,,,,,,,,,,,,,,,,,,,,,,,,,,
,,,,421791,001,2023-11-09_22h16.29.873,fluency,2022.2.4,Win32,59.97001499,,,,,,,,,,,,,,,,,,,,,,,7,10,img/B10_07.jpg,BLEND,Press J if the face is a NON-BLEND and K if the face is a BLEND,A blend is a computer-generated image created by combining together multiple photos of real human faces. A non-blend is a regular photo of a human face.,KJ,,,,,,,,,,,,,,,,,,,,,,,,,,,,,,,,3,0.4294,,,,,,,,,,,,,,0,24,24,106,1,,,,,,,,,,,,,space,0.2492,,,,,,,,,,,,,,,,,,,,,,,,,,,,,,,,,,,,,,,,,,,,,,,,,,,,,,,,,,,,,,,,,,,
,,,,421791,001,2023-11-09_22h16.29.873,fluency,2022.2.4,Win32,59.97001499,,,,,,,,,,,,,,,,,,,,,,,8,9,img/B09_08.jpg,BLEND,Press J if the face is a NON-BLEND and K if the face is a BLEND,A blend is a computer-generated image created by combining together multiple photos of real human faces. A non-blend is a regular photo of a human face.,KJ,,,,,,,,,,,,,,,,,,,,,,,,,,,,,,,,,,,,,,,,,,,,,,342.3422,0,25,25,96,1,109,0,0,0,0,1,98,,,,,,,,,,,,,,,,,,,,,,,,,,,,,,,,,,,,,,,,,,,,,,,,,,,,,,,,,,,,,,,,,,,,,,,,,,
,,,,421791,001,2023-11-09_22h16.29.873,fluency,2022.2.4,Win32,59.97001499,,,,,,,,,,,,,,,,,,,,,,,,,,,,,,,,,,,,,,,,,,,,,,,,,,,,,,,,,,,,,,,,,,,,,,,,,,,,,,,,,,0,0,0,0,1,,"[""k""]",[0.7902000000476619],2,"[""k""]",[0.7900999999046121],,,,,,,,,,,,,,,,,,,,,,,,,,,,,,,,,,,,,,,,,,,,,,,,,,,,,,,,,,,,,,,,,,,,,
,,,,421791,001,2023-11-09_22h16.29.873,fluency,2022.2.4,Win32,59.97001499,,,,,,,,,,,,,,,,,,,,,,,8,9,img/B09_08.jpg,BLEND,Press J if the face is a NON-BLEND and K if the face is a BLEND,A blend is a computer-generated image created by combining together multiple photos of real human faces. A non-blend is a regular photo of a human face.,KJ,,,,,,,,,,,,,,,,,,,,,,,,,,,,,,,,3,0.2768,,,,,,,,,,,,,,0,25,25,96,1,,,,,,,,,,,,,space,0.3171,,,,,,,,,,,,,,,,,,,,,,,,,,,,,,,,,,,,,,,,,,,,,,,,,,,,,,,,,,,,,,,,,,,
,,,,421791,001,2023-11-09_22h16.29.873,fluency,2022.2.4,Win32,59.97001499,,,,,,,,,,,,,,,,,,,,,,,3,2,img/B02_03.jpg,BLEND,Press J if the face is a NON-BLEND and K if the face is a BLEND,A blend is a computer-generated image created by combining together multiple photos of real human faces. A non-blend is a regular photo of a human face.,KJ,,,,,,,,,,,,,,,,,,,,,,,,,,,,,,,,,,,,,,,,,,,,,,346.9925,0,26,26,14,1,109,0,0,0,0,1,98,,,,,,,,,,,,,,,,,,,,,,,,,,,,,,,,,,,,,,,,,,,,,,,,,,,,,,,,,,,,,,,,,,,,,,,,,,
,,,,421791,001,2023-11-09_22h16.29.873,fluency,2022.2.4,Win32,59.97001499,,,,,,,,,,,,,,,,,,,,,,,,,,,,,,,,,,,,,,,,,,,,,,,,,,,,,,,,,,,,,,,,,,,,,,,,,,,,,,,,,,0,0,0,0,1,,"[""j""]",[1.6125999999046599],2,"[""j""]",[1.6125000000000114],,,,,,,,,,,,,,,,,,,,,,,,,,,,,,,,,,,,,,,,,,,,,,,,,,,,,,,,,,,,,,,,,,,,,
,,,,421791,001,2023-11-09_22h16.29.873,fluency,2022.2.4,Win32,59.97001499,,,,,,,,,,,,,,,,,,,,,,,3,2,img/B02_03.jpg,BLEND,Press J if the face is a NON-BLEND and K if the face is a BLEND,A blend is a computer-generated image created by combining together multiple photos of real human faces. A non-blend is a regular photo of a human face.,KJ,,,,,,,,,,,,,,,,,,,,,,,,,,,,,,,,2,0.2729,,,,,,,,,,,,,,0,26,26,14,1,,,,,,,,,,,,,space,0.4228,,,,,,,,,,,,,,,,,,,,,,,,,,,,,,,,,,,,,,,,,,,,,,,,,,,,,,,,,,,,,,,,,,,
,,,,421791,001,2023-11-09_22h16.29.873,fluency,2022.2.4,Win32,59.97001499,,,,,,,,,,,,,,,,,,,,,,,0,6,img/B06_00.jpg,BLEND,Press J if the face is a NON-BLEND and K if the face is a BLEND,A blend is a computer-generated image created by combining together multiple photos of real human faces. A non-blend is a regular photo of a human face.,KJ,,,,,,,,,,,,,,,,,,,,,,,,,,,,,,,,,,,,,,,,,,,,,,352.7595,0,27,27,55,1,109,0,0,0,0,1,98,,,,,,,,,,,,,,,,,,,,,,,,,,,,,,,,,,,,,,,,,,,,,,,,,,,,,,,,,,,,,,,,,,,,,,,,,,
,,,,421791,001,2023-11-09_22h16.29.873,fluency,2022.2.4,Win32,59.97001499,,,,,,,,,,,,,,,,,,,,,,,,,,,,,,,,,,,,,,,,,,,,,,,,,,,,,,,,,,,,,,,,,,,,,,,,,,,,,,,,,,0,0,0,0,1,,"[""j""]",[1.4502999999523354],2,"[""j""]",[1.4502999999523354],,,,,,,,,,,,,,,,,,,,,,,,,,,,,,,,,,,,,,,,,,,,,,,,,,,,,,,,,,,,,,,,,,,,,
,,,,421791,001,2023-11-09_22h16.29.873,fluency,2022.2.4,Win32,59.97001499,,,,,,,,,,,,,,,,,,,,,,,0,6,img/B06_00.jpg,BLEND,Press J if the face is a NON-BLEND and K if the face is a BLEND,A blend is a computer-generated image created by combining together multiple photos of real human faces. A non-blend is a regular photo of a human face.,KJ,,,,,,,,,,,,,,,,,,,,,,,,,,,,,,,,3,0.2664,,,,,,,,,,,,,,0,27,27,55,1,,,,,,,,,,,,,space,0.2607,,,,,,,,,,,,,,,,,,,,,,,,,,,,,,,,,,,,,,,,,,,,,,,,,,,,,,,,,,,,,,,,,,,
,,,,421791,001,2023-11-09_22h16.29.873,fluency,2022.2.4,Win32,59.97001499,,,,,,,,,,,,,,,,,,,,,,,7,6,img/B06_07.jpg,BLEND,Press J if the face is a NON-BLEND and K if the face is a BLEND,A blend is a computer-generated image created by combining together multiple photos of real human faces. A non-blend is a regular photo of a human face.,KJ,,,,,,,,,,,,,,,,,,,,,,,,,,,,,,,,,,,,,,,,,,,,,,357.359,0,28,28,62,1,109,0,0,0,0,1,98,,,,,,,,,,,,,,,,,,,,,,,,,,,,,,,,,,,,,,,,,,,,,,,,,,,,,,,,,,,,,,,,,,,,,,,,,,
,,,,421791,001,2023-11-09_22h16.29.873,fluency,2022.2.4,Win32,59.97001499,,,,,,,,,,,,,,,,,,,,,,,,,,,,,,,,,,,,,,,,,,,,,,,,,,,,,,,,,,,,,,,,,,,,,,,,,,,,,,,,,,0,0,0,0,1,,"[""k""]",[1.0218000001907512],2,"[""k""]",[1.0218000001907512],,,,,,,,,,,,,,,,,,,,,,,,,,,,,,,,,,,,,,,,,,,,,,,,,,,,,,,,,,,,,,,,,,,,,
,,,,421791,001,2023-11-09_22h16.29.873,fluency,2022.2.4,Win32,59.97001499,,,,,,,,,,,,,,,,,,,,,,,7,6,img/B06_07.jpg,BLEND,Press J if the face is a NON-BLEND and K if the face is a BLEND,A blend is a computer-generated image created by combining together multiple photos of real human faces. A non-blend is a regular photo of a human face.,KJ,,,,,,,,,,,,,,,,,,,,,,,,,,,,,,,,3,0.7351,,,,,,,,,,,,,,0,28,28,62,1,,,,,,,,,,,,,space,0.2281,,,,,,,,,,,,,,,,,,,,,,,,,,,,,,,,,,,,,,,,,,,,,,,,,,,,,,,,,,,,,,,,,,,
,,,,421791,001,2023-11-09_22h16.29.873,fluency,2022.2.4,Win32,59.97001499,,,,,,,,,,,,,,,,,,,,,,,4,2,img/B02_04.jpg,BLEND,Press J if the face is a NON-BLEND and K if the face is a BLEND,A blend is a computer-generated image created by combining together multiple photos of real human faces. A non-blend is a regular photo of a human face.,KJ,,,,,,,,,,,,,,,,,,,,,,,,,,,,,,,,,,,,,,,,,,,,,,362.3764,0,29,29,15,1,109,0,0,0,0,1,98,,,,,,,,,,,,,,,,,,,,,,,,,,,,,,,,,,,,,,,,,,,,,,,,,,,,,,,,,,,,,,,,,,,,,,,,,,
,,,,421791,001,2023-11-09_22h16.29.873,fluency,2022.2.4,Win32,59.97001499,,,,,,,,,,,,,,,,,,,,,,,,,,,,,,,,,,,,,,,,,,,,,,,,,,,,,,,,,,,,,,,,,,,,,,,,,,,,,,,,,,0,0,0,0,1,,"[""j""]",[1.9000999999046257],2,"[""j""]",[1.9000999999046257],,,,,,,,,,,,,,,,,,,,,,,,,,,,,,,,,,,,,,,,,,,,,,,,,,,,,,,,,,,,,,,,,,,,,
,,,,421791,001,2023-11-09_22h16.29.873,fluency,2022.2.4,Win32,59.97001499,,,,,,,,,,,,,,,,,,,,,,,4,2,img/B02_04.jpg,BLEND,Press J if the face is a NON-BLEND and K if the face is a BLEND,A blend is a computer-generated image created by combining together multiple photos of real human faces. A non-blend is a regular photo of a human face.,KJ,,,,,,,,,,,,,,,,,,,,,,,,,,,,,,,,2,0.6661,,,,,,,,,,,,,,0,29,29,15,1,,,,,,,,,,,,,space,0.2723,,,,,,,,,,,,,,,,,,,,,,,,,,,,,,,,,,,,,,,,,,,,,,,,,,,,,,,,,,,,,,,,,,,
,,,,421791,001,2023-11-09_22h16.29.873,fluency,2022.2.4,Win32,59.97001499,,,,,,,,,,,,,,,,,,,,,,,7,8,img/B08_07.jpg,BLEND,Press J if the face is a NON-BLEND and K if the face is a BLEND,A blend is a computer-generated image created by combining together multiple photos of real human faces. A non-blend is a regular photo of a human face.,KJ,,,,,,,,,,,,,,,,,,,,,,,,,,,,,,,,,,,,,,,,,,,,,,368.377,0,30,30,84,1,109,0,0,0,0,1,98,,,,,,,,,,,,,,,,,,,,,,,,,,,,,,,,,,,,,,,,,,,,,,,,,,,,,,,,,,,,,,,,,,,,,,,,,,
,,,,421791,001,2023-11-09_22h16.29.873,fluency,2022.2.4,Win32,59.97001499,,,,,,,,,,,,,,,,,,,,,,,,,,,,,,,,,,,,,,,,,,,,,,,,,,,,,,,,,,,,,,,,,,,,,,,,,,,,,,,,,,0,0,0,0,1,,"[""j""]",[1.9082999999523054],2,"[""j""]",[1.9082999999523054],,,,,,,,,,,,,,,,,,,,,,,,,,,,,,,,,,,,,,,,,,,,,,,,,,,,,,,,,,,,,,,,,,,,,
,,,,421791,001,2023-11-09_22h16.29.873,fluency,2022.2.4,Win32,59.97001499,,,,,,,,,,,,,,,,,,,,,,,7,8,img/B08_07.jpg,BLEND,Press J if the face is a NON-BLEND and K if the face is a BLEND,A blend is a computer-generated image created by combining together multiple photos of real human faces. A non-blend is a regular photo of a human face.,KJ,,,,,,,,,,,,,,,,,,,,,,,,,,,,,,,,3,1.0223,,,,,,,,,,,,,,0,30,30,84,1,,,,,,,,,,,,,space,0.2877,,,,,,,,,,,,,,,,,,,,,,,,,,,,,,,,,,,,,,,,,,,,,,,,,,,,,,,,,,,,,,,,,,,
,,,,421791,001,2023-11-09_22h16.29.873,fluency,2022.2.4,Win32,59.97001499,,,,,,,,,,,,,,,,,,,,,,,8,5,img/B05_08.jpg,BLEND,Press J if the face is a NON-BLEND and K if the face is a BLEND,A blend is a computer-generated image created by combining together multiple photos of real human faces. A non-blend is a regular photo of a human face.,KJ,,,,,,,,,,,,,,,,,,,,,,,,,,,,,,,,,,,,,,,,,,,,,,374.7605,0,31,31,52,1,109,0,0,0,0,1,98,,,,,,,,,,,,,,,,,,,,,,,,,,,,,,,,,,,,,,,,,,,,,,,,,,,,,,,,,,,,,,,,,,,,,,,,,,
,,,,421791,001,2023-11-09_22h16.29.873,fluency,2022.2.4,Win32,59.97001499,,,,,,,,,,,,,,,,,,,,,,,,,,,,,,,,,,,,,,,,,,,,,,,,,,,,,,,,,,,,,,,,,,,,,,,,,,,,,,,,,,0,0,0,0,1,,"[""k""]",[0.9145000000000323],2,"[""k""]",[0.9144999999999754],,,,,,,,,,,,,,,,,,,,,,,,,,,,,,,,,,,,,,,,,,,,,,,,,,,,,,,,,,,,,,,,,,,,,
,,,,421791,001,2023-11-09_22h16.29.873,fluency,2022.2.4,Win32,59.97001499,,,,,,,,,,,,,,,,,,,,,,,8,5,img/B05_08.jpg,BLEND,Press J if the face is a NON-BLEND and K if the face is a BLEND,A blend is a computer-generated image created by combining together multiple photos of real human faces. A non-blend is a regular photo of a human face.,KJ,,,,,,,,,,,,,,,,,,,,,,,,,,,,,,,,2,0.2478,,,,,,,,,,,,,,0,31,31,52,1,,,,,,,,,,,,,space,0.3248,,,,,,,,,,,,,,,,,,,,,,,,,,,,,,,,,,,,,,,,,,,,,,,,,,,,,,,,,,,,,,,,,,,
,,,,421791,001,2023-11-09_22h16.29.873,fluency,2022.2.4,Win32,59.97001499,,,,,,,,,,,,,,,,,,,,,,,2,6,img/B06_02.jpg,BLEND,Press J if the face is a NON-BLEND and K if the face is a BLEND,A blend is a computer-generated image created by combining together multiple photos of real human faces. A non-blend is a regular photo of a human face.,KJ,,,,,,,,,,,,,,,,,,,,,,,,,,,,,,,,,,,,,,,,,,,,,,380.3941,0,32,32,57,1,109,0,0,0,0,1,98,,,,,,,,,,,,,,,,,,,,,,,,,,,,,,,,,,,,,,,,,,,,,,,,,,,,,,,,,,,,,,,,,,,,,,,,,,
,,,,421791,001,2023-11-09_22h16.29.873,fluency,2022.2.4,Win32,59.97001499,,,,,,,,,,,,,,,,,,,,,,,,,,,,,,,,,,,,,,,,,,,,,,,,,,,,,,,,,,,,,,,,,,,,,,,,,,,,,,,,,,0,0,0,0,1,,"[""j""]",[1.1216000001430757],2,"[""j""]",[1.1216000001430757],,,,,,,,,,,,,,,,,,,,,,,,,,,,,,,,,,,,,,,,,,,,,,,,,,,,,,,,,,,,,,,,,,,,,
,,,,421791,001,2023-11-09_22h16.29.873,fluency,2022.2.4,Win32,59.97001499,,,,,,,,,,,,,,,,,,,,,,,2,6,img/B06_02.jpg,BLEND,Press J if the face is a NON-BLEND and K if the face is a BLEND,A blend is a computer-generated image created by combining together multiple photos of real human faces. A non-blend is a regular photo of a human face.,KJ,,,,,,,,,,,,,,,,,,,,,,,,,,,,,,,,2,0.3224,,,,,,,,,,,,,,0,32,32,57,1,,,,,,,,,,,,,space,0.2933,,,,,,,,,,,,,,,,,,,,,,,,,,,,,,,,,,,,,,,,,,,,,,,,,,,,,,,,,,,,,,,,,,,
,,,,421791,001,2023-11-09_22h16.29.873,fluency,2022.2.4,Win32,59.97001499,,,,,,,,,,,,,,,,,,,,,,,3,7,img/B07_03.jpg,BLEND,Press J if the face is a NON-BLEND and K if the face is a BLEND,A blend is a computer-generated image created by combining together multiple photos of real human faces. A non-blend is a regular photo of a human face.,KJ,,,,,,,,,,,,,,,,,,,,,,,,,,,,,,,,,,,,,,,,,,,,,,385.0775,0,33,33,69,1,109,0,0,0,0,1,98,,,,,,,,,,,,,,,,,,,,,,,,,,,,,,,,,,,,,,,,,,,,,,,,,,,,,,,,,,,,,,,,,,,,,,,,,,
,,,,421791,001,2023-11-09_22h16.29.873,fluency,2022.2.4,Win32,59.97001499,,,,,,,,,,,,,,,,,,,,,,,,,,,,,,,,,,,,,,,,,,,,,,,,,,,,,,,,,,,,,,,,,,,,,,,,,,,,,,,,,,0,0,0,0,1,,"[""k""]",[1.3627999999523013],2,"[""k""]",[1.3627999999523013],,,,,,,,,,,,,,,,,,,,,,,,,,,,,,,,,,,,,,,,,,,,,,,,,,,,,,,,,,,,,,,,,,,,,
,,,,421791,001,2023-11-09_22h16.29.873,fluency,2022.2.4,Win32,59.97001499,,,,,,,,,,,,,,,,,,,,,,,3,7,img/B07_03.jpg,BLEND,Press J if the face is a NON-BLEND and K if the face is a BLEND,A blend is a computer-generated image created by combining together multiple photos of real human faces. A non-blend is a regular photo of a human face.,KJ,,,,,,,,,,,,,,,,,,,,,,,,,,,,,,,,3,0.5369,,,,,,,,,,,,,,0,33,33,69,1,,,,,,,,,,,,,space,0.2814,,,,,,,,,,,,,,,,,,,,,,,,,,,,,,,,,,,,,,,,,,,,,,,,,,,,,,,,,,,,,,,,,,,
,,,,421791,001,2023-11-09_22h16.29.873,fluency,2022.2.4,Win32,59.97001499,,,,,,,,,,,,,,,,,,,,,,,9,6,img/B06_09.jpg,BLEND,Press J if the face is a NON-BLEND and K if the face is a BLEND,A blend is a computer-generated image created by combining together multiple photos of real human faces. A non-blend is a regular photo of a human face.,KJ,,,,,,,,,,,,,,,,,,,,,,,,,,,,,,,,,,,,,,,,,,,,,,389.9782,0,34,34,64,1,109,0,0,0,0,1,98,,,,,,,,,,,,,,,,,,,,,,,,,,,,,,,,,,,,,,,,,,,,,,,,,,,,,,,,,,,,,,,,,,,,,,,,,,
,,,,421791,001,2023-11-09_22h16.29.873,fluency,2022.2.4,Win32,59.97001499,,,,,,,,,,,,,,,,,,,,,,,,,,,,,,,,,,,,,,,,,,,,,,,,,,,,,,,,,,,,,,,,,,,,,,,,,,,,,,,,,,0,0,0,0,1,,"[""k""]",[2.73759999990466],2,"[""k""]",[2.73759999990466],,,,,,,,,,,,,,,,,,,,,,,,,,,,,,,,,,,,,,,,,,,,,,,,,,,,,,,,,,,,,,,,,,,,,
,,,,421791,001,2023-11-09_22h16.29.873,fluency,2022.2.4,Win32,59.97001499,,,,,,,,,,,,,,,,,,,,,,,9,6,img/B06_09.jpg,BLEND,Press J if the face is a NON-BLEND and K if the face is a BLEND,A blend is a computer-generated image created by combining together multiple photos of real human faces. A non-blend is a regular photo of a human face.,KJ,,,,,,,,,,,,,,,,,,,,,,,,,,,,,,,,4,1.5936,,,,,,,,,,,,,,0,34,34,64,1,,,,,,,,,,,,,space,0.3666,,,,,,,,,,,,,,,,,,,,,,,,,,,,,,,,,,,,,,,,,,,,,,,,,,,,,,,,,,,,,,,,,,,
,,,,421791,001,2023-11-09_22h16.29.873,fluency,2022.2.4,Win32,59.97001499,,,,,,,,,,,,,,,,,,,,,,,6,8,img/B08_06.jpg,BLEND,Press J if the face is a NON-BLEND and K if the face is a BLEND,A blend is a computer-generated image created by combining together multiple photos of real human faces. A non-blend is a regular photo of a human face.,KJ,,,,,,,,,,,,,,,,,,,,,,,,,,,,,,,,,,,,,,,,,,,,,,395.9948,0,35,35,83,1,109,0,0,0,0,1,98,,,,,,,,,,,,,,,,,,,,,,,,,,,,,,,,,,,,,,,,,,,,,,,,,,,,,,,,,,,,,,,,,,,,,,,,,,
,,,,421791,001,2023-11-09_22h16.29.873,fluency,2022.2.4,Win32,59.97001499,,,,,,,,,,,,,,,,,,,,,,,,,,,,,,,,,,,,,,,,,,,,,,,,,,,,,,,,,,,,,,,,,,,,,,,,,,,,,,,,,,0,0,0,0,1,,"[""k""]",[0.948799999952314],2,"[""k""]",[0.948799999952314],,,,,,,,,,,,,,,,,,,,,,,,,,,,,,,,,,,,,,,,,,,,,,,,,,,,,,,,,,,,,,,,,,,,,
,,,,421791,001,2023-11-09_22h16.29.873,fluency,2022.2.4,Win32,59.97001499,,,,,,,,,,,,,,,,,,,,,,,6,8,img/B08_06.jpg,BLEND,Press J if the face is a NON-BLEND and K if the face is a BLEND,A blend is a computer-generated image created by combining together multiple photos of real human faces. A non-blend is a regular photo of a human face.,KJ,,,,,,,,,,,,,,,,,,,,,,,,,,,,,,,,4,0.3753,,,,,,,,,,,,,,0,35,35,83,1,,,,,,,,,,,,,space,0.6665,,,,,,,,,,,,,,,,,,,,,,,,,,,,,,,,,,,,,,,,,,,,,,,,,,,,,,,,,,,,,,,,,,,
,,,,421791,001,2023-11-09_22h16.29.873,fluency,2022.2.4,Win32,59.97001499,,,,,,,,,,,,,,,,,,,,,,,1,8,img/B08_01.jpg,BLEND,Press J if the face is a NON-BLEND and K if the face is a BLEND,A blend is a computer-generated image created by combining together multiple photos of real human faces. A non-blend is a regular photo of a human face.,KJ,,,,,,,,,,,,,,,,,,,,,,,,,,,,,,,,,,,,,,,,,,,,,,401.1111,0,36,36,78,1,109,0,0,0,0,1,98,,,,,,,,,,,,,,,,,,,,,,,,,,,,,,,,,,,,,,,,,,,,,,,,,,,,,,,,,,,,,,,,,,,,,,,,,,
,,,,421791,001,2023-11-09_22h16.29.873,fluency,2022.2.4,Win32,59.97001499,,,,,,,,,,,,,,,,,,,,,,,,,,,,,,,,,,,,,,,,,,,,,,,,,,,,,,,,,,,,,,,,,,,,,,,,,,,,,,,,,,0,0,0,0,1,,"[""k""]",[0.781799999952284],2,"[""k""]",[0.7818999998569325],,,,,,,,,,,,,,,,,,,,,,,,,,,,,,,,,,,,,,,,,,,,,,,,,,,,,,,,,,,,,,,,,,,,,
,,,,421791,001,2023-11-09_22h16.29.873,fluency,2022.2.4,Win32,59.97001499,,,,,,,,,,,,,,,,,,,,,,,1,8,img/B08_01.jpg,BLEND,Press J if the face is a NON-BLEND and K if the face is a BLEND,A blend is a computer-generated image created by combining together multiple photos of real human faces. A non-blend is a regular photo of a human face.,KJ,,,,,,,,,,,,,,,,,,,,,,,,,,,,,,,,3,0.4374,,,,,,,,,,,,,,0,36,36,78,1,,,,,,,,,,,,,space,0.3797,,,,,,,,,,,,,,,,,,,,,,,,,,,,,,,,,,,,,,,,,,,,,,,,,,,,,,,,,,,,,,,,,,,
,,,,421791,001,2023-11-09_22h16.29.873,fluency,2022.2.4,Win32,59.97001499,,,,,,,,,,,,,,,,,,,,,,,2,1,img/B01_02.jpg,BLEND,Press J if the face is a NON-BLEND and K if the face is a BLEND,A blend is a computer-generated image created by combining together multiple photos of real human faces. A non-blend is a regular photo of a human face.,KJ,,,,,,,,,,,,,,,,,,,,,,,,,,,,,,,,,,,,,,,,,,,,,,406.9949,0,37,37,2,1,109,0,0,0,0,1,98,,,,,,,,,,,,,,,,,,,,,,,,,,,,,,,,,,,,,,,,,,,,,,,,,,,,,,,,,,,,,,,,,,,,,,,,,,
,,,,421791,001,2023-11-09_22h16.29.873,fluency,2022.2.4,Win32,59.97001499,,,,,,,,,,,,,,,,,,,,,,,,,,,,,,,,,,,,,,,,,,,,,,,,,,,,,,,,,,,,,,,,,,,,,,,,,,,,,,,,,,0,0,0,0,1,,"[""k""]",[1.1387999999523117],2,"[""k""]",[1.138699999809262],,,,,,,,,,,,,,,,,,,,,,,,,,,,,,,,,,,,,,,,,,,,,,,,,,,,,,,,,,,,,,,,,,,,,
,,,,421791,001,2023-11-09_22h16.29.873,fluency,2022.2.4,Win32,59.97001499,,,,,,,,,,,,,,,,,,,,,,,2,1,img/B01_02.jpg,BLEND,Press J if the face is a NON-BLEND and K if the face is a BLEND,A blend is a computer-generated image created by combining together multiple photos of real human faces. A non-blend is a regular photo of a human face.,KJ,,,,,,,,,,,,,,,,,,,,,,,,,,,,,,,,2,0.3214,,,,,,,,,,,,,,0,37,37,2,1,,,,,,,,,,,,,space,0.302,,,,,,,,,,,,,,,,,,,,,,,,,,,,,,,,,,,,,,,,,,,,,,,,,,,,,,,,,,,,,,,,,,,
,,,,421791,001,2023-11-09_22h16.29.873,fluency,2022.2.4,Win32,59.97001499,,,,,,,,,,,,,,,,,,,,,,,4,8,img/B08_04.jpg,BLEND,Press J if the face is a NON-BLEND and K if the face is a BLEND,A blend is a computer-generated image created by combining together multiple photos of real human faces. A non-blend is a regular photo of a human face.,KJ,,,,,,,,,,,,,,,,,,,,,,,,,,,,,,,,,,,,,,,,,,,,,,412.6784,0,38,38,81,1,109,0,0,0,0,1,98,,,,,,,,,,,,,,,,,,,,,,,,,,,,,,,,,,,,,,,,,,,,,,,,,,,,,,,,,,,,,,,,,,,,,,,,,,
,,,,421791,001,2023-11-09_22h16.29.873,fluency,2022.2.4,Win32,59.97001499,,,,,,,,,,,,,,,,,,,,,,,,,,,,,,,,,,,,,,,,,,,,,,,,,,,,,,,,,,,,,,,,,,,,,,,,,,,,,,,,,,0,0,0,0,1,,"[""k""]",[0.7085999999046635],2,"[""k""]",[0.7071999998092906],,,,,,,,,,,,,,,,,,,,,,,,,,,,,,,,,,,,,,,,,,,,,,,,,,,,,,,,,,,,,,,,,,,,,
,,,,421791,001,2023-11-09_22h16.29.873,fluency,2022.2.4,Win32,59.97001499,,,,,,,,,,,,,,,,,,,,,,,4,8,img/B08_04.jpg,BLEND,Press J if the face is a NON-BLEND and K if the face is a BLEND,A blend is a computer-generated image created by combining together multiple photos of real human faces. A non-blend is a regular photo of a human face.,KJ,,,,,,,,,,,,,,,,,,,,,,,,,,,,,,,,2,1.2443,,,,,,,,,,,,,,0,38,38,81,1,,,,,,,,,,,,,space,0.4473,,,,,,,,,,,,,,,,,,,,,,,,,,,,,,,,,,,,,,,,,,,,,,,,,,,,,,,,,,,,,,,,,,,
,,,,421791,001,2023-11-09_22h16.29.873,fluency,2022.2.4,Win32,59.97001499,,,,,,,,,,,,,,,,,,,,,,,3,8,img/B08_03.jpg,BLEND,Press J if the face is a NON-BLEND and K if the face is a BLEND,A blend is a computer-generated image created by combining together multiple photos of real human faces. A non-blend is a regular photo of a human face.,KJ,,,,,,,,,,,,,,,,,,,,,,,,,,,,,,,,,,,,,,,,,,,,,,418.4122,0,39,39,80,1,109,0,0,0,0,1,98,,,,,,,,,,,,,,,,,,,,,,,,,,,,,,,,,,,,,,,,,,,,,,,,,,,,,,,,,,,,,,,,,,,,,,,,,,
,,,,421791,001,2023-11-09_22h16.29.873,fluency,2022.2.4,Win32,59.97001499,,,,,,,,,,,,,,,,,,,,,,,,,,,,,,,,,,,,,,,,,,,,,,,,,,,,,,,,,,,,,,,,,,,,,,,,,,,,,,,,,,0,0,0,0,1,,"[""k""]",[0.6962000000477246],2,"[""k""]",[0.6960000000000264],,,,,,,,,,,,,,,,,,,,,,,,,,,,,,,,,,,,,,,,,,,,,,,,,,,,,,,,,,,,,,,,,,,,,
,,,,421791,001,2023-11-09_22h16.29.873,fluency,2022.2.4,Win32,59.97001499,,,,,,,,,,,,,,,,,,,,,,,3,8,img/B08_03.jpg,BLEND,Press J if the face is a NON-BLEND and K if the face is a BLEND,A blend is a computer-generated image created by combining together multiple photos of real human faces. A non-blend is a regular photo of a human face.,KJ,,,,,,,,,,,,,,,,,,,,,,,,,,,,,,,,2,0.3322,,,,,,,,,,,,,,0,39,39,80,1,,,,,,,,,,,,,space,0.2669,,,,,,,,,,,,,,,,,,,,,,,,,,,,,,,,,,,,,,,,,,,,,,,,,,,,,,,,,,,,,,,,,,,
,,,,421791,001,2023-11-09_22h16.29.873,fluency,2022.2.4,Win32,59.97001499,,,,,,,,,,,,,,,,,,,,,,,3,10,img/B10_03.jpg,BLEND,Press J if the face is a NON-BLEND and K if the face is a BLEND,A blend is a computer-generated image created by combining together multiple photos of real human faces. A non-blend is a regular photo of a human face.,KJ,,,,,,,,,,,,,,,,,,,,,,,,,,,,,,,,,,,,,,,,,,,,,,423.0615,0,40,40,102,1,109,0,0,0,0,1,98,,,,,,,,,,,,,,,,,,,,,,,,,,,,,,,,,,,,,,,,,,,,,,,,,,,,,,,,,,,,,,,,,,,,,,,,,,
,,,,421791,001,2023-11-09_22h16.29.873,fluency,2022.2.4,Win32,59.97001499,,,,,,,,,,,,,,,,,,,,,,,,,,,,,,,,,,,,,,,,,,,,,,,,,,,,,,,,,,,,,,,,,,,,,,,,,,,,,,,,,,0,0,0,0,1,,"[""j""]",[1.357800000190764],2,"[""j""]",[1.357800000190764],,,,,,,,,,,,,,,,,,,,,,,,,,,,,,,,,,,,,,,,,,,,,,,,,,,,,,,,,,,,,,,,,,,,,
,,,,421791,001,2023-11-09_22h16.29.873,fluency,2022.2.4,Win32,59.97001499,,,,,,,,,,,,,,,,,,,,,,,3,10,img/B10_03.jpg,BLEND,Press J if the face is a NON-BLEND and K if the face is a BLEND,A blend is a computer-generated image created by combining together multiple photos of real human faces. A non-blend is a regular photo of a human face.,KJ,,,,,,,,,,,,,,,,,,,,,,,,,,,,,,,,2,0.6316,,,,,,,,,,,,,,0,40,40,102,1,,,,,,,,,,,,,space,0.5828,,,,,,,,,,,,,,,,,,,,,,,,,,,,,,,,,,,,,,,,,,,,,,,,,,,,,,,,,,,,,,,,,,,
,,,,421791,001,2023-11-09_22h16.29.873,fluency,2022.2.4,Win32,59.97001499,,,,,,,,,,,,,,,,,,,,,,,5,4,img/B04_05.jpg,BLEND,Press J if the face is a NON-BLEND and K if the face is a BLEND,A blend is a computer-generated image created by combining together multiple photos of real human faces. A non-blend is a regular photo of a human face.,KJ,,,,,,,,,,,,,,,,,,,,,,,,,,,,,,,,,,,,,,,,,,,,,,428.3462,0,41,41,38,1,109,0,0,0,0,1,98,,,,,,,,,,,,,,,,,,,,,,,,,,,,,,,,,,,,,,,,,,,,,,,,,,,,,,,,,,,,,,,,,,,,,,,,,,
,,,,421791,001,2023-11-09_22h16.29.873,fluency,2022.2.4,Win32,59.97001499,,,,,,,,,,,,,,,,,,,,,,,,,,,,,,,,,,,,,,,,,,,,,,,,,,,,,,,,,,,,,,,,,,,,,,,,,,,,,,,,,,0,0,0,0,1,,"[""k""]",[1.8129999999999882],2,"[""k""]",[1.8129999999999882],,,,,,,,,,,,,,,,,,,,,,,,,,,,,,,,,,,,,,,,,,,,,,,,,,,,,,,,,,,,,,,,,,,,,
,,,,421791,001,2023-11-09_22h16.29.873,fluency,2022.2.4,Win32,59.97001499,,,,,,,,,,,,,,,,,,,,,,,5,4,img/B04_05.jpg,BLEND,Press J if the face is a NON-BLEND and K if the face is a BLEND,A blend is a computer-generated image created by combining together multiple photos of real human faces. A non-blend is a regular photo of a human face.,KJ,,,,,,,,,,,,,,,,,,,,,,,,,,,,,,,,2,0.6461,,,,,,,,,,,,,,0,41,41,38,1,,,,,,,,,,,,,space,0.2287,,,,,,,,,,,,,,,,,,,,,,,,,,,,,,,,,,,,,,,,,,,,,,,,,,,,,,,,,,,,,,,,,,,
,,,,421791,001,2023-11-09_22h16.29.873,fluency,2022.2.4,Win32,59.97001499,,,,,,,,,,,,,,,,,,,,,,,7,9,img/B09_07.jpg,BLEND,Press J if the face is a NON-BLEND and K if the face is a BLEND,A blend is a computer-generated image created by combining together multiple photos of real human faces. A non-blend is a regular photo of a human face.,KJ,,,,,,,,,,,,,,,,,,,,,,,,,,,,,,,,,,,,,,,,,,,,,,433.2624,0,42,42,95,1,109,0,0,0,0,1,98,,,,,,,,,,,,,,,,,,,,,,,,,,,,,,,,,,,,,,,,,,,,,,,,,,,,,,,,,,,,,,,,,,,,,,,,,,
,,,,421791,001,2023-11-09_22h16.29.873,fluency,2022.2.4,Win32,59.97001499,,,,,,,,,,,,,,,,,,,,,,,,,,,,,,,,,,,,,,,,,,,,,,,,,,,,,,,,,,,,,,,,,,,,,,,,,,,,,,,,,,0,0,0,0,1,,"[""k""]",[0.6582999999523622],2,"[""k""]",[0.6571000001430889],,,,,,,,,,,,,,,,,,,,,,,,,,,,,,,,,,,,,,,,,,,,,,,,,,,,,,,,,,,,,,,,,,,,,
,,,,421791,001,2023-11-09_22h16.29.873,fluency,2022.2.4,Win32,59.97001499,,,,,,,,,,,,,,,,,,,,,,,7,9,img/B09_07.jpg,BLEND,Press J if the face is a NON-BLEND and K if the face is a BLEND,A blend is a computer-generated image created by combining together multiple photos of real human faces. A non-blend is a regular photo of a human face.,KJ,,,,,,,,,,,,,,,,,,,,,,,,,,,,,,,,2,0.353,,,,,,,,,,,,,,0,42,42,95,1,,,,,,,,,,,,,space,0.3892,,,,,,,,,,,,,,,,,,,,,,,,,,,,,,,,,,,,,,,,,,,,,,,,,,,,,,,,,,,,,,,,,,,
,,,,421791,001,2023-11-09_22h16.29.873,fluency,2022.2.4,Win32,59.97001499,,,,,,,,,,,,,,,,,,,,,,,0,5,img/B05_00.jpg,BLEND,Press J if the face is a NON-BLEND and K if the face is a BLEND,A blend is a computer-generated image created by combining together multiple photos of real human faces. A non-blend is a regular photo of a human face.,KJ,,,,,,,,,,,,,,,,,,,,,,,,,,,,,,,,,,,,,,,,,,,,,,438.0628,0,43,43,44,1,109,0,0,0,0,1,98,,,,,,,,,,,,,,,,,,,,,,,,,,,,,,,,,,,,,,,,,,,,,,,,,,,,,,,,,,,,,,,,,,,,,,,,,,
,,,,421791,001,2023-11-09_22h16.29.873,fluency,2022.2.4,Win32,59.97001499,,,,,,,,,,,,,,,,,,,,,,,,,,,,,,,,,,,,,,,,,,,,,,,,,,,,,,,,,,,,,,,,,,,,,,,,,,,,,,,,,,0,0,0,0,1,,"[""k""]",[1.039299999952334],2,"[""k""]",[1.039299999952334],,,,,,,,,,,,,,,,,,,,,,,,,,,,,,,,,,,,,,,,,,,,,,,,,,,,,,,,,,,,,,,,,,,,,
,,,,421791,001,2023-11-09_22h16.29.873,fluency,2022.2.4,Win32,59.97001499,,,,,,,,,,,,,,,,,,,,,,,0,5,img/B05_00.jpg,BLEND,Press J if the face is a NON-BLEND and K if the face is a BLEND,A blend is a computer-generated image created by combining together multiple photos of real human faces. A non-blend is a regular photo of a human face.,KJ,,,,,,,,,,,,,,,,,,,,,,,,,,,,,,,,1,0.3723,,,,,,,,,,,,,,0,43,43,44,1,,,,,,,,,,,,,space,0.2688,,,,,,,,,,,,,,,,,,,,,,,,,,,,,,,,,,,,,,,,,,,,,,,,,,,,,,,,,,,,,,,,,,,
,,,,421791,001,2023-11-09_22h16.29.873,fluency,2022.2.4,Win32,59.97001499,,,,,,,,,,,,,,,,,,,,,,,5,7,img/B07_05.jpg,BLEND,Press J if the face is a NON-BLEND and K if the face is a BLEND,A blend is a computer-generated image created by combining together multiple photos of real human faces. A non-blend is a regular photo of a human face.,KJ,,,,,,,,,,,,,,,,,,,,,,,,,,,,,,,,,,,,,,,,,,,,,,443.7635,0,44,44,71,1,109,0,0,0,0,1,98,,,,,,,,,,,,,,,,,,,,,,,,,,,,,,,,,,,,,,,,,,,,,,,,,,,,,,,,,,,,,,,,,,,,,,,,,,
,,,,421791,001,2023-11-09_22h16.29.873,fluency,2022.2.4,Win32,59.97001499,,,,,,,,,,,,,,,,,,,,,,,,,,,,,,,,,,,,,,,,,,,,,,,,,,,,,,,,,,,,,,,,,,,,,,,,,,,,,,,,,,0,0,0,0,1,,"[""k""]",[0.8267000000476514],2,"[""k""]",[0.8267000000476514],,,,,,,,,,,,,,,,,,,,,,,,,,,,,,,,,,,,,,,,,,,,,,,,,,,,,,,,,,,,,,,,,,,,,
,,,,421791,001,2023-11-09_22h16.29.873,fluency,2022.2.4,Win32,59.97001499,,,,,,,,,,,,,,,,,,,,,,,5,7,img/B07_05.jpg,BLEND,Press J if the face is a NON-BLEND and K if the face is a BLEND,A blend is a computer-generated image created by combining together multiple photos of real human faces. A non-blend is a regular photo of a human face.,KJ,,,,,,,,,,,,,,,,,,,,,,,,,,,,,,,,1,0.364,,,,,,,,,,,,,,0,44,44,71,1,,,,,,,,,,,,,space,0.3004,,,,,,,,,,,,,,,,,,,,,,,,,,,,,,,,,,,,,,,,,,,,,,,,,,,,,,,,,,,,,,,,,,,
,,,,421791,001,2023-11-09_22h16.29.873,fluency,2022.2.4,Win32,59.97001499,,,,,,,,,,,,,,,,,,,,,,,9,8,img/B08_09.jpg,BLEND,Press J if the face is a NON-BLEND and K if the face is a BLEND,A blend is a computer-generated image created by combining together multiple photos of real human faces. A non-blend is a regular photo of a human face.,KJ,,,,,,,,,,,,,,,,,,,,,,,,,,,,,,,,,,,,,,,,,,,,,,448.4967,0,45,45,86,1,109,0,0,0,0,1,98,,,,,,,,,,,,,,,,,,,,,,,,,,,,,,,,,,,,,,,,,,,,,,,,,,,,,,,,,,,,,,,,,,,,,,,,,,
,,,,421791,001,2023-11-09_22h16.29.873,fluency,2022.2.4,Win32,59.97001499,,,,,,,,,,,,,,,,,,,,,,,,,,,,,,,,,,,,,,,,,,,,,,,,,,,,,,,,,,,,,,,,,,,,,,,,,,,,,,,,,,0,0,0,0,1,,"[""j""]",[2.221499999999992],2,"[""j""]",[2.2214000000954],,,,,,,,,,,,,,,,,,,,,,,,,,,,,,,,,,,,,,,,,,,,,,,,,,,,,,,,,,,,,,,,,,,,,
,,,,421791,001,2023-11-09_22h16.29.873,fluency,2022.2.4,Win32,59.97001499,,,,,,,,,,,,,,,,,,,,,,,9,8,img/B08_09.jpg,BLEND,Press J if the face is a NON-BLEND and K if the face is a BLEND,A blend is a computer-generated image created by combining together multiple photos of real human faces. A non-blend is a regular photo of a human face.,KJ,,,,,,,,,,,,,,,,,,,,,,,,,,,,,,,,2,1.3246,,,,,,,,,,,,,,0,45,45,86,1,,,,,,,,,,,,,space,0.276,,,,,,,,,,,,,,,,,,,,,,,,,,,,,,,,,,,,,,,,,,,,,,,,,,,,,,,,,,,,,,,,,,,
,,,,421791,001,2023-11-09_22h16.29.873,fluency,2022.2.4,Win32,59.97001499,,,,,,,,,,,,,,,,,,,,,,,6,6,img/B06_06.jpg,BLEND,Press J if the face is a NON-BLEND and K if the face is a BLEND,A blend is a computer-generated image created by combining together multiple photos of real human faces. A non-blend is a regular photo of a human face.,KJ,,,,,,,,,,,,,,,,,,,,,,,,,,,,,,,,,,,,,,,,,,,,,,455.1482,0,46,46,61,1,109,0,0,0,0,1,98,,,,,,,,,,,,,,,,,,,,,,,,,,,,,,,,,,,,,,,,,,,,,,,,,,,,,,,,,,,,,,,,,,,,,,,,,,
,,,,421791,001,2023-11-09_22h16.29.873,fluency,2022.2.4,Win32,59.97001499,,,,,,,,,,,,,,,,,,,,,,,,,,,,,,,,,,,,,,,,,,,,,,,,,,,,,,,,,,,,,,,,,,,,,,,,,,,,,,,,,,0,0,0,0,1,,"[""k""]",[0.8267999999522999],2,"[""k""]",[0.8267000000476514],,,,,,,,,,,,,,,,,,,,,,,,,,,,,,,,,,,,,,,,,,,,,,,,,,,,,,,,,,,,,,,,,,,,,
,,,,421791,001,2023-11-09_22h16.29.873,fluency,2022.2.4,Win32,59.97001499,,,,,,,,,,,,,,,,,,,,,,,6,6,img/B06_06.jpg,BLEND,Press J if the face is a NON-BLEND and K if the face is a BLEND,A blend is a computer-generated image created by combining together multiple photos of real human faces. A non-blend is a regular photo of a human face.,KJ,,,,,,,,,,,,,,,,,,,,,,,,,,,,,,,,2,0.2464,,,,,,,,,,,,,,0,46,46,61,1,,,,,,,,,,,,,space,0.2846,,,,,,,,,,,,,,,,,,,,,,,,,,,,,,,,,,,,,,,,,,,,,,,,,,,,,,,,,,,,,,,,,,,
,,,,421791,001,2023-11-09_22h16.29.873,fluency,2022.2.4,Win32,59.97001499,,,,,,,,,,,,,,,,,,,,,,,10,2,img/B02_10.jpg,BLEND,Press J if the face is a NON-BLEND and K if the face is a BLEND,A blend is a computer-generated image created by combining together multiple photos of real human faces. A non-blend is a regular photo of a human face.,KJ,,,,,,,,,,,,,,,,,,,,,,,,,,,,,,,,,,,,,,,,,,,,,,459.7643,0,47,47,21,1,109,0,0,0,0,1,98,,,,,,,,,,,,,,,,,,,,,,,,,,,,,,,,,,,,,,,,,,,,,,,,,,,,,,,,,,,,,,,,,,,,,,,,,,
,,,,421791,001,2023-11-09_22h16.29.873,fluency,2022.2.4,Win32,59.97001499,,,,,,,,,,,,,,,,,,,,,,,,,,,,,,,,,,,,,,,,,,,,,,,,,,,,,,,,,,,,,,,,,,,,,,,,,,,,,,,,,,0,0,0,0,1,,,,2,,,,,,,,,,,,,,,,,,,,,,,,,,,,,,,,,,,,,,,,,,,,,,,,,,,,,,,,,,,,,,,,,,,,,,,
,,,,421791,001,2023-11-09_22h16.29.873,fluency,2022.2.4,Win32,59.97001499,,,,,,,,,,,,,,,,,,,,,,,10,2,img/B02_10.jpg,BLEND,Press J if the face is a NON-BLEND and K if the face is a BLEND,A blend is a computer-generated image created by combining together multiple photos of real human faces. A non-blend is a regular photo of a human face.,KJ,,,,,,,,,,,,,,,,,,,,,,,,,,,,,,,,3,2.1696,,,,,,,,,,,,,,0,47,47,21,1,,,,,,,,,,,,,space,0.2013,,,,,,,,,,,,,,,,,,,,,,,,,,,,,,,,,,,,,,,,,,,,,,,,,,,,,,,,,,,,,,,,,,,
,,,,421791,001,2023-11-09_22h16.29.873,fluency,2022.2.4,Win32,59.97001499,,,,,,,,,,,,,,,,,,,,,,,3,1,img/B01_03.jpg,BLEND,Press J if the face is a NON-BLEND and K if the face is a BLEND,A blend is a computer-generated image created by combining together multiple photos of real human faces. A non-blend is a regular photo of a human face.,KJ,,,,,,,,,,,,,,,,,,,,,,,,,,,,,,,,,,,,,,,,,,,,,,466.2142,0,48,48,3,1,109,0,0,0,0,1,98,,,,,,,,,,,,,,,,,,,,,,,,,,,,,,,,,,,,,,,,,,,,,,,,,,,,,,,,,,,,,,,,,,,,,,,,,,
,,,,421791,001,2023-11-09_22h16.29.873,fluency,2022.2.4,Win32,59.97001499,,,,,,,,,,,,,,,,,,,,,,,,,,,,,,,,,,,,,,,,,,,,,,,,,,,,,,,,,,,,,,,,,,,,,,,,,,,,,,,,,,0,0,0,0,1,,"[""k""]",[0.8957999999523167],2,"[""k"",""k""]","[-3.4769999999999754,0.895699999809267]",,,,,,,,,,,,,,,,,,,,,,,,,,,,,,,,,,,,,,,,,,,,,,,,,,,,,,,,,,,,,,,,,,,,,
,,,,421791,001,2023-11-09_22h16.29.873,fluency,2022.2.4,Win32,59.97001499,,,,,,,,,,,,,,,,,,,,,,,3,1,img/B01_03.jpg,BLEND,Press J if the face is a NON-BLEND and K if the face is a BLEND,A blend is a computer-generated image created by combining together multiple photos of real human faces. A non-blend is a regular photo of a human face.,KJ,,,,,,,,,,,,,,,,,,,,,,,,,,,,,,,,3,0.833,,,,,,,,,,,,,,0,48,48,3,1,,,,,,,,,,,,,space,0.2766,,,,,,,,,,,,,,,,,,,,,,,,,,,,,,,,,,,,,,,,,,,,,,,,,,,,,,,,,,,,,,,,,,,
,,,,421791,001,2023-11-09_22h16.29.873,fluency,2022.2.4,Win32,59.97001499,,,,,,,,,,,,,,,,,,,,,,,1,6,img/B06_01.jpg,BLEND,Press J if the face is a NON-BLEND and K if the face is a BLEND,A blend is a computer-generated image created by combining together multiple photos of real human faces. A non-blend is a regular photo of a human face.,KJ,,,,,,,,,,,,,,,,,,,,,,,,,,,,,,,,,,,,,,,,,,,,,,472.3643,0,49,49,56,1,109,0,0,0,0,1,98,,,,,,,,,,,,,,,,,,,,,,,,,,,,,,,,,,,,,,,,,,,,,,,,,,,,,,,,,,,,,,,,,,,,,,,,,,
,,,,421791,001,2023-11-09_22h16.29.873,fluency,2022.2.4,Win32,59.97001499,,,,,,,,,,,,,,,,,,,,,,,,,,,,,,,,,,,,,,,,,,,,,,,,,,,,,,,,,,,,,,,,,,,,,,,,,,,,,,,,,,0,0,0,0,1,,"[""j""]",[0.9288000001907335],2,"[""j""]",[0.9287000000476837],,,,,,,,,,,,,,,,,,,,,,,,,,,,,,,,,,,,,,,,,,,,,,,,,,,,,,,,,,,,,,,,,,,,,
,,,,421791,001,2023-11-09_22h16.29.873,fluency,2022.2.4,Win32,59.97001499,,,,,,,,,,,,,,,,,,,,,,,1,6,img/B06_01.jpg,BLEND,Press J if the face is a NON-BLEND and K if the face is a BLEND,A blend is a computer-generated image created by combining together multiple photos of real human faces. A non-blend is a regular photo of a human face.,KJ,,,,,,,,,,,,,,,,,,,,,,,,,,,,,,,,3,0.45,,,,,,,,,,,,,,0,49,49,56,1,,,,,,,,,,,,,space,0.2749,,,,,,,,,,,,,,,,,,,,,,,,,,,,,,,,,,,,,,,,,,,,,,,,,,,,,,,,,,,,,,,,,,,
,,,,421791,001,2023-11-09_22h16.29.873,fluency,2022.2.4,Win32,59.97001499,,,,,,,,,,,,,,,,,,,,,,,8,10,img/B10_08.jpg,BLEND,Press J if the face is a NON-BLEND and K if the face is a BLEND,A blend is a computer-generated image created by combining together multiple photos of real human faces. A non-blend is a regular photo of a human face.,KJ,,,,,,,,,,,,,,,,,,,,,,,,,,,,,,,,,,,,,,,,,,,,,,477.1319,0,50,50,107,1,109,0,0,0,0,1,98,,,,,,,,,,,,,,,,,,,,,,,,,,,,,,,,,,,,,,,,,,,,,,,,,,,,,,,,,,,,,,,,,,,,,,,,,,
,,,,421791,001,2023-11-09_22h16.29.873,fluency,2022.2.4,Win32,59.97001499,,,,,,,,,,,,,,,,,,,,,,,,,,,,,,,,,,,,,,,,,,,,,,,,,,,,,,,,,,,,,,,,,,,,,,,,,,,,,,,,,,0,0,0,0,1,,"[""j""]",[2.9215000000000373],2,"[""j""]",[2.9213999998569875],,,,,,,,,,,,,,,,,,,,,,,,,,,,,,,,,,,,,,,,,,,,,,,,,,,,,,,,,,,,,,,,,,,,,
,,,,421791,001,2023-11-09_22h16.29.873,fluency,2022.2.4,Win32,59.97001499,,,,,,,,,,,,,,,,,,,,,,,8,10,img/B10_08.jpg,BLEND,Press J if the face is a NON-BLEND and K if the face is a BLEND,A blend is a computer-generated image created by combining together multiple photos of real human faces. A non-blend is a regular photo of a human face.,KJ,,,,,,,,,,,,,,,,,,,,,,,,,,,,,,,,3,1.11,,,,,,,,,,,,,,0,50,50,107,1,,,,,,,,,,,,,space,0.6183,,,,,,,,,,,,,,,,,,,,,,,,,,,,,,,,,,,,,,,,,,,,,,,,,,,,,,,,,,,,,,,,,,,
,,,,421791,001,2023-11-09_22h16.29.873,fluency,2022.2.4,Win32,59.97001499,,,,,,,,,,,,,,,,,,,,,,,4,3,img/B03_04.jpg,BLEND,Press J if the face is a NON-BLEND and K if the face is a BLEND,A blend is a computer-generated image created by combining together multiple photos of real human faces. A non-blend is a regular photo of a human face.,KJ,,,,,,,,,,,,,,,,,,,,,,,,,,,,,,,,,,,,,,,,,,,,,,482.9319,0,51,51,26,1,109,0,0,0,0,1,98,,,,,,,,,,,,,,,,,,,,,,,,,,,,,,,,,,,,,,,,,,,,,,,,,,,,,,,,,,,,,,,,,,,,,,,,,,
,,,,421791,001,2023-11-09_22h16.29.873,fluency,2022.2.4,Win32,59.97001499,,,,,,,,,,,,,,,,,,,,,,,,,,,,,,,,,,,,,,,,,,,,,,,,,,,,,,,,,,,,,,,,,,,,,,,,,,,,,,,,,,0,0,0,0,1,,"[""k""]",[0.7772999999522767],2,"[""k""]",[0.7770999999046353],,,,,,,,,,,,,,,,,,,,,,,,,,,,,,,,,,,,,,,,,,,,,,,,,,,,,,,,,,,,,,,,,,,,,
,,,,421791,001,2023-11-09_22h16.29.873,fluency,2022.2.4,Win32,59.97001499,,,,,,,,,,,,,,,,,,,,,,,4,3,img/B03_04.jpg,BLEND,Press J if the face is a NON-BLEND and K if the face is a BLEND,A blend is a computer-generated image created by combining together multiple photos of real human faces. A non-blend is a regular photo of a human face.,KJ,,,,,,,,,,,,,,,,,,,,,,,,,,,,,,,,2,0.2877,,,,,,,,,,,,,,0,51,51,26,1,,,,,,,,,,,,,space,0.3035,,,,,,,,,,,,,,,,,,,,,,,,,,,,,,,,,,,,,,,,,,,,,,,,,,,,,,,,,,,,,,,,,,,
,,,,421791,001,2023-11-09_22h16.29.873,fluency,2022.2.4,Win32,59.97001499,,,,,,,,,,,,,,,,,,,,,,,5,6,img/B06_05.jpg,BLEND,Press J if the face is a NON-BLEND and K if the face is a BLEND,A blend is a computer-generated image created by combining together multiple photos of real human faces. A non-blend is a regular photo of a human face.,KJ,,,,,,,,,,,,,,,,,,,,,,,,,,,,,,,,,,,,,,,,,,,,,,487.5987,0,52,52,60,1,109,0,0,0,0,1,98,,,,,,,,,,,,,,,,,,,,,,,,,,,,,,,,,,,,,,,,,,,,,,,,,,,,,,,,,,,,,,,,,,,,,,,,,,
,,,,421791,001,2023-11-09_22h16.29.873,fluency,2022.2.4,Win32,59.97001499,,,,,,,,,,,,,,,,,,,,,,,,,,,,,,,,,,,,,,,,,,,,,,,,,,,,,,,,,,,,,,,,,,,,,,,,,,,,,,,,,,0,0,0,0,1,,"[""k""]",[1.0592000000476673],2,"[""k""]",[1.0592000000476673],,,,,,,,,,,,,,,,,,,,,,,,,,,,,,,,,,,,,,,,,,,,,,,,,,,,,,,,,,,,,,,,,,,,,
,,,,421791,001,2023-11-09_22h16.29.873,fluency,2022.2.4,Win32,59.97001499,,,,,,,,,,,,,,,,,,,,,,,5,6,img/B06_05.jpg,BLEND,Press J if the face is a NON-BLEND and K if the face is a BLEND,A blend is a computer-generated image created by combining together multiple photos of real human faces. A non-blend is a regular photo of a human face.,KJ,,,,,,,,,,,,,,,,,,,,,,,,,,,,,,,,3,0.3092,,,,,,,,,,,,,,0,52,52,60,1,,,,,,,,,,,,,space,0.2751,,,,,,,,,,,,,,,,,,,,,,,,,,,,,,,,,,,,,,,,,,,,,,,,,,,,,,,,,,,,,,,,,,,
,,,,421791,001,2023-11-09_22h16.29.873,fluency,2022.2.4,Win32,59.97001499,,,,,,,,,,,,,,,,,,,,,,,2,8,img/B08_02.jpg,BLEND,Press J if the face is a NON-BLEND and K if the face is a BLEND,A blend is a computer-generated image created by combining together multiple photos of real human faces. A non-blend is a regular photo of a human face.,KJ,,,,,,,,,,,,,,,,,,,,,,,,,,,,,,,,,,,,,,,,,,,,,,493.2491,0,53,53,79,1,109,0,0,0,0,1,98,,,,,,,,,,,,,,,,,,,,,,,,,,,,,,,,,,,,,,,,,,,,,,,,,,,,,,,,,,,,,,,,,,,,,,,,,,
,,,,421791,001,2023-11-09_22h16.29.873,fluency,2022.2.4,Win32,59.97001499,,,,,,,,,,,,,,,,,,,,,,,,,,,,,,,,,,,,,,,,,,,,,,,,,,,,,,,,,,,,,,,,,,,,,,,,,,,,,,,,,,0,0,0,0,1,,"[""k""]",[0.6297999999524109],2,"[""k""]",[0.6297000000477055],,,,,,,,,,,,,,,,,,,,,,,,,,,,,,,,,,,,,,,,,,,,,,,,,,,,,,,,,,,,,,,,,,,,,
,,,,421791,001,2023-11-09_22h16.29.873,fluency,2022.2.4,Win32,59.97001499,,,,,,,,,,,,,,,,,,,,,,,2,8,img/B08_02.jpg,BLEND,Press J if the face is a NON-BLEND and K if the face is a BLEND,A blend is a computer-generated image created by combining together multiple photos of real human faces. A non-blend is a regular photo of a human face.,KJ,,,,,,,,,,,,,,,,,,,,,,,,,,,,,,,,3,0.2898,,,,,,,,,,,,,,0,53,53,79,1,,,,,,,,,,,,,space,0.3748,,,,,,,,,,,,,,,,,,,,,,,,,,,,,,,,,,,,,,,,,,,,,,,,,,,,,,,,,,,,,,,,,,,
,,,,421791,001,2023-11-09_22h16.29.873,fluency,2022.2.4,Win32,59.97001499,,,,,,,,,,,,,,,,,,,,,,,2,9,img/B09_02.jpg,BLEND,Press J if the face is a NON-BLEND and K if the face is a BLEND,A blend is a computer-generated image created by combining together multiple photos of real human faces. A non-blend is a regular photo of a human face.,KJ,,,,,,,,,,,,,,,,,,,,,,,,,,,,,,,,,,,,,,,,,,,,,,497.9827,0,54,54,90,1,109,0,0,0,0,1,98,,,,,,,,,,,,,,,,,,,,,,,,,,,,,,,,,,,,,,,,,,,,,,,,,,,,,,,,,,,,,,,,,,,,,,,,,,
,,,,421791,001,2023-11-09_22h16.29.873,fluency,2022.2.4,Win32,59.97001499,,,,,,,,,,,,,,,,,,,,,,,,,,,,,,,,,,,,,,,,,,,,,,,,,,,,,,,,,,,,,,,,,,,,,,,,,,,,,,,,,,0,0,0,0,1,,"[""k""]",[2.6075999999046644],2,"[""k""]",[2.6075999999046644],,,,,,,,,,,,,,,,,,,,,,,,,,,,,,,,,,,,,,,,,,,,,,,,,,,,,,,,,,,,,,,,,,,,,
,,,,421791,001,2023-11-09_22h16.29.873,fluency,2022.2.4,Win32,59.97001499,,,,,,,,,,,,,,,,,,,,,,,2,9,img/B09_02.jpg,BLEND,Press J if the face is a NON-BLEND and K if the face is a BLEND,A blend is a computer-generated image created by combining together multiple photos of real human faces. A non-blend is a regular photo of a human face.,KJ,,,,,,,,,,,,,,,,,,,,,,,,,,,,,,,,2,0.5808,,,,,,,,,,,,,,0,54,54,90,1,,,,,,,,,,,,,space,0.2666,,,,,,,,,,,,,,,,,,,,,,,,,,,,,,,,,,,,,,,,,,,,,,,,,,,,,,,,,,,,,,,,,,,
,,,,421791,001,2023-11-09_22h16.29.873,fluency,2022.2.4,Win32,59.97001499,,,,,,,,,,,,,,,,,,,,,,,10,9,img/B09_10.jpg,BLEND,Press J if the face is a NON-BLEND and K if the face is a BLEND,A blend is a computer-generated image created by combining together multiple photos of real human faces. A non-blend is a regular photo of a human face.,KJ,,,,,,,,,,,,,,,,,,,,,,,,,,,,,,,,,,,,,,,,,,,,,,503.8995,0,55,55,98,1,109,0,0,0,0,1,98,,,,,,,,,,,,,,,,,,,,,,,,,,,,,,,,,,,,,,,,,,,,,,,,,,,,,,,,,,,,,,,,,,,,,,,,,,
,,,,421791,001,2023-11-09_22h16.29.873,fluency,2022.2.4,Win32,59.97001499,,,,,,,,,,,,,,,,,,,,,,,,,,,,,,,,,,,,,,,,,,,,,,,,,,,,,,,,,,,,,,,,,,,,,,,,,,,,,,,,,,0,0,0,0,1,,"[""k""]",[0.6489000000952956],2,"[""k""]",[0.6488999998568943],,,,,,,,,,,,,,,,,,,,,,,,,,,,,,,,,,,,,,,,,,,,,,,,,,,,,,,,,,,,,,,,,,,,,
,,,,421791,001,2023-11-09_22h16.29.873,fluency,2022.2.4,Win32,59.97001499,,,,,,,,,,,,,,,,,,,,,,,10,9,img/B09_10.jpg,BLEND,Press J if the face is a NON-BLEND and K if the face is a BLEND,A blend is a computer-generated image created by combining together multiple photos of real human faces. A non-blend is a regular photo of a human face.,KJ,,,,,,,,,,,,,,,,,,,,,,,,,,,,,,,,1,0.2846,,,,,,,,,,,,,,0,55,55,98,1,,,,,,,,,,,,,space,0.3615,,,,,,,,,,,,,,,,,,,,,,,,,,,,,,,,,,,,,,,,,,,,,,,,,,,,,,,,,,,,,,,,,,,
,,,,421791,001,2023-11-09_22h16.29.873,fluency,2022.2.4,Win32,59.97001499,,,,,,,,,,,,,,,,,,,,,,,10,5,img/B05_10.jpg,BLEND,Press J if the face is a NON-BLEND and K if the face is a BLEND,A blend is a computer-generated image created by combining together multiple photos of real human faces. A non-blend is a regular photo of a human face.,KJ,,,,,,,,,,,,,,,,,,,,,,,,,,,,,,,,,,,,,,,,,,,,,,508.5995,0,56,56,54,1,109,0,0,0,0,1,98,,,,,,,,,,,,,,,,,,,,,,,,,,,,,,,,,,,,,,,,,,,,,,,,,,,,,,,,,,,,,,,,,,,,,,,,,,
,,,,421791,001,2023-11-09_22h16.29.873,fluency,2022.2.4,Win32,59.97001499,,,,,,,,,,,,,,,,,,,,,,,,,,,,,,,,,,,,,,,,,,,,,,,,,,,,,,,,,,,,,,,,,,,,,,,,,,,,,,,,,,0,0,0,0,1,,"[""j""]",[1.9882999999523463],2,"[""j""]",[1.9882000000477547],,,,,,,,,,,,,,,,,,,,,,,,,,,,,,,,,,,,,,,,,,,,,,,,,,,,,,,,,,,,,,,,,,,,,
,,,,421791,001,2023-11-09_22h16.29.873,fluency,2022.2.4,Win32,59.97001499,,,,,,,,,,,,,,,,,,,,,,,10,5,img/B05_10.jpg,BLEND,Press J if the face is a NON-BLEND and K if the face is a BLEND,A blend is a computer-generated image created by combining together multiple photos of real human faces. A non-blend is a regular photo of a human face.,KJ,,,,,,,,,,,,,,,,,,,,,,,,,,,,,,,,3,0.369,,,,,,,,,,,,,,0,56,56,54,1,,,,,,,,,,,,,space,0.3171,,,,,,,,,,,,,,,,,,,,,,,,,,,,,,,,,,,,,,,,,,,,,,,,,,,,,,,,,,,,,,,,,,,
,,,,421791,001,2023-11-09_22h16.29.873,fluency,2022.2.4,Win32,59.97001499,,,,,,,,,,,,,,,,,,,,,,,3,5,img/B05_03.jpg,BLEND,Press J if the face is a NON-BLEND and K if the face is a BLEND,A blend is a computer-generated image created by combining together multiple photos of real human faces. A non-blend is a regular photo of a human face.,KJ,,,,,,,,,,,,,,,,,,,,,,,,,,,,,,,,,,,,,,,,,,,,,,514.3339,0,57,57,47,1,109,0,0,0,0,1,98,,,,,,,,,,,,,,,,,,,,,,,,,,,,,,,,,,,,,,,,,,,,,,,,,,,,,,,,,,,,,,,,,,,,,,,,,,
,,,,421791,001,2023-11-09_22h16.29.873,fluency,2022.2.4,Win32,59.97001499,,,,,,,,,,,,,,,,,,,,,,,,,,,,,,,,,,,,,,,,,,,,,,,,,,,,,,,,,,,,,,,,,,,,,,,,,,,,,,,,,,0,0,0,0,1,,"[""k""]",[1.0676000001429884],2,"[""k""]",[1.0674999999999955],,,,,,,,,,,,,,,,,,,,,,,,,,,,,,,,,,,,,,,,,,,,,,,,,,,,,,,,,,,,,,,,,,,,,
,,,,421791,001,2023-11-09_22h16.29.873,fluency,2022.2.4,Win32,59.97001499,,,,,,,,,,,,,,,,,,,,,,,3,5,img/B05_03.jpg,BLEND,Press J if the face is a NON-BLEND and K if the face is a BLEND,A blend is a computer-generated image created by combining together multiple photos of real human faces. A non-blend is a regular photo of a human face.,KJ,,,,,,,,,,,,,,,,,,,,,,,,,,,,,,,,2,0.2836,,,,,,,,,,,,,,0,57,57,47,1,,,,,,,,,,,,,space,0.2505,,,,,,,,,,,,,,,,,,,,,,,,,,,,,,,,,,,,,,,,,,,,,,,,,,,,,,,,,,,,,,,,,,,
,,,,421791,001,2023-11-09_22h16.29.873,fluency,2022.2.4,Win32,59.97001499,,,,,,,,,,,,,,,,,,,,,,,1,7,img/B07_01.jpg,BLEND,Press J if the face is a NON-BLEND and K if the face is a BLEND,A blend is a computer-generated image created by combining together multiple photos of real human faces. A non-blend is a regular photo of a human face.,KJ,,,,,,,,,,,,,,,,,,,,,,,,,,,,,,,,,,,,,,,,,,,,,,519.9172,0,58,58,67,1,109,0,0,0,0,1,98,,,,,,,,,,,,,,,,,,,,,,,,,,,,,,,,,,,,,,,,,,,,,,,,,,,,,,,,,,,,,,,,,,,,,,,,,,
,,,,421791,001,2023-11-09_22h16.29.873,fluency,2022.2.4,Win32,59.97001499,,,,,,,,,,,,,,,,,,,,,,,,,,,,,,,,,,,,,,,,,,,,,,,,,,,,,,,,,,,,,,,,,,,,,,,,,,,,,,,,,,0,0,0,0,1,,"[""j""]",[2.116700000047672],2,"[""j""]",[2.116700000047672],,,,,,,,,,,,,,,,,,,,,,,,,,,,,,,,,,,,,,,,,,,,,,,,,,,,,,,,,,,,,,,,,,,,,
,,,,421791,001,2023-11-09_22h16.29.873,fluency,2022.2.4,Win32,59.97001499,,,,,,,,,,,,,,,,,,,,,,,1,7,img/B07_01.jpg,BLEND,Press J if the face is a NON-BLEND and K if the face is a BLEND,A blend is a computer-generated image created by combining together multiple photos of real human faces. A non-blend is a regular photo of a human face.,KJ,,,,,,,,,,,,,,,,,,,,,,,,,,,,,,,,2,0.7669,,,,,,,,,,,,,,0,58,58,67,1,,,,,,,,,,,,,space,0.3172,,,,,,,,,,,,,,,,,,,,,,,,,,,,,,,,,,,,,,,,,,,,,,,,,,,,,,,,,,,,,,,,,,,
,,,,421791,001,2023-11-09_22h16.29.873,fluency,2022.2.4,Win32,59.97001499,,,,,,,,,,,,,,,,,,,,,,,8,4,img/B04_08.jpg,BLEND,Press J if the face is a NON-BLEND and K if the face is a BLEND,A blend is a computer-generated image created by combining together multiple photos of real human faces. A non-blend is a regular photo of a human face.,KJ,,,,,,,,,,,,,,,,,,,,,,,,,,,,,,,,,,,,,,,,,,,,,,525.0343,0,59,59,41,1,109,0,0,0,0,1,98,,,,,,,,,,,,,,,,,,,,,,,,,,,,,,,,,,,,,,,,,,,,,,,,,,,,,,,,,,,,,,,,,,,,,,,,,,
,,,,421791,001,2023-11-09_22h16.29.873,fluency,2022.2.4,Win32,59.97001499,,,,,,,,,,,,,,,,,,,,,,,,,,,,,,,,,,,,,,,,,,,,,,,,,,,,,,,,,,,,,,,,,,,,,,,,,,,,,,,,,,0,0,0,0,1,,"[""j""]",[2.783399999856897],2,"[""j""]",[2.783399999856897],,,,,,,,,,,,,,,,,,,,,,,,,,,,,,,,,,,,,,,,,,,,,,,,,,,,,,,,,,,,,,,,,,,,,
,,,,421791,001,2023-11-09_22h16.29.873,fluency,2022.2.4,Win32,59.97001499,,,,,,,,,,,,,,,,,,,,,,,8,4,img/B04_08.jpg,BLEND,Press J if the face is a NON-BLEND and K if the face is a BLEND,A blend is a computer-generated image created by combining together multiple photos of real human faces. A non-blend is a regular photo of a human face.,KJ,,,,,,,,,,,,,,,,,,,,,,,,,,,,,,,,2,0.8168,,,,,,,,,,,,,,0,59,59,41,1,,,,,,,,,,,,,space,0.3168,,,,,,,,,,,,,,,,,,,,,,,,,,,,,,,,,,,,,,,,,,,,,,,,,,,,,,,,,,,,,,,,,,,
,,,,421791,001,2023-11-09_22h16.29.873,fluency,2022.2.4,Win32,59.97001499,,,,,,,,,,,,,,,,,,,,,,,7,5,img/B05_07.jpg,BLEND,Press J if the face is a NON-BLEND and K if the face is a BLEND,A blend is a computer-generated image created by combining together multiple photos of real human faces. A non-blend is a regular photo of a human face.,KJ,,,,,,,,,,,,,,,,,,,,,,,,,,,,,,,,,,,,,,,,,,,,,,531.2179,0,60,60,51,1,109,0,0,0,0,1,98,,,,,,,,,,,,,,,,,,,,,,,,,,,,,,,,,,,,,,,,,,,,,,,,,,,,,,,,,,,,,,,,,,,,,,,,,,
,,,,421791,001,2023-11-09_22h16.29.873,fluency,2022.2.4,Win32,59.97001499,,,,,,,,,,,,,,,,,,,,,,,,,,,,,,,,,,,,,,,,,,,,,,,,,,,,,,,,,,,,,,,,,,,,,,,,,,,,,,,,,,0,0,0,0,1,,"[""k""]",[0.7502000000476983],2,"[""k""]",[0.7502999999522899],,,,,,,,,,,,,,,,,,,,,,,,,,,,,,,,,,,,,,,,,,,,,,,,,,,,,,,,,,,,,,,,,,,,,
,,,,421791,001,2023-11-09_22h16.29.873,fluency,2022.2.4,Win32,59.97001499,,,,,,,,,,,,,,,,,,,,,,,7,5,img/B05_07.jpg,BLEND,Press J if the face is a NON-BLEND and K if the face is a BLEND,A blend is a computer-generated image created by combining together multiple photos of real human faces. A non-blend is a regular photo of a human face.,KJ,,,,,,,,,,,,,,,,,,,,,,,,,,,,,,,,3,0.6671,,,,,,,,,,,,,,0,60,60,51,1,,,,,,,,,,,,,space,0.9506,,,,,,,,,,,,,,,,,,,,,,,,,,,,,,,,,,,,,,,,,,,,,,,,,,,,,,,,,,,,,,,,,,,
,,,,421791,001,2023-11-09_22h16.29.873,fluency,2022.2.4,Win32,59.97001499,,,,,,,,,,,,,,,,,,,,,,,6,3,img/B03_06.jpg,BLEND,Press J if the face is a NON-BLEND and K if the face is a BLEND,A blend is a computer-generated image created by combining together multiple photos of real human faces. A non-blend is a regular photo of a human face.,KJ,,,,,,,,,,,,,,,,,,,,,,,,,,,,,,,,,,,,,,,,,,,,,,536.8679,0,61,61,28,1,109,0,0,0,0,1,98,,,,,,,,,,,,,,,,,,,,,,,,,,,,,,,,,,,,,,,,,,,,,,,,,,,,,,,,,,,,,,,,,,,,,,,,,,
,,,,421791,001,2023-11-09_22h16.29.873,fluency,2022.2.4,Win32,59.97001499,,,,,,,,,,,,,,,,,,,,,,,,,,,,,,,,,,,,,,,,,,,,,,,,,,,,,,,,,,,,,,,,,,,,,,,,,,,,,,,,,,0,0,0,0,1,,"[""k""]",[1.3334999999999582],2,"[""k""]",[1.3334999999999582],,,,,,,,,,,,,,,,,,,,,,,,,,,,,,,,,,,,,,,,,,,,,,,,,,,,,,,,,,,,,,,,,,,,,
,,,,421791,001,2023-11-09_22h16.29.873,fluency,2022.2.4,Win32,59.97001499,,,,,,,,,,,,,,,,,,,,,,,6,3,img/B03_06.jpg,BLEND,Press J if the face is a NON-BLEND and K if the face is a BLEND,A blend is a computer-generated image created by combining together multiple photos of real human faces. A non-blend is a regular photo of a human face.,KJ,,,,,,,,,,,,,,,,,,,,,,,,,,,,,,,,2,0.4506,,,,,,,,,,,,,,0,61,61,28,1,,,,,,,,,,,,,space,0.8171,,,,,,,,,,,,,,,,,,,,,,,,,,,,,,,,,,,,,,,,,,,,,,,,,,,,,,,,,,,,,,,,,,,
,,,,421791,001,2023-11-09_22h16.29.873,fluency,2022.2.4,Win32,59.97001499,,,,,,,,,,,,,,,,,,,,,,,6,5,img/B05_06.jpg,BLEND,Press J if the face is a NON-BLEND and K if the face is a BLEND,A blend is a computer-generated image created by combining together multiple photos of real human faces. A non-blend is a regular photo of a human face.,KJ,,,,,,,,,,,,,,,,,,,,,,,,,,,,,,,,,,,,,,,,,,,,,,543.1685,0,62,62,50,1,109,0,0,0,0,1,98,,,,,,,,,,,,,,,,,,,,,,,,,,,,,,,,,,,,,,,,,,,,,,,,,,,,,,,,,,,,,,,,,,,,,,,,,,
,,,,421791,001,2023-11-09_22h16.29.873,fluency,2022.2.4,Win32,59.97001499,,,,,,,,,,,,,,,,,,,,,,,,,,,,,,,,,,,,,,,,,,,,,,,,,,,,,,,,,,,,,,,,,,,,,,,,,,,,,,,,,,0,0,0,0,1,,"[""k""]",[0.8002999999523581],2,"[""k""]",[0.8003000001906457],,,,,,,,,,,,,,,,,,,,,,,,,,,,,,,,,,,,,,,,,,,,,,,,,,,,,,,,,,,,,,,,,,,,,
,,,,421791,001,2023-11-09_22h16.29.873,fluency,2022.2.4,Win32,59.97001499,,,,,,,,,,,,,,,,,,,,,,,6,5,img/B05_06.jpg,BLEND,Press J if the face is a NON-BLEND and K if the face is a BLEND,A blend is a computer-generated image created by combining together multiple photos of real human faces. A non-blend is a regular photo of a human face.,KJ,,,,,,,,,,,,,,,,,,,,,,,,,,,,,,,,2,0.3669,,,,,,,,,,,,,,0,62,62,50,1,,,,,,,,,,,,,space,0.4662,,,,,,,,,,,,,,,,,,,,,,,,,,,,,,,,,,,,,,,,,,,,,,,,,,,,,,,,,,,,,,,,,,,
,,,,421791,001,2023-11-09_22h16.29.873,fluency,2022.2.4,Win32,59.97001499,,,,,,,,,,,,,,,,,,,,,,,9,5,img/B05_09.jpg,BLEND,Press J if the face is a NON-BLEND and K if the face is a BLEND,A blend is a computer-generated image created by combining together multiple photos of real human faces. A non-blend is a regular photo of a human face.,KJ,,,,,,,,,,,,,,,,,,,,,,,,,,,,,,,,,,,,,,,,,,,,,,548.0527,0,63,63,53,1,109,0,0,0,0,1,98,,,,,,,,,,,,,,,,,,,,,,,,,,,,,,,,,,,,,,,,,,,,,,,,,,,,,,,,,,,,,,,,,,,,,,,,,,
,,,,421791,001,2023-11-09_22h16.29.873,fluency,2022.2.4,Win32,59.97001499,,,,,,,,,,,,,,,,,,,,,,,,,,,,,,,,,,,,,,,,,,,,,,,,,,,,,,,,,,,,,,,,,,,,,,,,,,,,,,,,,,0,0,0,0,1,,"[""k""]",[0.9169999999999163],2,"[""k""]",[0.9169999999999163],,,,,,,,,,,,,,,,,,,,,,,,,,,,,,,,,,,,,,,,,,,,,,,,,,,,,,,,,,,,,,,,,,,,,
,,,,421791,001,2023-11-09_22h16.29.873,fluency,2022.2.4,Win32,59.97001499,,,,,,,,,,,,,,,,,,,,,,,9,5,img/B05_09.jpg,BLEND,Press J if the face is a NON-BLEND and K if the face is a BLEND,A blend is a computer-generated image created by combining together multiple photos of real human faces. A non-blend is a regular photo of a human face.,KJ,,,,,,,,,,,,,,,,,,,,,,,,,,,,,,,,2,0.2837,,,,,,,,,,,,,,0,63,63,53,1,,,,,,,,,,,,,space,0.2503,,,,,,,,,,,,,,,,,,,,,,,,,,,,,,,,,,,,,,,,,,,,,,,,,,,,,,,,,,,,,,,,,,,
,,,,421791,001,2023-11-09_22h16.29.873,fluency,2022.2.4,Win32,59.97001499,,,,,,,,,,,,,,,,,,,,,,,1,9,img/B09_01.jpg,BLEND,Press J if the face is a NON-BLEND and K if the face is a BLEND,A blend is a computer-generated image created by combining together multiple photos of real human faces. A non-blend is a regular photo of a human face.,KJ,,,,,,,,,,,,,,,,,,,,,,,,,,,,,,,,,,,,,,,,,,,,,,552.6355,0,64,64,89,1,109,0,0,0,0,1,98,,,,,,,,,,,,,,,,,,,,,,,,,,,,,,,,,,,,,,,,,,,,,,,,,,,,,,,,,,,,,,,,,,,,,,,,,,
,,,,421791,001,2023-11-09_22h16.29.873,fluency,2022.2.4,Win32,59.97001499,,,,,,,,,,,,,,,,,,,,,,,,,,,,,,,,,,,,,,,,,,,,,,,,,,,,,,,,,,,,,,,,,,,,,,,,,,,,,,,,,,0,0,0,0,1,,"[""j""]",[2.233299999952237],2,"[""j""]",[2.233299999952237],,,,,,,,,,,,,,,,,,,,,,,,,,,,,,,,,,,,,,,,,,,,,,,,,,,,,,,,,,,,,,,,,,,,,
,,,,421791,001,2023-11-09_22h16.29.873,fluency,2022.2.4,Win32,59.97001499,,,,,,,,,,,,,,,,,,,,,,,1,9,img/B09_01.jpg,BLEND,Press J if the face is a NON-BLEND and K if the face is a BLEND,A blend is a computer-generated image created by combining together multiple photos of real human faces. A non-blend is a regular photo of a human face.,KJ,,,,,,,,,,,,,,,,,,,,,,,,,,,,,,,,3,0.8333,,,,,,,,,,,,,,0,64,64,89,1,,,,,,,,,,,,,space,0.0668,,,,,,,,,,,,,,,,,,,,,,,,,,,,,,,,,,,,,,,,,,,,,,,,,,,,,,,,,,,,,,,,,,,
,,,,421791,001,2023-11-09_22h16.29.873,fluency,2022.2.4,Win32,59.97001499,,,,,,,,,,,,,,,,,,,,,,,9,1,img/B01_09.jpg,BLEND,Press J if the face is a NON-BLEND and K if the face is a BLEND,A blend is a computer-generated image created by combining together multiple photos of real human faces. A non-blend is a regular photo of a human face.,KJ,,,,,,,,,,,,,,,,,,,,,,,,,,,,,,,,,,,,,,,,,,,,,,558.5692,0,65,65,9,1,109,0,0,0,0,1,98,,,,,,,,,,,,,,,,,,,,,,,,,,,,,,,,,,,,,,,,,,,,,,,,,,,,,,,,,,,,,,,,,,,,,,,,,,
,,,,421791,001,2023-11-09_22h16.29.873,fluency,2022.2.4,Win32,59.97001499,,,,,,,,,,,,,,,,,,,,,,,,,,,,,,,,,,,,,,,,,,,,,,,,,,,,,,,,,,,,,,,,,,,,,,,,,,,,,,,,,,0,0,0,0,1,,"[""k""]",[1.2836000001429966],2,"[""k""]",[1.2836000001429966],,,,,,,,,,,,,,,,,,,,,,,,,,,,,,,,,,,,,,,,,,,,,,,,,,,,,,,,,,,,,,,,,,,,,
,,,,421791,001,2023-11-09_22h16.29.873,fluency,2022.2.4,Win32,59.97001499,,,,,,,,,,,,,,,,,,,,,,,9,1,img/B01_09.jpg,BLEND,Press J if the face is a NON-BLEND and K if the face is a BLEND,A blend is a computer-generated image created by combining together multiple photos of real human faces. A non-blend is a regular photo of a human face.,KJ,,,,,,,,,,,,,,,,,,,,,,,,,,,,,,,,1,1.9169,,,,,,,,,,,,,,0,65,65,9,1,,,,,,,,,,,,,space,0.6174,,,,,,,,,,,,,,,,,,,,,,,,,,,,,,,,,,,,,,,,,,,,,,,,,,,,,,,,,,,,,,,,,,,
,,,,421791,001,2023-11-09_22h16.29.873,fluency,2022.2.4,Win32,59.97001499,,,,,,,,,,,,,,,,,,,,,,,4,5,img/B05_04.jpg,BLEND,Press J if the face is a NON-BLEND and K if the face is a BLEND,A blend is a computer-generated image created by combining together multiple photos of real human faces. A non-blend is a regular photo of a human face.,KJ,,,,,,,,,,,,,,,,,,,,,,,,,,,,,,,,,,,,,,,,,,,,,,565.153,0,66,66,48,1,109,0,0,0,0,1,98,,,,,,,,,,,,,,,,,,,,,,,,,,,,,,,,,,,,,,,,,,,,,,,,,,,,,,,,,,,,,,,,,,,,,,,,,,
,,,,421791,001,2023-11-09_22h16.29.873,fluency,2022.2.4,Win32,59.97001499,,,,,,,,,,,,,,,,,,,,,,,,,,,,,,,,,,,,,,,,,,,,,,,,,,,,,,,,,,,,,,,,,,,,,,,,,,,,,,,,,,0,0,0,0,1,,"[""k""]",[0.66700000000003],2,"[""k""]",[0.6669000000954384],,,,,,,,,,,,,,,,,,,,,,,,,,,,,,,,,,,,,,,,,,,,,,,,,,,,,,,,,,,,,,,,,,,,,
,,,,421791,001,2023-11-09_22h16.29.873,fluency,2022.2.4,Win32,59.97001499,,,,,,,,,,,,,,,,,,,,,,,4,5,img/B05_04.jpg,BLEND,Press J if the face is a NON-BLEND and K if the face is a BLEND,A blend is a computer-generated image created by combining together multiple photos of real human faces. A non-blend is a regular photo of a human face.,KJ,,,,,,,,,,,,,,,,,,,,,,,,,,,,,,,,1,0.4837,,,,,,,,,,,,,,0,66,66,48,1,,,,,,,,,,,,,space,1.2171,,,,,,,,,,,,,,,,,,,,,,,,,,,,,,,,,,,,,,,,,,,,,,,,,,,,,,,,,,,,,,,,,,,
,,,,421791,001,2023-11-09_22h16.29.873,fluency,2022.2.4,Win32,59.97001499,,,,,,,,,,,,,,,,,,,,,,,8,8,img/B08_08.jpg,BLEND,Press J if the face is a NON-BLEND and K if the face is a BLEND,A blend is a computer-generated image created by combining together multiple photos of real human faces. A non-blend is a regular photo of a human face.,KJ,,,,,,,,,,,,,,,,,,,,,,,,,,,,,,,,,,,,,,,,,,,,,,570.9029,0,67,67,85,1,109,0,0,0,0,1,98,,,,,,,,,,,,,,,,,,,,,,,,,,,,,,,,,,,,,,,,,,,,,,,,,,,,,,,,,,,,,,,,,,,,,,,,,,
,,,,421791,001,2023-11-09_22h16.29.873,fluency,2022.2.4,Win32,59.97001499,,,,,,,,,,,,,,,,,,,,,,,,,,,,,,,,,,,,,,,,,,,,,,,,,,,,,,,,,,,,,,,,,,,,,,,,,,,,,,,,,,,,,,,,,,3,,,,,space,1.3502,0,0,0,0,1,,,,,,,,,,,,,,,,,,,,,,,,,,,,,,,,,,,,,,,,,,,,,,,,,,,,,,,,,,,,
,,,,421791,001,2023-11-09_22h16.29.873,fluency,2022.2.4,Win32,59.97001499,,,,,,,,,,,,,,,,,,,,,,,,,,,,,,,,,,,,,,,,,,,,,,,,,,,,,,,,,,,,,,,,,,,,,,,,,,,,,,,,,,0,0,0,0,1,,,,,,,,,,,,,,,,,,,,,,,,,,,,,,,,,,,,,,,,,,,,,,,,,,,,,,,,,,,,,,,,,,,,,,,,,,,
,,,,421791,001,2023-11-09_22h16.29.873,fluency,2022.2.4,Win32,59.97001499,,,,,,,,,,,,,,,,,,,,,,,8,8,img/B08_08.jpg,BLEND,Press J if the face is a NON-BLEND and K if the face is a BLEND,A blend is a computer-generated image created by combining together multiple photos of real human faces. A non-blend is a regular photo of a human face.,KJ,,,,,,,,,,,,,,,,,,,,,,,,,,,,,,,,,,,,,,,,,,,,,,577.27,0,67,67,85,1,109,1,0,1,0,1,98,,,,,,,,,,,,,,,,,,,,,,,,,,,,,,,,,,,,,,,,,,,,,,,,,,,,,,,,,,,,,,,,,,,,,,,,,,
,,,,421791,001,2023-11-09_22h16.29.873,fluency,2022.2.4,Win32,59.97001499,,,,,,,,,,,,,,,,,,,,,,,,,,,,,,,,,,,,,,,,,,,,,,,,,,,,,,,,,,,,,,,,,,,,,,,,,,,,,,,,,,1,0,1,0,1,,"[""j""]",[0.9669000000953929],3,"[""j""]",[0.9669000000953929],,,,,,,,,,,,,,,,,,,,,,,,,,,,,,,,,,,,,,,,,,,,,,,,,,,,,,,,,,,,,,,,,,,,,
,,,,421791,001,2023-11-09_22h16.29.873,fluency,2022.2.4,Win32,59.97001499,,,,,,,,,,,,,,,,,,,,,,,8,8,img/B08_08.jpg,BLEND,Press J if the face is a NON-BLEND and K if the face is a BLEND,A blend is a computer-generated image created by combining together multiple photos of real human faces. A non-blend is a regular photo of a human face.,KJ,,,,,,,,,,,,,,,,,,,,,,,,,,,,,,,,2,0.3002,,,,,,,,,,,,,,0,67,67,85,1,,,,,,,,,,,,,space,0.2672,,,,,,,,,,,,,,,,,,,,,,,,,,,,,,,,,,,,,,,,,,,,,,,,,,,,,,,,,,,,,,,,,,,
,,,,421791,001,2023-11-09_22h16.29.873,fluency,2022.2.4,Win32,59.97001499,,,,,,,,,,,,,,,,,,,,,,,1,1,img/B01_01.jpg,BLEND,Press J if the face is a NON-BLEND and K if the face is a BLEND,A blend is a computer-generated image created by combining together multiple photos of real human faces. A non-blend is a regular photo of a human face.,KJ,,,,,,,,,,,,,,,,,,,,,,,,,,,,,,,,,,,,,,,,,,,,,,581.8866,0,68,68,1,1,109,0,0,0,0,1,98,,,,,,,,,,,,,,,,,,,,,,,,,,,,,,,,,,,,,,,,,,,,,,,,,,,,,,,,,,,,,,,,,,,,,,,,,,
,,,,421791,001,2023-11-09_22h16.29.873,fluency,2022.2.4,Win32,59.97001499,,,,,,,,,,,,,,,,,,,,,,,,,,,,,,,,,,,,,,,,,,,,,,,,,,,,,,,,,,,,,,,,,,,,,,,,,,,,,,,,,,0,0,0,0,1,,"[""j""]",[2.3167000000477174],3,"[""j""]",[2.3168000001907103],,,,,,,,,,,,,,,,,,,,,,,,,,,,,,,,,,,,,,,,,,,,,,,,,,,,,,,,,,,,,,,,,,,,,
,,,,421791,001,2023-11-09_22h16.29.873,fluency,2022.2.4,Win32,59.97001499,,,,,,,,,,,,,,,,,,,,,,,1,1,img/B01_01.jpg,BLEND,Press J if the face is a NON-BLEND and K if the face is a BLEND,A blend is a computer-generated image created by combining together multiple photos of real human faces. A non-blend is a regular photo of a human face.,KJ,,,,,,,,,,,,,,,,,,,,,,,,,,,,,,,,2,0.3835,,,,,,,,,,,,,,0,68,68,1,1,,,,,,,,,,,,,space,0.3337,,,,,,,,,,,,,,,,,,,,,,,,,,,,,,,,,,,,,,,,,,,,,,,,,,,,,,,,,,,,,,,,,,,
,,,,421791,001,2023-11-09_22h16.29.873,fluency,2022.2.4,Win32,59.97001499,,,,,,,,,,,,,,,,,,,,,,,1,3,img/B03_01.jpg,BLEND,Press J if the face is a NON-BLEND and K if the face is a BLEND,A blend is a computer-generated image created by combining together multiple photos of real human faces. A non-blend is a regular photo of a human face.,KJ,,,,,,,,,,,,,,,,,,,,,,,,,,,,,,,,,,,,,,,,,,,,,,587.6371,0,69,69,23,1,109,0,0,0,0,1,98,,,,,,,,,,,,,,,,,,,,,,,,,,,,,,,,,,,,,,,,,,,,,,,,,,,,,,,,,,,,,,,,,,,,,,,,,,
,,,,421791,001,2023-11-09_22h16.29.873,fluency,2022.2.4,Win32,59.97001499,,,,,,,,,,,,,,,,,,,,,,,,,,,,,,,,,,,,,,,,,,,,,,,,,,,,,,,,,,,,,,,,,,,,,,,,,,,,,,,,,,0,0,0,0,1,,"[""j""]",[1.3000999999045462],3,"[""j""]",[1.2999999999999545],,,,,,,,,,,,,,,,,,,,,,,,,,,,,,,,,,,,,,,,,,,,,,,,,,,,,,,,,,,,,,,,,,,,,
