idTextbox.text,welcomeDone.numClicks,welcomeDone.timesOn,welcomeDone.timesOff,participant,session,date,expName,psychopyVersion,OS,frameRate,consent_advance.keys,consent_advance.rt,consent_advance_2.keys,consent_advance_2.rt,consentClick.x,consentClick.y,consentClick.leftButton,consentClick.midButton,consentClick.rightButton,consentClick.time,consentClick.clicked_name,instr_advance_3.keys,instr_advance_3.rt,spec_instr_adv.keys,spec_instr_adv.rt,spec_instr_adv2.keys,spec_instr_adv2.rt,instrLoop.thisRepN,instrLoop.thisTrialN,instrLoop.thisN,instrLoop.thisIndex,instrLoop.ran,steps,fams,face_file,cond,instr,term,key_map,attnKeyResp1.keys,attnKeyResp1.rt,q1.thisRepN,q1.thisTrialN,q1.thisN,q1.thisIndex,q1.ran,attnKeyResp2.keys,attnKeyResp2.rt,q2.thisRepN,q2.thisTrialN,q2.thisN,q2.thisIndex,q2.ran,attnKeyResp3.keys,attnKeyResp3.rt,q3.thisRepN,q3.thisTrialN,q3.thisN,q3.thisIndex,q3.ran,practiceStart.keys,practiceStart.rt,practiceResp.keys,timesRedone,redo_keypress.keys,redo_keypress.rt,practiceFailed.thisRepN,practiceFailed.thisTrialN,practiceFailed.thisN,practiceFailed.thisIndex,practiceFailed.ran,practiceRepeat.thisRepN,practiceRepeat.thisTrialN,practiceRepeat.thisN,practiceRepeat.thisIndex,practiceRepeat.ran,practiceResp.rt,attrRating.keys,attrRating.rt,practiceTrial.thisRepN,practiceTrial.thisTrialN,practiceTrial.thisN,practiceTrial.thisIndex,practiceTrial.ran,key_resp_3.keys,key_resp_3.rt,attnChecker.thisRepN,attnChecker.thisTrialN,attnChecker.thisN,attnChecker.thisIndex,attnChecker.ran,faceOnsetTime,trials.thisRepN,trials.thisTrialN,trials.thisN,trials.thisIndex,trials.ran,trials.order,repeat_loop.thisRepN,repeat_loop.thisTrialN,repeat_loop.thisN,repeat_loop.thisIndex,repeat_loop.ran,repeat_loop.order,catResp.keys,catResp.rt,globalTimesRedone,catAllKeys.keys,catAllKeys.rt,contResp.keys,contResp.rt,redo_feedback_loop.thisRepN,redo_feedback_loop.thisTrialN,redo_feedback_loop.thisN,redo_feedback_loop.thisIndex,redo_feedback_loop.ran,contResp_2.keys,contResp_2.rt,respQ1.response,respQ1.rt,respQ2.response,respQ2.rt,respQ3.response,respQ3.rt,respQ4.response,respQ4.rt,surveyContinue1.numClicks,surveyContinue1.timesOn,surveyContinue1.timesOff,respQ5.response,respQ5.rt,respQ6.response,respQ6.rt,respQ7.response,respQ7.rt,respQ8.response,respQ8.rt,surveyContinue2.numClicks,surveyContinue2.timesOn,surveyContinue2.timesOff,respQ9.response,respQ9.rt,respQ10.response,respQ10.rt,respQ11.response,respQ11.rt,respQ12.response,respQ12.rt,surveyContinue3.numClicks,surveyContinue3.timesOn,surveyContinue3.timesOff,respQ13.response,respQ13.rt,respQ14.response,respQ14.rt,respQ15.response,respQ15.rt,surveyContinue4.numClicks,surveyContinue4.timesOn,surveyContinue4.timesOff,respAge.response,respAge.rt,genderResp1.response,genderResp1.rt,genderResp2.text,demogexitClick.numClicks,demogexitClick.timesOn,demogexitClick.timesOff,textbox.text,openAnswerClick.numClicks,openAnswerClick.timesOn,openAnswerClick.timesOff,debriefEnd.keys,debriefEnd.rt,exitKey.keys,exitKey.rt
5d0ac73d1fdbbb0019c970d,1,[138.4387999999523],[138.43910000002384],424424,001,2023-09-28_16h33.28.607,fluency,2022.2.5,Win32,59.4000594,,,,,,,,,,,,,,,,,,,,,,,,,,,,,,,,,,,,,,,,,,,,,,,,,,,,,,,,,,,,,,,,,,,,,,,,,,,,,,,,,,,,,,,,,,,,,,,,,,,,,,,,,,,,,,,,,,,,,,,,,,,,,,,,,,,,,,,,,,,,,,,,,,,,,,,,,,,,,,,,,,,,,,
,,,,424424,001,2023-09-28_16h33.28.607,fluency,2022.2.5,Win32,59.4000594,space,15.4431,,,,,,,,,,,,,,,,,,,,,,,,,,,,,,,,,,,,,,,,,,,,,,,,,,,,,,,,,,,,,,,,,,,,,,,,,,,,,,,,,,,,,,,,,,,,,,,,,,,,,,,,,,,,,,,,,,,,,,,,,,,,,,,,,,,,,,,,,,,,,,,,,,,,,,,,,,,,,,,,,,,,
,,,,424424,001,2023-09-28_16h33.28.607,fluency,2022.2.5,Win32,59.4000594,,,space,12.7133,,,,,,,,,,,,,,,,,,,,,,,,,,,,,,,,,,,,,,,,,,,,,,,,,,,,,,,,,,,,,,,,,,,,,,,,,,,,,,,,,,,,,,,,,,,,,,,,,,,,,,,,,,,,,,,,,,,,,,,,,,,,,,,,,,,,,,,,,,,,,,,,,,,,,,,,,,,,,,,,,,
,,,,424424,001,2023-09-28_16h33.28.607,fluency,2022.2.5,Win32,59.4000594,,,,,0.315020281,-0.339783541,1,0,0,7.5488,iAgree,,,,,,,,,,,,,,,,,,,,,,,,,,,,,,,,,,,,,,,,,,,,,,,,,,,,,,,,,,,,,,,,,,,,,,,,,,,,,,,,,,,,,,,,,,,,,,,,,,,,,,,,,,,,,,,,,,,,,,,,,,,,,,,,,,,,,,,,,,,,,,,,,,,,,,,,,,,
,,,,424424,001,2023-09-28_16h33.28.607,fluency,2022.2.5,Win32,59.4000594,,,,,,,,,,,,space,14.5617,,,,,,,,,,,,,,,,,,,,,,,,,,,,,,,,,,,,,,,,,,,,,,,,,,,,,,,,,,,,,,,,,,,,,,,,,,,,,,,,,,,,,,,,,,,,,,,,,,,,,,,,,,,,,,,,,,,,,,,,,,,,,,,,,,,,,,,,,,,,,,,,,,,,,,,,,
,,,,424424,001,2023-09-28_16h33.28.607,fluency,2022.2.5,Win32,59.4000594,,,,,,,,,,,,,,space,11.9933,space,13.5243,0,0,0,105,1,6,10,img/B10_06.jpg,CONTROL,Press J as soon as you see a face, ,JK,,,,,,,,,,,,,,,,,,,,,,,,,,,,,,,,,,,,,,,,,,,,,,,,,,,,,,,,,,,,,,,,,,,,,,,,,,,,,,,,,,,,,,,,,,,,,,,,,,,,,,,,,,,,,,,,,,,,,,,,,,,,,,,,,,,,,,,,,
,,,,424424,001,2023-09-28_16h33.28.607,fluency,2022.2.5,Win32,59.4000594,,,,,,,,,,,,,,,,,,,,,,,,,,,,,,c,9.3602,0,0,0,0,1,,,,,,,,,,,,,,,,,,,,,,,,,,,,,,,,,,,,,,,,,,,,,,,,,,,,,,,,,,,,,,,,,,,,,,,,,,,,,,,,,,,,,,,,,,,,,,,,,,,,,,,,,,,,,,,,,,,,,,,,,,,,,,,,,,
,,,,424424,001,2023-09-28_16h33.28.607,fluency,2022.2.5,Win32,59.4000594,,,,,,,,,,,,,,,,,,,,,,,,,,,,,,,,,,,,,a,9.078,0,0,0,0,1,,,,,,,,,,,,,,,,,,,,,,,,,,,,,,,,,,,,,,,,,,,,,,,,,,,,,,,,,,,,,,,,,,,,,,,,,,,,,,,,,,,,,,,,,,,,,,,,,,,,,,,,,,,,,,,,,,,,,,,,,,,
,,,,424424,001,2023-09-28_16h33.28.607,fluency,2022.2.5,Win32,59.4000594,,,,,,,,,,,,,,,,,,,,,,,,,,,,,,,,,,,,,,,,,,,,c,7.0841,0,0,0,0,1,,,,,,,,,,,,,,,,,,,,,,,,,,,,,,,,,,,,,,,,,,,,,,,,,,,,,,,,,,,,,,,,,,,,,,,,,,,,,,,,,,,,,,,,,,,,,,,,,,,,,,,,,,,,,,,,,,,,
,,,,424424,001,2023-09-28_16h33.28.607,fluency,2022.2.5,Win32,59.4000594,,,,,,,,,,,,,,,,,,,,,,,,,,,,,,,,,,,,,,,,,,,,,,,,,,,space,1.8264,,1,space,5.9633,0,0,0,0,1,,,,,,,,,,,,,,,,,,,,,,,,,,,,,,,,,,,,,,,,,,,,,,,,,,,,,,,,,,,,,,,,,,,,,,,,,,,,,,,,,,,,,,,,,,,,,,,,,,,,,,,,,
,,,,424424,001,2023-09-28_16h33.28.607,fluency,2022.2.5,Win32,59.4000594,,,,,,,,,,,,,,,,,,,,,,,,,,,,,,,,,,,,,,,,,,,,,,,,,,,,,,,,,,,,,,0,0,0,0,1,,,,,,,,,,,,,,,,,,,,,,,,,,,,,,,,,,,,,,,,,,,,,,,,,,,,,,,,,,,,,,,,,,,,,,,,,,,,,,,,,,,,,,,,,,,,,,,,,,,,
,,,,424424,001,2023-09-28_16h33.28.607,fluency,2022.2.5,Win32,59.4000594,,,,,,,,,,,,,,,,,,,,,,,,,,,,,,,,,,,,,,,,,,,,,,,,,,,,,j,1,,,,,,,,1,0,1,0,1,0.2336,,,,,,,,,,,,,,,,,,,,,,,,,,,,,,,,,,,,,,,,,,,,,,,,,,,,,,,,,,,,,,,,,,,,,,,,,,,,,,,,,,,,,,,,,,,,,,,,,,,
,,,,424424,001,2023-09-28_16h33.28.607,fluency,2022.2.5,Win32,59.4000594,,,,,,,,,,,,,,,,,,,,,,,,,,,,,,,,,,,,,,,,,,,,,,,,,,,,,,,,,,,,,,,,,,,,5,8.9232,0,0,0,0,1,,,,,,,,,,,,,,,,,,,,,,,,,,,,,,,,,,,,,,,,,,,,,,,,,,,,,,,,,,,,,,,,,,,,,,,,,,,,,,,,,,,,,,,,,,,,
,,,,424424,001,2023-09-28_16h33.28.607,fluency,2022.2.5,Win32,59.4000594,,,,,,,,,,,,,,,,,,,,,,,,,,,,,,,,,,,,,,,,,,,,,,,,,,,,,,,,,,,,,,,,,,,,,,,,,,,space,4.1746,0,0,0,0,1,,,,,,,,,,,,,,,,,,,,,,,,,,,,,,,,,,,,,,,,,,,,,,,,,,,,,,,,,,,,,,,,,,,,,,,,,,,,,,,,,,,,,
,,,,424424,001,2023-09-28_16h33.28.607,fluency,2022.2.5,Win32,59.4000594,,,,,,,,,,,,,,,,,,,,,,,7,9,img/B09_07.jpg,CONTROL,Press J as soon as you see a face, ,JK,,,,,,,,,,,,,,,,,,,,,,,,,,,,,,,,,,,,,,,,,,,,,,,,,,,,,289.222,0,0,0,95,1,109,0,0,0,0,1,98,,,,,,,,,,,,,,,,,,,,,,,,,,,,,,,,,,,,,,,,,,,,,,,,,,,,,,,,,,,,,,,,,,,,,,,,
,,,,424424,001,2023-09-28_16h33.28.607,fluency,2022.2.5,Win32,59.4000594,,,,,,,,,,,,,,,,,,,,,,,,,,,,,,,,,,,,,,,,,,,,,,,,,,,,,,,,,,,,,,,,,,,,,,,,,,,,,,,,,,,,,,,,,0,0,0,0,1,,"[""j""]",[0.2552999999523422],1,"[""j""]",[0.25519999992849307],,,,,,,,,,,,,,,,,,,,,,,,,,,,,,,,,,,,,,,,,,,,,,,,,,,,,,,,,,,,,,,,,,,
,,,,424424,001,2023-09-28_16h33.28.607,fluency,2022.2.5,Win32,59.4000594,,,,,,,,,,,,,,,,,,,,,,,7,9,img/B09_07.jpg,CONTROL,Press J as soon as you see a face, ,JK,,,,,,,,,,,,,,,,,,,,,,,,,,,,,,,,,,,,,,,6,1.6701,,,,,,,,,,,,,,0,0,0,95,1,,,,,,,,,,,,,space,4.1447,,,,,,,,,,,,,,,,,,,,,,,,,,,,,,,,,,,,,,,,,,,,,,,,,,,,,,,,,,,,,,,,,
,,,,424424,001,2023-09-28_16h33.28.607,fluency,2022.2.5,Win32,59.4000594,,,,,,,,,,,,,,,,,,,,,,,9,2,img/B02_09.jpg,CONTROL,Press J as soon as you see a face, ,JK,,,,,,,,,,,,,,,,,,,,,,,,,,,,,,,,,,,,,,,,,,,,,,,,,,,,,299.1083,0,1,1,20,1,109,0,0,0,0,1,98,,,,,,,,,,,,,,,,,,,,,,,,,,,,,,,,,,,,,,,,,,,,,,,,,,,,,,,,,,,,,,,,,,,,,,,,
,,,,424424,001,2023-09-28_16h33.28.607,fluency,2022.2.5,Win32,59.4000594,,,,,,,,,,,,,,,,,,,,,,,,,,,,,,,,,,,,,,,,,,,,,,,,,,,,,,,,,,,,,,,,,,,,,,,,,,,,,,,,,,,,,,,,,0,0,0,0,1,,"[""j""]",[0.4221000000238746],1,"[""j""]",[0.42220000004772373],,,,,,,,,,,,,,,,,,,,,,,,,,,,,,,,,,,,,,,,,,,,,,,,,,,,,,,,,,,,,,,,,,,
,,,,424424,001,2023-09-28_16h33.28.607,fluency,2022.2.5,Win32,59.4000594,,,,,,,,,,,,,,,,,,,,,,,9,2,img/B02_09.jpg,CONTROL,Press J as soon as you see a face, ,JK,,,,,,,,,,,,,,,,,,,,,,,,,,,,,,,,,,,,,,,4,1.3867,,,,,,,,,,,,,,0,1,1,20,1,,,,,,,,,,,,,space,1.6414,,,,,,,,,,,,,,,,,,,,,,,,,,,,,,,,,,,,,,,,,,,,,,,,,,,,,,,,,,,,,,,,,
,,,,424424,001,2023-09-28_16h33.28.607,fluency,2022.2.5,Win32,59.4000594,,,,,,,,,,,,,,,,,,,,,,,9,10,img/B10_09.jpg,CONTROL,Press J as soon as you see a face, ,JK,,,,,,,,,,,,,,,,,,,,,,,,,,,,,,,,,,,,,,,,,,,,,,,,,,,,,306.2018,0,2,2,108,1,109,0,0,0,0,1,98,,,,,,,,,,,,,,,,,,,,,,,,,,,,,,,,,,,,,,,,,,,,,,,,,,,,,,,,,,,,,,,,,,,,,,,,
,,,,424424,001,2023-09-28_16h33.28.607,fluency,2022.2.5,Win32,59.4000594,,,,,,,,,,,,,,,,,,,,,,,,,,,,,,,,,,,,,,,,,,,,,,,,,,,,,,,,,,,,,,,,,,,,,,,,,,,,,,,,,,,,,,,,,0,0,0,0,1,,"[""j""]",[0.466599999904588],1,"[""j""]",[0.466599999904588],,,,,,,,,,,,,,,,,,,,,,,,,,,,,,,,,,,,,,,,,,,,,,,,,,,,,,,,,,,,,,,,,,,
,,,,424424,001,2023-09-28_16h33.28.607,fluency,2022.2.5,Win32,59.4000594,,,,,,,,,,,,,,,,,,,,,,,9,10,img/B10_09.jpg,CONTROL,Press J as soon as you see a face, ,JK,,,,,,,,,,,,,,,,,,,,,,,,,,,,,,,,,,,,,,,4,1.1916,,,,,,,,,,,,,,0,2,2,108,1,,,,,,,,,,,,,space,1.3817,,,,,,,,,,,,,,,,,,,,,,,,,,,,,,,,,,,,,,,,,,,,,,,,,,,,,,,,,,,,,,,,,
,,,,424424,001,2023-09-28_16h33.28.607,fluency,2022.2.5,Win32,59.4000594,,,,,,,,,,,,,,,,,,,,,,,4,4,img/B04_04.jpg,CONTROL,Press J as soon as you see a face, ,JK,,,,,,,,,,,,,,,,,,,,,,,,,,,,,,,,,,,,,,,,,,,,,,,,,,,,,313.8277,0,3,3,37,1,109,0,0,0,0,1,98,,,,,,,,,,,,,,,,,,,,,,,,,,,,,,,,,,,,,,,,,,,,,,,,,,,,,,,,,,,,,,,,,,,,,,,,
,,,,424424,001,2023-09-28_16h33.28.607,fluency,2022.2.5,Win32,59.4000594,,,,,,,,,,,,,,,,,,,,,,,,,,,,,,,,,,,,,,,,,,,,,,,,,,,,,,,,,,,,,,,,,,,,,,,,,,,,,,,,,,,,,,,,,0,0,0,0,1,,"[""j""]",[0.21800000000001774],1,"[""j""]",[0.21800000000001774],,,,,,,,,,,,,,,,,,,,,,,,,,,,,,,,,,,,,,,,,,,,,,,,,,,,,,,,,,,,,,,,,,,
,,,,424424,001,2023-09-28_16h33.28.607,fluency,2022.2.5,Win32,59.4000594,,,,,,,,,,,,,,,,,,,,,,,4,4,img/B04_04.jpg,CONTROL,Press J as soon as you see a face, ,JK,,,,,,,,,,,,,,,,,,,,,,,,,,,,,,,,,,,,,,,5,1.1412,,,,,,,,,,,,,,0,3,3,37,1,,,,,,,,,,,,,space,1.5348,,,,,,,,,,,,,,,,,,,,,,,,,,,,,,,,,,,,,,,,,,,,,,,,,,,,,,,,,,,,,,,,,
,,,,424424,001,2023-09-28_16h33.28.607,fluency,2022.2.5,Win32,59.4000594,,,,,,,,,,,,,,,,,,,,,,,6,8,img/B08_06.jpg,CONTROL,Press J as soon as you see a face, ,JK,,,,,,,,,,,,,,,,,,,,,,,,,,,,,,,,,,,,,,,,,,,,,,,,,,,,,320.5716,0,4,4,83,1,109,0,0,0,0,1,98,,,,,,,,,,,,,,,,,,,,,,,,,,,,,,,,,,,,,,,,,,,,,,,,,,,,,,,,,,,,,,,,,,,,,,,,
,,,,424424,001,2023-09-28_16h33.28.607,fluency,2022.2.5,Win32,59.4000594,,,,,,,,,,,,,,,,,,,,,,,,,,,,,,,,,,,,,,,,,,,,,,,,,,,,,,,,,,,,,,,,,,,,,,,,,,,,,,,,,,,,,,,,,0,0,0,0,1,,"[""j""]",[1.1166999999284712],1,"[""j""]",[1.1166999999284712],,,,,,,,,,,,,,,,,,,,,,,,,,,,,,,,,,,,,,,,,,,,,,,,,,,,,,,,,,,,,,,,,,,
,,,,424424,001,2023-09-28_16h33.28.607,fluency,2022.2.5,Win32,59.4000594,,,,,,,,,,,,,,,,,,,,,,,6,8,img/B08_06.jpg,CONTROL,Press J as soon as you see a face, ,JK,,,,,,,,,,,,,,,,,,,,,,,,,,,,,,,,,,,,,,,4,1.6235,,,,,,,,,,,,,,0,4,4,83,1,,,,,,,,,,,,,space,1.1834,,,,,,,,,,,,,,,,,,,,,,,,,,,,,,,,,,,,,,,,,,,,,,,,,,,,,,,,,,,,,,,,,
,,,,424424,001,2023-09-28_16h33.28.607,fluency,2022.2.5,Win32,59.4000594,,,,,,,,,,,,,,,,,,,,,,,3,4,img/B04_03.jpg,CONTROL,Press J as soon as you see a face, ,JK,,,,,,,,,,,,,,,,,,,,,,,,,,,,,,,,,,,,,,,,,,,,,,,,,,,,,327.4361,0,5,5,36,1,109,0,0,0,0,1,98,,,,,,,,,,,,,,,,,,,,,,,,,,,,,,,,,,,,,,,,,,,,,,,,,,,,,,,,,,,,,,,,,,,,,,,,
,,,,424424,001,2023-09-28_16h33.28.607,fluency,2022.2.5,Win32,59.4000594,,,,,,,,,,,,,,,,,,,,,,,,,,,,,,,,,,,,,,,,,,,,,,,,,,,,,,,,,,,,,,,,,,,,,,,,,,,,,,,,,,,,,,,,,0,0,0,0,1,,"[""j""]",[1.2151999999284726],1,"[""j""]",[1.2153999999761709],,,,,,,,,,,,,,,,,,,,,,,,,,,,,,,,,,,,,,,,,,,,,,,,,,,,,,,,,,,,,,,,,,,
,,,,424424,001,2023-09-28_16h33.28.607,fluency,2022.2.5,Win32,59.4000594,,,,,,,,,,,,,,,,,,,,,,,3,4,img/B04_03.jpg,CONTROL,Press J as soon as you see a face, ,JK,,,,,,,,,,,,,,,,,,,,,,,,,,,,,,,,,,,,,,,4,1.5398,,,,,,,,,,,,,,0,5,5,36,1,,,,,,,,,,,,,space,1.0957,,,,,,,,,,,,,,,,,,,,,,,,,,,,,,,,,,,,,,,,,,,,,,,,,,,,,,,,,,,,,,,,,
,,,,424424,001,2023-09-28_16h33.28.607,fluency,2022.2.5,Win32,59.4000594,,,,,,,,,,,,,,,,,,,,,,,5,9,img/B09_05.jpg,CONTROL,Press J as soon as you see a face, ,JK,,,,,,,,,,,,,,,,,,,,,,,,,,,,,,,,,,,,,,,,,,,,,,,,,,,,,335.1278,0,6,6,93,1,109,0,0,0,0,1,98,,,,,,,,,,,,,,,,,,,,,,,,,,,,,,,,,,,,,,,,,,,,,,,,,,,,,,,,,,,,,,,,,,,,,,,,
,,,,424424,001,2023-09-28_16h33.28.607,fluency,2022.2.5,Win32,59.4000594,,,,,,,,,,,,,,,,,,,,,,,,,,,,,,,,,,,,,,,,,,,,,,,,,,,,,,,,,,,,,,,,,,,,,,,,,,,,,,,,,,,,,,,,,0,0,0,0,1,,"[""j""]",[0.21189999997613995],1,"[""j""]",[0.21199999999998909],,,,,,,,,,,,,,,,,,,,,,,,,,,,,,,,,,,,,,,,,,,,,,,,,,,,,,,,,,,,,,,,,,,
,,,,424424,001,2023-09-28_16h33.28.607,fluency,2022.2.5,Win32,59.4000594,,,,,,,,,,,,,,,,,,,,,,,5,9,img/B09_05.jpg,CONTROL,Press J as soon as you see a face, ,JK,,,,,,,,,,,,,,,,,,,,,,,,,,,,,,,,,,,,,,,5,0.8189,,,,,,,,,,,,,,0,6,6,93,1,,,,,,,,,,,,,space,1.1351,,,,,,,,,,,,,,,,,,,,,,,,,,,,,,,,,,,,,,,,,,,,,,,,,,,,,,,,,,,,,,,,,
,,,,424424,001,2023-09-28_16h33.28.607,fluency,2022.2.5,Win32,59.4000594,,,,,,,,,,,,,,,,,,,,,,,5,2,img/B02_05.jpg,CONTROL,Press J as soon as you see a face, ,JK,,,,,,,,,,,,,,,,,,,,,,,,,,,,,,,,,,,,,,,,,,,,,,,,,,,,,341.1522,0,7,7,16,1,109,0,0,0,0,1,98,,,,,,,,,,,,,,,,,,,,,,,,,,,,,,,,,,,,,,,,,,,,,,,,,,,,,,,,,,,,,,,,,,,,,,,,
,,,,424424,001,2023-09-28_16h33.28.607,fluency,2022.2.5,Win32,59.4000594,,,,,,,,,,,,,,,,,,,,,,,,,,,,,,,,,,,,,,,,,,,,,,,,,,,,,,,,,,,,,,,,,,,,,,,,,,,,,,,,,,,,,,,,,0,0,0,0,1,,"[""j""]",[0.33850000000001046],1,"[""j""]",[0.33850000000001046],,,,,,,,,,,,,,,,,,,,,,,,,,,,,,,,,,,,,,,,,,,,,,,,,,,,,,,,,,,,,,,,,,,
,,,,424424,001,2023-09-28_16h33.28.607,fluency,2022.2.5,Win32,59.4000594,,,,,,,,,,,,,,,,,,,,,,,5,2,img/B02_05.jpg,CONTROL,Press J as soon as you see a face, ,JK,,,,,,,,,,,,,,,,,,,,,,,,,,,,,,,,,,,,,,,4,1.0444,,,,,,,,,,,,,,0,7,7,16,1,,,,,,,,,,,,,space,1.1415,,,,,,,,,,,,,,,,,,,,,,,,,,,,,,,,,,,,,,,,,,,,,,,,,,,,,,,,,,,,,,,,,
,,,,424424,001,2023-09-28_16h33.28.607,fluency,2022.2.5,Win32,59.4000594,,,,,,,,,,,,,,,,,,,,,,,6,3,img/B03_06.jpg,CONTROL,Press J as soon as you see a face, ,JK,,,,,,,,,,,,,,,,,,,,,,,,,,,,,,,,,,,,,,,,,,,,,,,,,,,,,348.3954,0,8,8,28,1,109,0,0,0,0,1,98,,,,,,,,,,,,,,,,,,,,,,,,,,,,,,,,,,,,,,,,,,,,,,,,,,,,,,,,,,,,,,,,,,,,,,,,
,,,,424424,001,2023-09-28_16h33.28.607,fluency,2022.2.5,Win32,59.4000594,,,,,,,,,,,,,,,,,,,,,,,,,,,,,,,,,,,,,,,,,,,,,,,,,,,,,,,,,,,,,,,,,,,,,,,,,,,,,,,,,,,,,,,,,0,0,0,0,1,,"[""j""]",[0.33910000002384777],1,"[""j""]",[0.33899999999999864],,,,,,,,,,,,,,,,,,,,,,,,,,,,,,,,,,,,,,,,,,,,,,,,,,,,,,,,,,,,,,,,,,,
,,,,424424,001,2023-09-28_16h33.28.607,fluency,2022.2.5,Win32,59.4000594,,,,,,,,,,,,,,,,,,,,,,,6,3,img/B03_06.jpg,CONTROL,Press J as soon as you see a face, ,JK,,,,,,,,,,,,,,,,,,,,,,,,,,,,,,,,,,,,,,,5,0.5069,,,,,,,,,,,,,,0,8,8,28,1,,,,,,,,,,,,,space,0.8016,,,,,,,,,,,,,,,,,,,,,,,,,,,,,,,,,,,,,,,,,,,,,,,,,,,,,,,,,,,,,,,,,
,,,,424424,001,2023-09-28_16h33.28.607,fluency,2022.2.5,Win32,59.4000594,,,,,,,,,,,,,,,,,,,,,,,2,7,img/B07_02.jpg,CONTROL,Press J as soon as you see a face, ,JK,,,,,,,,,,,,,,,,,,,,,,,,,,,,,,,,,,,,,,,,,,,,,,,,,,,,,353.7905,0,9,9,68,1,109,0,0,0,0,1,98,,,,,,,,,,,,,,,,,,,,,,,,,,,,,,,,,,,,,,,,,,,,,,,,,,,,,,,,,,,,,,,,,,,,,,,,
,,,,424424,001,2023-09-28_16h33.28.607,fluency,2022.2.5,Win32,59.4000594,,,,,,,,,,,,,,,,,,,,,,,,,,,,,,,,,,,,,,,,,,,,,,,,,,,,,,,,,,,,,,,,,,,,,,,,,,,,,,,,,,,,,,,,,0,0,0,0,1,,"[""j""]",[0.39270000004768235],1,"[""j""]",[0.39280000007147464],,,,,,,,,,,,,,,,,,,,,,,,,,,,,,,,,,,,,,,,,,,,,,,,,,,,,,,,,,,,,,,,,,,
,,,,424424,001,2023-09-28_16h33.28.607,fluency,2022.2.5,Win32,59.4000594,,,,,,,,,,,,,,,,,,,,,,,2,7,img/B07_02.jpg,CONTROL,Press J as soon as you see a face, ,JK,,,,,,,,,,,,,,,,,,,,,,,,,,,,,,,,,,,,,,,5,2.0075,,,,,,,,,,,,,,0,9,9,68,1,,,,,,,,,,,,,space,1.7662,,,,,,,,,,,,,,,,,,,,,,,,,,,,,,,,,,,,,,,,,,,,,,,,,,,,,,,,,,,,,,,,,
,,,,424424,001,2023-09-28_16h33.28.607,fluency,2022.2.5,Win32,59.4000594,,,,,,,,,,,,,,,,,,,,,,,4,1,img/B01_04.jpg,CONTROL,Press J as soon as you see a face, ,JK,,,,,,,,,,,,,,,,,,,,,,,,,,,,,,,,,,,,,,,,,,,,,,,,,,,,,361.6202,0,10,10,4,1,109,0,0,0,0,1,98,,,,,,,,,,,,,,,,,,,,,,,,,,,,,,,,,,,,,,,,,,,,,,,,,,,,,,,,,,,,,,,,,,,,,,,,
,,,,424424,001,2023-09-28_16h33.28.607,fluency,2022.2.5,Win32,59.4000594,,,,,,,,,,,,,,,,,,,,,,,,,,,,,,,,,,,,,,,,,,,,,,,,,,,,,,,,,,,,,,,,,,,,,,,,,,,,,,,,,,,,,,,,,0,0,0,0,1,,"[""j"",""j""]","[0.28070000004765916,0.5142000000477083]",1,"[""j"",""j""]","[0.28060000002381,0.5142000000476514]",,,,,,,,,,,,,,,,,,,,,,,,,,,,,,,,,,,,,,,,,,,,,,,,,,,,,,,,,,,,,,,,,,,
,,,,424424,001,2023-09-28_16h33.28.607,fluency,2022.2.5,Win32,59.4000594,,,,,,,,,,,,,,,,,,,,,,,4,1,img/B01_04.jpg,CONTROL,Press J as soon as you see a face, ,JK,,,,,,,,,,,,,,,,,,,,,,,,,,,,,,,,,,,,,,,4,1.0475,,,,,,,,,,,,,,0,10,10,4,1,,,,,,,,,,,,,space,1.8177,,,,,,,,,,,,,,,,,,,,,,,,,,,,,,,,,,,,,,,,,,,,,,,,,,,,,,,,,,,,,,,,,
,,,,424424,001,2023-09-28_16h33.28.607,fluency,2022.2.5,Win32,59.4000594,,,,,,,,,,,,,,,,,,,,,,,9,5,img/B05_09.jpg,CONTROL,Press J as soon as you see a face, ,JK,,,,,,,,,,,,,,,,,,,,,,,,,,,,,,,,,,,,,,,,,,,,,,,,,,,,,368.5478,0,11,11,53,1,109,0,0,0,0,1,98,,,,,,,,,,,,,,,,,,,,,,,,,,,,,,,,,,,,,,,,,,,,,,,,,,,,,,,,,,,,,,,,,,,,,,,,
,,,,424424,001,2023-09-28_16h33.28.607,fluency,2022.2.5,Win32,59.4000594,,,,,,,,,,,,,,,,,,,,,,,,,,,,,,,,,,,,,,,,,,,,,,,,,,,,,,,,,,,,,,,,,,,,,,,,,,,,,,,,,,,,,,,,,0,0,0,0,1,,"[""j""]",[0.645600000023876],1,"[""j""]",[0.645600000023876],,,,,,,,,,,,,,,,,,,,,,,,,,,,,,,,,,,,,,,,,,,,,,,,,,,,,,,,,,,,,,,,,,,
,,,,424424,001,2023-09-28_16h33.28.607,fluency,2022.2.5,Win32,59.4000594,,,,,,,,,,,,,,,,,,,,,,,9,5,img/B05_09.jpg,CONTROL,Press J as soon as you see a face, ,JK,,,,,,,,,,,,,,,,,,,,,,,,,,,,,,,,,,,,,,,4,1.5234,,,,,,,,,,,,,,0,11,11,53,1,,,,,,,,,,,,,space,0.8674,,,,,,,,,,,,,,,,,,,,,,,,,,,,,,,,,,,,,,,,,,,,,,,,,,,,,,,,,,,,,,,,,
,,,,424424,001,2023-09-28_16h33.28.607,fluency,2022.2.5,Win32,59.4000594,,,,,,,,,,,,,,,,,,,,,,,10,7,img/B07_10.jpg,CONTROL,Press J as soon as you see a face, ,JK,,,,,,,,,,,,,,,,,,,,,,,,,,,,,,,,,,,,,,,,,,,,,,,,,,,,,374.9918,0,12,12,76,1,109,0,0,0,0,1,98,,,,,,,,,,,,,,,,,,,,,,,,,,,,,,,,,,,,,,,,,,,,,,,,,,,,,,,,,,,,,,,,,,,,,,,,
,,,,424424,001,2023-09-28_16h33.28.607,fluency,2022.2.5,Win32,59.4000594,,,,,,,,,,,,,,,,,,,,,,,,,,,,,,,,,,,,,,,,,,,,,,,,,,,,,,,,,,,,,,,,,,,,,,,,,,,,,,,,,,,,,,,,,0,0,0,0,1,,"[""j""]",[0.6795000000000186],1,"[""j""]",[0.6796000000238678],,,,,,,,,,,,,,,,,,,,,,,,,,,,,,,,,,,,,,,,,,,,,,,,,,,,,,,,,,,,,,,,,,,
,,,,424424,001,2023-09-28_16h33.28.607,fluency,2022.2.5,Win32,59.4000594,,,,,,,,,,,,,,,,,,,,,,,10,7,img/B07_10.jpg,CONTROL,Press J as soon as you see a face, ,JK,,,,,,,,,,,,,,,,,,,,,,,,,,,,,,,,,,,,,,,4,1.4857,,,,,,,,,,,,,,0,12,12,76,1,,,,,,,,,,,,,space,1.108,,,,,,,,,,,,,,,,,,,,,,,,,,,,,,,,,,,,,,,,,,,,,,,,,,,,,,,,,,,,,,,,,
,,,,424424,001,2023-09-28_16h33.28.607,fluency,2022.2.5,Win32,59.4000594,,,,,,,,,,,,,,,,,,,,,,,2,9,img/B09_02.jpg,CONTROL,Press J as soon as you see a face, ,JK,,,,,,,,,,,,,,,,,,,,,,,,,,,,,,,,,,,,,,,,,,,,,,,,,,,,,382.6469,0,13,13,90,1,109,0,0,0,0,1,98,,,,,,,,,,,,,,,,,,,,,,,,,,,,,,,,,,,,,,,,,,,,,,,,,,,,,,,,,,,,,,,,,,,,,,,,
,,,,424424,001,2023-09-28_16h33.28.607,fluency,2022.2.5,Win32,59.4000594,,,,,,,,,,,,,,,,,,,,,,,,,,,,,,,,,,,,,,,,,,,,,,,,,,,,,,,,,,,,,,,,,,,,,,,,,,,,,,,,,,,,,,,,,0,0,0,0,1,,"[""j""]",[0.2617999999523022],1,"[""j""]",[0.2617999999523022],,,,,,,,,,,,,,,,,,,,,,,,,,,,,,,,,,,,,,,,,,,,,,,,,,,,,,,,,,,,,,,,,,,
,,,,424424,001,2023-09-28_16h33.28.607,fluency,2022.2.5,Win32,59.4000594,,,,,,,,,,,,,,,,,,,,,,,2,9,img/B09_02.jpg,CONTROL,Press J as soon as you see a face, ,JK,,,,,,,,,,,,,,,,,,,,,,,,,,,,,,,,,,,,,,,6,0.674,,,,,,,,,,,,,,0,13,13,90,1,,,,,,,,,,,,,space,1.4332,,,,,,,,,,,,,,,,,,,,,,,,,,,,,,,,,,,,,,,,,,,,,,,,,,,,,,,,,,,,,,,,,
,,,,424424,001,2023-09-28_16h33.28.607,fluency,2022.2.5,Win32,59.4000594,,,,,,,,,,,,,,,,,,,,,,,8,2,img/B02_08.jpg,CONTROL,Press J as soon as you see a face, ,JK,,,,,,,,,,,,,,,,,,,,,,,,,,,,,,,,,,,,,,,,,,,,,,,,,,,,,388.7955,0,14,14,19,1,109,0,0,0,0,1,98,,,,,,,,,,,,,,,,,,,,,,,,,,,,,,,,,,,,,,,,,,,,,,,,,,,,,,,,,,,,,,,,,,,,,,,,
,,,,424424,001,2023-09-28_16h33.28.607,fluency,2022.2.5,Win32,59.4000594,,,,,,,,,,,,,,,,,,,,,,,,,,,,,,,,,,,,,,,,,,,,,,,,,,,,,,,,,,,,,,,,,,,,,,,,,,,,,,,,,,,,,,,,,0,0,0,0,1,,"[""j""]",[0.5606000000238396],1,"[""j""]",[0.5606999999284312],,,,,,,,,,,,,,,,,,,,,,,,,,,,,,,,,,,,,,,,,,,,,,,,,,,,,,,,,,,,,,,,,,,
,,,,424424,001,2023-09-28_16h33.28.607,fluency,2022.2.5,Win32,59.4000594,,,,,,,,,,,,,,,,,,,,,,,8,2,img/B02_08.jpg,CONTROL,Press J as soon as you see a face, ,JK,,,,,,,,,,,,,,,,,,,,,,,,,,,,,,,,,,,,,,,5,0.6262,,,,,,,,,,,,,,0,14,14,19,1,,,,,,,,,,,,,space,0.983,,,,,,,,,,,,,,,,,,,,,,,,,,,,,,,,,,,,,,,,,,,,,,,,,,,,,,,,,,,,,,,,,
,,,,424424,001,2023-09-28_16h33.28.607,fluency,2022.2.5,Win32,59.4000594,,,,,,,,,,,,,,,,,,,,,,,0,5,img/B05_00.jpg,CONTROL,Press J as soon as you see a face, ,JK,,,,,,,,,,,,,,,,,,,,,,,,,,,,,,,,,,,,,,,,,,,,,,,,,,,,,394.4578,0,15,15,44,1,109,0,0,0,0,1,98,,,,,,,,,,,,,,,,,,,,,,,,,,,,,,,,,,,,,,,,,,,,,,,,,,,,,,,,,,,,,,,,,,,,,,,,
,,,,424424,001,2023-09-28_16h33.28.607,fluency,2022.2.5,Win32,59.4000594,,,,,,,,,,,,,,,,,,,,,,,,,,,,,,,,,,,,,,,,,,,,,,,,,,,,,,,,,,,,,,,,,,,,,,,,,,,,,,,,,,,,,,,,,0,0,0,0,1,,"[""j""]",[0.5951999999284681],1,"[""j""]",[0.5952999999523172],,,,,,,,,,,,,,,,,,,,,,,,,,,,,,,,,,,,,,,,,,,,,,,,,,,,,,,,,,,,,,,,,,,
,,,,424424,001,2023-09-28_16h33.28.607,fluency,2022.2.5,Win32,59.4000594,,,,,,,,,,,,,,,,,,,,,,,0,5,img/B05_00.jpg,CONTROL,Press J as soon as you see a face, ,JK,,,,,,,,,,,,,,,,,,,,,,,,,,,,,,,,,,,,,,,4,1.154,,,,,,,,,,,,,,0,15,15,44,1,,,,,,,,,,,,,space,2.3015,,,,,,,,,,,,,,,,,,,,,,,,,,,,,,,,,,,,,,,,,,,,,,,,,,,,,,,,,,,,,,,,,
,,,,424424,001,2023-09-28_16h33.28.607,fluency,2022.2.5,Win32,59.4000594,,,,,,,,,,,,,,,,,,,,,,,5,8,img/B08_05.jpg,CONTROL,Press J as soon as you see a face, ,JK,,,,,,,,,,,,,,,,,,,,,,,,,,,,,,,,,,,,,,,,,,,,,,,,,,,,,401.9787,0,16,16,82,1,109,0,0,0,0,1,98,,,,,,,,,,,,,,,,,,,,,,,,,,,,,,,,,,,,,,,,,,,,,,,,,,,,,,,,,,,,,,,,,,,,,,,,
,,,,424424,001,2023-09-28_16h33.28.607,fluency,2022.2.5,Win32,59.4000594,,,,,,,,,,,,,,,,,,,,,,,,,,,,,,,,,,,,,,,,,,,,,,,,,,,,,,,,,,,,,,,,,,,,,,,,,,,,,,,,,,,,,,,,,0,0,0,0,1,,"[""j""]",[0.4065999999046426],1,"[""j""]",[0.40670000004769236],,,,,,,,,,,,,,,,,,,,,,,,,,,,,,,,,,,,,,,,,,,,,,,,,,,,,,,,,,,,,,,,,,,
,,,,424424,001,2023-09-28_16h33.28.607,fluency,2022.2.5,Win32,59.4000594,,,,,,,,,,,,,,,,,,,,,,,5,8,img/B08_05.jpg,CONTROL,Press J as soon as you see a face, ,JK,,,,,,,,,,,,,,,,,,,,,,,,,,,,,,,,,,,,,,,4,0.9671,,,,,,,,,,,,,,0,16,16,82,1,,,,,,,,,,,,,space,0.7194,,,,,,,,,,,,,,,,,,,,,,,,,,,,,,,,,,,,,,,,,,,,,,,,,,,,,,,,,,,,,,,,,
,,,,424424,001,2023-09-28_16h33.28.607,fluency,2022.2.5,Win32,59.4000594,,,,,,,,,,,,,,,,,,,,,,,9,9,img/B09_09.jpg,CONTROL,Press J as soon as you see a face, ,JK,,,,,,,,,,,,,,,,,,,,,,,,,,,,,,,,,,,,,,,,,,,,,,,,,,,,,407.7234,0,17,17,97,1,109,0,0,0,0,1,98,,,,,,,,,,,,,,,,,,,,,,,,,,,,,,,,,,,,,,,,,,,,,,,,,,,,,,,,,,,,,,,,,,,,,,,,
,,,,424424,001,2023-09-28_16h33.28.607,fluency,2022.2.5,Win32,59.4000594,,,,,,,,,,,,,,,,,,,,,,,,,,,,,,,,,,,,,,,,,,,,,,,,,,,,,,,,,,,,,,,,,,,,,,,,,,,,,,,,,,,,,,,,,0,0,0,0,1,,"[""j""]",[0.7386000000238369],1,"[""j""]",[0.7386000000238369],,,,,,,,,,,,,,,,,,,,,,,,,,,,,,,,,,,,,,,,,,,,,,,,,,,,,,,,,,,,,,,,,,,
,,,,424424,001,2023-09-28_16h33.28.607,fluency,2022.2.5,Win32,59.4000594,,,,,,,,,,,,,,,,,,,,,,,9,9,img/B09_09.jpg,CONTROL,Press J as soon as you see a face, ,JK,,,,,,,,,,,,,,,,,,,,,,,,,,,,,,,,,,,,,,,5,0.66,,,,,,,,,,,,,,0,17,17,97,1,,,,,,,,,,,,,space,1.3633,,,,,,,,,,,,,,,,,,,,,,,,,,,,,,,,,,,,,,,,,,,,,,,,,,,,,,,,,,,,,,,,,
,,,,424424,001,2023-09-28_16h33.28.607,fluency,2022.2.5,Win32,59.4000594,,,,,,,,,,,,,,,,,,,,,,,7,5,img/B05_07.jpg,CONTROL,Press J as soon as you see a face, ,JK,,,,,,,,,,,,,,,,,,,,,,,,,,,,,,,,,,,,,,,,,,,,,,,,,,,,,413.8028,0,18,18,51,1,109,0,0,0,0,1,98,,,,,,,,,,,,,,,,,,,,,,,,,,,,,,,,,,,,,,,,,,,,,,,,,,,,,,,,,,,,,,,,,,,,,,,,
,,,,424424,001,2023-09-28_16h33.28.607,fluency,2022.2.5,Win32,59.4000594,,,,,,,,,,,,,,,,,,,,,,,,,,,,,,,,,,,,,,,,,,,,,,,,,,,,,,,,,,,,,,,,,,,,,,,,,,,,,,,,,,,,,,,,,0,0,0,0,1,,"[""j""]",[0.25149999999996453],1,"[""j"",""5""]","[0.25139999997617224,2.602799999952367]",,,,,,,,,,,,,,,,,,,,,,,,,,,,,,,,,,,,,,,,,,,,,,,,,,,,,,,,,,,,,,,,,,,
,,,,424424,001,2023-09-28_16h33.28.607,fluency,2022.2.5,Win32,59.4000594,,,,,,,,,,,,,,,,,,,,,,,7,5,img/B05_07.jpg,CONTROL,Press J as soon as you see a face, ,JK,,,,,,,,,,,,,,,,,,,,,,,,,,,,,,,,,,,,,,,5,0.6052,,,,,,,,,,,,,,0,18,18,51,1,,,,,,,,,,,,,space,1.2005,,,,,,,,,,,,,,,,,,,,,,,,,,,,,,,,,,,,,,,,,,,,,,,,,,,,,,,,,,,,,,,,,
,,,,424424,001,2023-09-28_16h33.28.607,fluency,2022.2.5,Win32,59.4000594,,,,,,,,,,,,,,,,,,,,,,,1,6,img/B06_01.jpg,CONTROL,Press J as soon as you see a face, ,JK,,,,,,,,,,,,,,,,,,,,,,,,,,,,,,,,,,,,,,,,,,,,,,,,,,,,,420.6656,0,19,19,56,1,109,0,0,0,0,1,98,,,,,,,,,,,,,,,,,,,,,,,,,,,,,,,,,,,,,,,,,,,,,,,,,,,,,,,,,,,,,,,,,,,,,,,,
,,,,424424,001,2023-09-28_16h33.28.607,fluency,2022.2.5,Win32,59.4000594,,,,,,,,,,,,,,,,,,,,,,,,,,,,,,,,,,,,,,,,,,,,,,,,,,,,,,,,,,,,,,,,,,,,,,,,,,,,,,,,,,,,,,,,,0,0,0,0,1,,"[""j""]",[0.26399999999995316],1,"[""j""]",[0.2641000000238023],,,,,,,,,,,,,,,,,,,,,,,,,,,,,,,,,,,,,,,,,,,,,,,,,,,,,,,,,,,,,,,,,,,
,,,,424424,001,2023-09-28_16h33.28.607,fluency,2022.2.5,Win32,59.4000594,,,,,,,,,,,,,,,,,,,,,,,1,6,img/B06_01.jpg,CONTROL,Press J as soon as you see a face, ,JK,,,,,,,,,,,,,,,,,,,,,,,,,,,,,,,,,,,,,,,4,0.6814,,,,,,,,,,,,,,0,19,19,56,1,,,,,,,,,,,,,space,0.8174,,,,,,,,,,,,,,,,,,,,,,,,,,,,,,,,,,,,,,,,,,,,,,,,,,,,,,,,,,,,,,,,,
,,,,424424,001,2023-09-28_16h33.28.607,fluency,2022.2.5,Win32,59.4000594,,,,,,,,,,,,,,,,,,,,,,,7,2,img/B02_07.jpg,CONTROL,Press J as soon as you see a face, ,JK,,,,,,,,,,,,,,,,,,,,,,,,,,,,,,,,,,,,,,,,,,,,,,,,,,,,,426.2228,0,20,20,18,1,109,0,0,0,0,1,98,,,,,,,,,,,,,,,,,,,,,,,,,,,,,,,,,,,,,,,,,,,,,,,,,,,,,,,,,,,,,,,,,,,,,,,,
,,,,424424,001,2023-09-28_16h33.28.607,fluency,2022.2.5,Win32,59.4000594,,,,,,,,,,,,,,,,,,,,,,,,,,,,,,,,,,,,,,,,,,,,,,,,,,,,,,,,,,,,,,,,,,,,,,,,,,,,,,,,,,,,,,,,,0,0,0,0,1,,"[""j""]",[0.6531999999284608],1,"[""j""]",[0.6530999999046116],,,,,,,,,,,,,,,,,,,,,,,,,,,,,,,,,,,,,,,,,,,,,,,,,,,,,,,,,,,,,,,,,,,
,,,,424424,001,2023-09-28_16h33.28.607,fluency,2022.2.5,Win32,59.4000594,,,,,,,,,,,,,,,,,,,,,,,7,2,img/B02_07.jpg,CONTROL,Press J as soon as you see a face, ,JK,,,,,,,,,,,,,,,,,,,,,,,,,,,,,,,,,,,,,,,6,0.4729,,,,,,,,,,,,,,0,20,20,18,1,,,,,,,,,,,,,space,2.8326,,,,,,,,,,,,,,,,,,,,,,,,,,,,,,,,,,,,,,,,,,,,,,,,,,,,,,,,,,,,,,,,,
,,,,424424,001,2023-09-28_16h33.28.607,fluency,2022.2.5,Win32,59.4000594,,,,,,,,,,,,,,,,,,,,,,,6,4,img/B04_06.jpg,CONTROL,Press J as soon as you see a face, ,JK,,,,,,,,,,,,,,,,,,,,,,,,,,,,,,,,,,,,,,,,,,,,,,,,,,,,,433.5824,0,21,21,39,1,109,0,0,0,0,1,98,,,,,,,,,,,,,,,,,,,,,,,,,,,,,,,,,,,,,,,,,,,,,,,,,,,,,,,,,,,,,,,,,,,,,,,,
,,,,424424,001,2023-09-28_16h33.28.607,fluency,2022.2.5,Win32,59.4000594,,,,,,,,,,,,,,,,,,,,,,,,,,,,,,,,,,,,,,,,,,,,,,,,,,,,,,,,,,,,,,,,,,,,,,,,,,,,,,,,,,,,,,,,,0,0,0,0,1,,"[""j""]",[0.22610000002384822],1,"[""j""]",[0.22610000002384822],,,,,,,,,,,,,,,,,,,,,,,,,,,,,,,,,,,,,,,,,,,,,,,,,,,,,,,,,,,,,,,,,,,
,,,,424424,001,2023-09-28_16h33.28.607,fluency,2022.2.5,Win32,59.4000594,,,,,,,,,,,,,,,,,,,,,,,6,4,img/B04_06.jpg,CONTROL,Press J as soon as you see a face, ,JK,,,,,,,,,,,,,,,,,,,,,,,,,,,,,,,,,,,,,,,5,1.324,,,,,,,,,,,,,,0,21,21,39,1,,,,,,,,,,,,,space,0.9001,,,,,,,,,,,,,,,,,,,,,,,,,,,,,,,,,,,,,,,,,,,,,,,,,,,,,,,,,,,,,,,,,
,,,,424424,001,2023-09-28_16h33.28.607,fluency,2022.2.5,Win32,59.4000594,,,,,,,,,,,,,,,,,,,,,,,1,4,img/B04_01.jpg,CONTROL,Press J as soon as you see a face, ,JK,,,,,,,,,,,,,,,,,,,,,,,,,,,,,,,,,,,,,,,,,,,,,,,,,,,,,440.8602,0,22,22,34,1,109,0,0,0,0,1,98,,,,,,,,,,,,,,,,,,,,,,,,,,,,,,,,,,,,,,,,,,,,,,,,,,,,,,,,,,,,,,,,,,,,,,,,
,,,,424424,001,2023-09-28_16h33.28.607,fluency,2022.2.5,Win32,59.4000594,,,,,,,,,,,,,,,,,,,,,,,,,,,,,,,,,,,,,,,,,,,,,,,,,,,,,,,,,,,,,,,,,,,,,,,,,,,,,,,,,,,,,,,,,0,0,0,0,1,,"[""j""]",[0.2512000000476746],1,"[""j""]",[0.25110000002388233],,,,,,,,,,,,,,,,,,,,,,,,,,,,,,,,,,,,,,,,,,,,,,,,,,,,,,,,,,,,,,,,,,,
,,,,424424,001,2023-09-28_16h33.28.607,fluency,2022.2.5,Win32,59.4000594,,,,,,,,,,,,,,,,,,,,,,,1,4,img/B04_01.jpg,CONTROL,Press J as soon as you see a face, ,JK,,,,,,,,,,,,,,,,,,,,,,,,,,,,,,,,,,,,,,,5,1.5003,,,,,,,,,,,,,,0,22,22,34,1,,,,,,,,,,,,,space,1.6865,,,,,,,,,,,,,,,,,,,,,,,,,,,,,,,,,,,,,,,,,,,,,,,,,,,,,,,,,,,,,,,,,
,,,,424424,001,2023-09-28_16h33.28.607,fluency,2022.2.5,Win32,59.4000594,,,,,,,,,,,,,,,,,,,,,,,2,2,img/B02_02.jpg,CONTROL,Press J as soon as you see a face, ,JK,,,,,,,,,,,,,,,,,,,,,,,,,,,,,,,,,,,,,,,,,,,,,,,,,,,,,448.102,0,23,23,13,1,109,0,0,0,0,1,98,,,,,,,,,,,,,,,,,,,,,,,,,,,,,,,,,,,,,,,,,,,,,,,,,,,,,,,,,,,,,,,,,,,,,,,,
,,,,424424,001,2023-09-28_16h33.28.607,fluency,2022.2.5,Win32,59.4000594,,,,,,,,,,,,,,,,,,,,,,,,,,,,,,,,,,,,,,,,,,,,,,,,,,,,,,,,,,,,,,,,,,,,,,,,,,,,,,,,,,,,,,,,,0,0,0,0,1,,"[""j""]",[0.5688999999761677],1,"[""j""]",[0.5676999999284931],,,,,,,,,,,,,,,,,,,,,,,,,,,,,,,,,,,,,,,,,,,,,,,,,,,,,,,,,,,,,,,,,,,
,,,,424424,001,2023-09-28_16h33.28.607,fluency,2022.2.5,Win32,59.4000594,,,,,,,,,,,,,,,,,,,,,,,2,2,img/B02_02.jpg,CONTROL,Press J as soon as you see a face, ,JK,,,,,,,,,,,,,,,,,,,,,,,,,,,,,,,,,,,,,,,6,1.6863,,,,,,,,,,,,,,0,23,23,13,1,,,,,,,,,,,,,space,2.2372,,,,,,,,,,,,,,,,,,,,,,,,,,,,,,,,,,,,,,,,,,,,,,,,,,,,,,,,,,,,,,,,,
,,,,424424,001,2023-09-28_16h33.28.607,fluency,2022.2.5,Win32,59.4000594,,,,,,,,,,,,,,,,,,,,,,,0,9,img/B09_00.jpg,CONTROL,Press J as soon as you see a face, ,JK,,,,,,,,,,,,,,,,,,,,,,,,,,,,,,,,,,,,,,,,,,,,,,,,,,,,,457.0968,0,24,24,88,1,109,0,0,0,0,1,98,,,,,,,,,,,,,,,,,,,,,,,,,,,,,,,,,,,,,,,,,,,,,,,,,,,,,,,,,,,,,,,,,,,,,,,,
,,,,424424,001,2023-09-28_16h33.28.607,fluency,2022.2.5,Win32,59.4000594,,,,,,,,,,,,,,,,,,,,,,,,,,,,,,,,,,,,,,,,,,,,,,,,,,,,,,,,,,,,,,,,,,,,,,,,,,,,,,,,,,,,,,,,,0,0,0,0,1,,"[""j""]",[0.5550999999045985],1,"[""j""]",[0.5550999999045985],,,,,,,,,,,,,,,,,,,,,,,,,,,,,,,,,,,,,,,,,,,,,,,,,,,,,,,,,,,,,,,,,,,
,,,,424424,001,2023-09-28_16h33.28.607,fluency,2022.2.5,Win32,59.4000594,,,,,,,,,,,,,,,,,,,,,,,0,9,img/B09_00.jpg,CONTROL,Press J as soon as you see a face, ,JK,,,,,,,,,,,,,,,,,,,,,,,,,,,,,,,,,,,,,,,5,1.631,,,,,,,,,,,,,,0,24,24,88,1,,,,,,,,,,,,,space,0.8496,,,,,,,,,,,,,,,,,,,,,,,,,,,,,,,,,,,,,,,,,,,,,,,,,,,,,,,,,,,,,,,,,
,,,,424424,001,2023-09-28_16h33.28.607,fluency,2022.2.5,Win32,59.4000594,,,,,,,,,,,,,,,,,,,,,,,3,8,img/B08_03.jpg,CONTROL,Press J as soon as you see a face, ,JK,,,,,,,,,,,,,,,,,,,,,,,,,,,,,,,,,,,,,,,,,,,,,,,,,,,,,463.6444,0,25,25,80,1,109,0,0,0,0,1,98,,,,,,,,,,,,,,,,,,,,,,,,,,,,,,,,,,,,,,,,,,,,,,,,,,,,,,,,,,,,,,,,,,,,,,,,
,,,,424424,001,2023-09-28_16h33.28.607,fluency,2022.2.5,Win32,59.4000594,,,,,,,,,,,,,,,,,,,,,,,,,,,,,,,,,,,,,,,,,,,,,,,,,,,,,,,,,,,,,,,,,,,,,,,,,,,,,,,,,,,,,,,,,0,0,0,0,1,,"[""j""]",[0.59699999999998],1,"[""j""]",[0.5970000000000368],,,,,,,,,,,,,,,,,,,,,,,,,,,,,,,,,,,,,,,,,,,,,,,,,,,,,,,,,,,,,,,,,,,
,,,,424424,001,2023-09-28_16h33.28.607,fluency,2022.2.5,Win32,59.4000594,,,,,,,,,,,,,,,,,,,,,,,3,8,img/B08_03.jpg,CONTROL,Press J as soon as you see a face, ,JK,,,,,,,,,,,,,,,,,,,,,,,,,,,,,,,,,,,,,,,5,1.0577,,,,,,,,,,,,,,0,25,25,80,1,,,,,,,,,,,,,space,0.305,,,,,,,,,,,,,,,,,,,,,,,,,,,,,,,,,,,,,,,,,,,,,,,,,,,,,,,,,,,,,,,,,
,,,,424424,001,2023-09-28_16h33.28.607,fluency,2022.2.5,Win32,59.4000594,,,,,,,,,,,,,,,,,,,,,,,7,8,img/B08_07.jpg,CONTROL,Press J as soon as you see a face, ,JK,,,,,,,,,,,,,,,,,,,,,,,,,,,,,,,,,,,,,,,,,,,,,,,,,,,,,469.066,0,26,26,84,1,109,0,0,0,0,1,98,,,,,,,,,,,,,,,,,,,,,,,,,,,,,,,,,,,,,,,,,,,,,,,,,,,,,,,,,,,,,,,,,,,,,,,,
,,,,424424,001,2023-09-28_16h33.28.607,fluency,2022.2.5,Win32,59.4000594,,,,,,,,,,,,,,,,,,,,,,,,,,,,,,,,,,,,,,,,,,,,,,,,,,,,,,,,,,,,,,,,,,,,,,,,,,,,,,,,,,,,,,,,,0,0,0,0,1,,"[""j""]",[0.7350000000000136],1,"[""j""]",[0.7348999999761645],,,,,,,,,,,,,,,,,,,,,,,,,,,,,,,,,,,,,,,,,,,,,,,,,,,,,,,,,,,,,,,,,,,
,,,,424424,001,2023-09-28_16h33.28.607,fluency,2022.2.5,Win32,59.4000594,,,,,,,,,,,,,,,,,,,,,,,7,8,img/B08_07.jpg,CONTROL,Press J as soon as you see a face, ,JK,,,,,,,,,,,,,,,,,,,,,,,,,,,,,,,,,,,,,,,6,0.581,,,,,,,,,,,,,,0,26,26,84,1,,,,,,,,,,,,,space,6.9675,,,,,,,,,,,,,,,,,,,,,,,,,,,,,,,,,,,,,,,,,,,,,,,,,,,,,,,,,,,,,,,,,
,,,,424424,001,2023-09-28_16h33.28.607,fluency,2022.2.5,Win32,59.4000594,,,,,,,,,,,,,,,,,,,,,,,4,7,img/B07_04.jpg,CONTROL,Press J as soon as you see a face, ,JK,,,,,,,,,,,,,,,,,,,,,,,,,,,,,,,,,,,,,,,,,,,,,,,,,,,,,480.6708,0,27,27,70,1,109,0,0,0,0,1,98,,,,,,,,,,,,,,,,,,,,,,,,,,,,,,,,,,,,,,,,,,,,,,,,,,,,,,,,,,,,,,,,,,,,,,,,
,,,,424424,001,2023-09-28_16h33.28.607,fluency,2022.2.5,Win32,59.4000594,,,,,,,,,,,,,,,,,,,,,,,,,,,,,,,,,,,,,,,,,,,,,,,,,,,,,,,,,,,,,,,,,,,,,,,,,,,,,,,,,,,,,,,,,0,0,0,0,1,,"[""j""]",[0.41299999999995407],1,"[""j"",""5""]","[0.41299999999995407,2.412600000023815]",,,,,,,,,,,,,,,,,,,,,,,,,,,,,,,,,,,,,,,,,,,,,,,,,,,,,,,,,,,,,,,,,,,
,,,,424424,001,2023-09-28_16h33.28.607,fluency,2022.2.5,Win32,59.4000594,,,,,,,,,,,,,,,,,,,,,,,4,7,img/B07_04.jpg,CONTROL,Press J as soon as you see a face, ,JK,,,,,,,,,,,,,,,,,,,,,,,,,,,,,,,,,,,,,,,5,0.4126,,,,,,,,,,,,,,0,27,27,70,1,,,,,,,,,,,,,space,1.0167,,,,,,,,,,,,,,,,,,,,,,,,,,,,,,,,,,,,,,,,,,,,,,,,,,,,,,,,,,,,,,,,,
,,,,424424,001,2023-09-28_16h33.28.607,fluency,2022.2.5,Win32,59.4000594,,,,,,,,,,,,,,,,,,,,,,,8,9,img/B09_08.jpg,CONTROL,Press J as soon as you see a face, ,JK,,,,,,,,,,,,,,,,,,,,,,,,,,,,,,,,,,,,,,,,,,,,,,,,,,,,,486.1665,0,28,28,96,1,109,0,0,0,0,1,98,,,,,,,,,,,,,,,,,,,,,,,,,,,,,,,,,,,,,,,,,,,,,,,,,,,,,,,,,,,,,,,,,,,,,,,,
,,,,424424,001,2023-09-28_16h33.28.607,fluency,2022.2.5,Win32,59.4000594,,,,,,,,,,,,,,,,,,,,,,,,,,,,,,,,,,,,,,,,,,,,,,,,,,,,,,,,,,,,,,,,,,,,,,,,,,,,,,,,,,,,,,,,,0,0,0,0,1,,"[""j""]",[0.6355000000000359],1,"[""j""]",[0.6354000000953874],,,,,,,,,,,,,,,,,,,,,,,,,,,,,,,,,,,,,,,,,,,,,,,,,,,,,,,,,,,,,,,,,,,
,,,,424424,001,2023-09-28_16h33.28.607,fluency,2022.2.5,Win32,59.4000594,,,,,,,,,,,,,,,,,,,,,,,8,9,img/B09_08.jpg,CONTROL,Press J as soon as you see a face, ,JK,,,,,,,,,,,,,,,,,,,,,,,,,,,,,,,,,,,,,,,6,0.4472,,,,,,,,,,,,,,0,28,28,96,1,,,,,,,,,,,,,space,0.3742,,,,,,,,,,,,,,,,,,,,,,,,,,,,,,,,,,,,,,,,,,,,,,,,,,,,,,,,,,,,,,,,,
,,,,424424,001,2023-09-28_16h33.28.607,fluency,2022.2.5,Win32,59.4000594,,,,,,,,,,,,,,,,,,,,,,,6,9,img/B09_06.jpg,CONTROL,Press J as soon as you see a face, ,JK,,,,,,,,,,,,,,,,,,,,,,,,,,,,,,,,,,,,,,,,,,,,,,,,,,,,,491.0452,0,29,29,94,1,109,0,0,0,0,1,98,,,,,,,,,,,,,,,,,,,,,,,,,,,,,,,,,,,,,,,,,,,,,,,,,,,,,,,,,,,,,,,,,,,,,,,,
,,,,424424,001,2023-09-28_16h33.28.607,fluency,2022.2.5,Win32,59.4000594,,,,,,,,,,,,,,,,,,,,,,,,,,,,,,,,,,,,,,,,,,,,,,,,,,,,,,,,,,,,,,,,,,,,,,,,,,,,,,,,,,,,,,,,,0,0,0,0,1,,"[""j""]",[0.5197000000476919],1,"[""j"",""space""]","[0.519800000071541,1.2633000000714674]",,,,,,,,,,,,,,,,,,,,,,,,,,,,,,,,,,,,,,,,,,,,,,,,,,,,,,,,,,,,,,,,,,,
,,,,424424,001,2023-09-28_16h33.28.607,fluency,2022.2.5,Win32,59.4000594,,,,,,,,,,,,,,,,,,,,,,,6,9,img/B09_06.jpg,CONTROL,Press J as soon as you see a face, ,JK,,,,,,,,,,,,,,,,,,,,,,,,,,,,,,,,,,,,,,,6,0.4411,,,,,,,,,,,,,,0,29,29,94,1,,,,,,,,,,,,,space,0.6994,,,,,,,,,,,,,,,,,,,,,,,,,,,,,,,,,,,,,,,,,,,,,,,,,,,,,,,,,,,,,,,,,
,,,,424424,001,2023-09-28_16h33.28.607,fluency,2022.2.5,Win32,59.4000594,,,,,,,,,,,,,,,,,,,,,,,9,6,img/B06_09.jpg,CONTROL,Press J as soon as you see a face, ,JK,,,,,,,,,,,,,,,,,,,,,,,,,,,,,,,,,,,,,,,,,,,,,,,,,,,,,496.2568,0,30,30,64,1,109,0,0,0,0,1,98,,,,,,,,,,,,,,,,,,,,,,,,,,,,,,,,,,,,,,,,,,,,,,,,,,,,,,,,,,,,,,,,,,,,,,,,
,,,,424424,001,2023-09-28_16h33.28.607,fluency,2022.2.5,Win32,59.4000594,,,,,,,,,,,,,,,,,,,,,,,,,,,,,,,,,,,,,,,,,,,,,,,,,,,,,,,,,,,,,,,,,,,,,,,,,,,,,,,,,,,,,,,,,0,0,0,0,1,,"[""j""]",[0.7837999999522935],1,"[""j""]",[0.7836999999284444],,,,,,,,,,,,,,,,,,,,,,,,,,,,,,,,,,,,,,,,,,,,,,,,,,,,,,,,,,,,,,,,,,,
,,,,424424,001,2023-09-28_16h33.28.607,fluency,2022.2.5,Win32,59.4000594,,,,,,,,,,,,,,,,,,,,,,,9,6,img/B06_09.jpg,CONTROL,Press J as soon as you see a face, ,JK,,,,,,,,,,,,,,,,,,,,,,,,,,,,,,,,,,,,,,,5,1.4889,,,,,,,,,,,,,,0,30,30,64,1,,,,,,,,,,,,,space,1.1335,,,,,,,,,,,,,,,,,,,,,,,,,,,,,,,,,,,,,,,,,,,,,,,,,,,,,,,,,,,,,,,,,
,,,,424424,001,2023-09-28_16h33.28.607,fluency,2022.2.5,Win32,59.4000594,,,,,,,,,,,,,,,,,,,,,,,5,7,img/B07_05.jpg,CONTROL,Press J as soon as you see a face, ,JK,,,,,,,,,,,,,,,,,,,,,,,,,,,,,,,,,,,,,,,,,,,,,,,,,,,,,503.9342,0,31,31,71,1,109,0,0,0,0,1,98,,,,,,,,,,,,,,,,,,,,,,,,,,,,,,,,,,,,,,,,,,,,,,,,,,,,,,,,,,,,,,,,,,,,,,,,
,,,,424424,001,2023-09-28_16h33.28.607,fluency,2022.2.5,Win32,59.4000594,,,,,,,,,,,,,,,,,,,,,,,,,,,,,,,,,,,,,,,,,,,,,,,,,,,,,,,,,,,,,,,,,,,,,,,,,,,,,,,,,,,,,,,,,0,0,0,0,1,,"[""j""]",[0.2654000000953829],1,"[""j""]",[0.2653999999761254],,,,,,,,,,,,,,,,,,,,,,,,,,,,,,,,,,,,,,,,,,,,,,,,,,,,,,,,,,,,,,,,,,,
,,,,424424,001,2023-09-28_16h33.28.607,fluency,2022.2.5,Win32,59.4000594,,,,,,,,,,,,,,,,,,,,,,,5,7,img/B07_05.jpg,CONTROL,Press J as soon as you see a face, ,JK,,,,,,,,,,,,,,,,,,,,,,,,,,,,,,,,,,,,,,,6,1.394,,,,,,,,,,,,,,0,31,31,71,1,,,,,,,,,,,,,space,1.5332,,,,,,,,,,,,,,,,,,,,,,,,,,,,,,,,,,,,,,,,,,,,,,,,,,,,,,,,,,,,,,,,,
,,,,424424,001,2023-09-28_16h33.28.607,fluency,2022.2.5,Win32,59.4000594,,,,,,,,,,,,,,,,,,,,,,,7,1,img/B01_07.jpg,CONTROL,Press J as soon as you see a face, ,JK,,,,,,,,,,,,,,,,,,,,,,,,,,,,,,,,,,,,,,,,,,,,,,,,,,,,,510.8968,0,32,32,7,1,109,0,0,0,0,1,98,,,,,,,,,,,,,,,,,,,,,,,,,,,,,,,,,,,,,,,,,,,,,,,,,,,,,,,,,,,,,,,,,,,,,,,,
,,,,424424,001,2023-09-28_16h33.28.607,fluency,2022.2.5,Win32,59.4000594,,,,,,,,,,,,,,,,,,,,,,,,,,,,,,,,,,,,,,,,,,,,,,,,,,,,,,,,,,,,,,,,,,,,,,,,,,,,,,,,,,,,,,,,,0,0,0,0,1,,"[""j""]",[0.6340000000000146],1,"[""j""]",[0.6340000000000146],,,,,,,,,,,,,,,,,,,,,,,,,,,,,,,,,,,,,,,,,,,,,,,,,,,,,,,,,,,,,,,,,,,
,,,,424424,001,2023-09-28_16h33.28.607,fluency,2022.2.5,Win32,59.4000594,,,,,,,,,,,,,,,,,,,,,,,7,1,img/B01_07.jpg,CONTROL,Press J as soon as you see a face, ,JK,,,,,,,,,,,,,,,,,,,,,,,,,,,,,,,,,,,,,,,6,0.9233,,,,,,,,,,,,,,0,32,32,7,1,,,,,,,,,,,,,space,1.2335,,,,,,,,,,,,,,,,,,,,,,,,,,,,,,,,,,,,,,,,,,,,,,,,,,,,,,,,,,,,,,,,,
,,,,424424,001,2023-09-28_16h33.28.607,fluency,2022.2.5,Win32,59.4000594,,,,,,,,,,,,,,,,,,,,,,,3,10,img/B10_03.jpg,CONTROL,Press J as soon as you see a face, ,JK,,,,,,,,,,,,,,,,,,,,,,,,,,,,,,,,,,,,,,,,,,,,,,,,,,,,,518.1086,0,33,33,102,1,109,0,0,0,0,1,98,,,,,,,,,,,,,,,,,,,,,,,,,,,,,,,,,,,,,,,,,,,,,,,,,,,,,,,,,,,,,,,,,,,,,,,,
,,,,424424,001,2023-09-28_16h33.28.607,fluency,2022.2.5,Win32,59.4000594,,,,,,,,,,,,,,,,,,,,,,,,,,,,,,,,,,,,,,,,,,,,,,,,,,,,,,,,,,,,,,,,,,,,,,,,,,,,,,,,,,,,,,,,,0,0,0,0,1,,"[""j""]",[0.6105000000000018],1,"[""j""]",[0.610600000023851],,,,,,,,,,,,,,,,,,,,,,,,,,,,,,,,,,,,,,,,,,,,,,,,,,,,,,,,,,,,,,,,,,,
,,,,424424,001,2023-09-28_16h33.28.607,fluency,2022.2.5,Win32,59.4000594,,,,,,,,,,,,,,,,,,,,,,,3,10,img/B10_03.jpg,CONTROL,Press J as soon as you see a face, ,JK,,,,,,,,,,,,,,,,,,,,,,,,,,,,,,,,,,,,,,,6,0.4801,,,,,,,,,,,,,,0,33,33,102,1,,,,,,,,,,,,,space,0.3845,,,,,,,,,,,,,,,,,,,,,,,,,,,,,,,,,,,,,,,,,,,,,,,,,,,,,,,,,,,,,,,,,
,,,,424424,001,2023-09-28_16h33.28.607,fluency,2022.2.5,Win32,59.4000594,,,,,,,,,,,,,,,,,,,,,,,7,3,img/B03_07.jpg,CONTROL,Press J as soon as you see a face, ,JK,,,,,,,,,,,,,,,,,,,,,,,,,,,,,,,,,,,,,,,,,,,,,,,,,,,,,523.0167,0,34,34,29,1,109,0,0,0,0,1,98,,,,,,,,,,,,,,,,,,,,,,,,,,,,,,,,,,,,,,,,,,,,,,,,,,,,,,,,,,,,,,,,,,,,,,,,
,,,,424424,001,2023-09-28_16h33.28.607,fluency,2022.2.5,Win32,59.4000594,,,,,,,,,,,,,,,,,,,,,,,,,,,,,,,,,,,,,,,,,,,,,,,,,,,,,,,,,,,,,,,,,,,,,,,,,,,,,,,,,,,,,,,,,0,0,0,0,1,,"[""j""]",[0.6372000000476419],1,"[""j""]",[0.6372000000476419],,,,,,,,,,,,,,,,,,,,,,,,,,,,,,,,,,,,,,,,,,,,,,,,,,,,,,,,,,,,,,,,,,,
,,,,424424,001,2023-09-28_16h33.28.607,fluency,2022.2.5,Win32,59.4000594,,,,,,,,,,,,,,,,,,,,,,,7,3,img/B03_07.jpg,CONTROL,Press J as soon as you see a face, ,JK,,,,,,,,,,,,,,,,,,,,,,,,,,,,,,,,,,,,,,,5,0.8215,,,,,,,,,,,,,,0,34,34,29,1,,,,,,,,,,,,,space,1.1179,,,,,,,,,,,,,,,,,,,,,,,,,,,,,,,,,,,,,,,,,,,,,,,,,,,,,,,,,,,,,,,,,
,,,,424424,001,2023-09-28_16h33.28.607,fluency,2022.2.5,Win32,59.4000594,,,,,,,,,,,,,,,,,,,,,,,2,5,img/B05_02.jpg,CONTROL,Press J as soon as you see a face, ,JK,,,,,,,,,,,,,,,,,,,,,,,,,,,,,,,,,,,,,,,,,,,,,,,,,,,,,529.0267,0,35,35,46,1,109,0,0,0,0,1,98,,,,,,,,,,,,,,,,,,,,,,,,,,,,,,,,,,,,,,,,,,,,,,,,,,,,,,,,,,,,,,,,,,,,,,,,
,,,,424424,001,2023-09-28_16h33.28.607,fluency,2022.2.5,Win32,59.4000594,,,,,,,,,,,,,,,,,,,,,,,,,,,,,,,,,,,,,,,,,,,,,,,,,,,,,,,,,,,,,,,,,,,,,,,,,,,,,,,,,,,,,,,,,0,0,0,0,1,,"[""j""]",[0.6236000000238846],1,"[""j""]",[0.6235000000000355],,,,,,,,,,,,,,,,,,,,,,,,,,,,,,,,,,,,,,,,,,,,,,,,,,,,,,,,,,,,,,,,,,,
,,,,424424,001,2023-09-28_16h33.28.607,fluency,2022.2.5,Win32,59.4000594,,,,,,,,,,,,,,,,,,,,,,,2,5,img/B05_02.jpg,CONTROL,Press J as soon as you see a face, ,JK,,,,,,,,,,,,,,,,,,,,,,,,,,,,,,,,,,,,,,,5,0.6824,,,,,,,,,,,,,,0,35,35,46,1,,,,,,,,,,,,,space,2.2076,,,,,,,,,,,,,,,,,,,,,,,,,,,,,,,,,,,,,,,,,,,,,,,,,,,,,,,,,,,,,,,,,
,,,,424424,001,2023-09-28_16h33.28.607,fluency,2022.2.5,Win32,59.4000594,,,,,,,,,,,,,,,,,,,,,,,8,8,img/B08_08.jpg,CONTROL,Press J as soon as you see a face, ,JK,,,,,,,,,,,,,,,,,,,,,,,,,,,,,,,,,,,,,,,,,,,,,,,,,,,,,535.9745,0,36,36,85,1,109,0,0,0,0,1,98,,,,,,,,,,,,,,,,,,,,,,,,,,,,,,,,,,,,,,,,,,,,,,,,,,,,,,,,,,,,,,,,,,,,,,,,
,,,,424424,001,2023-09-28_16h33.28.607,fluency,2022.2.5,Win32,59.4000594,,,,,,,,,,,,,,,,,,,,,,,,,,,,,,,,,,,,,,,,,,,,,,,,,,,,,,,,,,,,,,,,,,,,,,,,,,,,,,,,,,,,,,,,,0,0,0,0,1,,"[""j""]",[0.48699999999996635],1,"[""j""]",[0.4871000000238155],,,,,,,,,,,,,,,,,,,,,,,,,,,,,,,,,,,,,,,,,,,,,,,,,,,,,,,,,,,,,,,,,,,
,,,,424424,001,2023-09-28_16h33.28.607,fluency,2022.2.5,Win32,59.4000594,,,,,,,,,,,,,,,,,,,,,,,8,8,img/B08_08.jpg,CONTROL,Press J as soon as you see a face, ,JK,,,,,,,,,,,,,,,,,,,,,,,,,,,,,,,,,,,,,,,6,0.6256,,,,,,,,,,,,,,0,36,36,85,1,,,,,,,,,,,,,space,2.1214,,,,,,,,,,,,,,,,,,,,,,,,,,,,,,,,,,,,,,,,,,,,,,,,,,,,,,,,,,,,,,,,,
,,,,424424,001,2023-09-28_16h33.28.607,fluency,2022.2.5,Win32,59.4000594,,,,,,,,,,,,,,,,,,,,,,,2,4,img/B04_02.jpg,CONTROL,Press J as soon as you see a face, ,JK,,,,,,,,,,,,,,,,,,,,,,,,,,,,,,,,,,,,,,,,,,,,,,,,,,,,,542.763,0,37,37,35,1,109,0,0,0,0,1,98,,,,,,,,,,,,,,,,,,,,,,,,,,,,,,,,,,,,,,,,,,,,,,,,,,,,,,,,,,,,,,,,,,,,,,,,
,,,,424424,001,2023-09-28_16h33.28.607,fluency,2022.2.5,Win32,59.4000594,,,,,,,,,,,,,,,,,,,,,,,,,,,,,,,,,,,,,,,,,,,,,,,,,,,,,,,,,,,,,,,,,,,,,,,,,,,,,,,,,,,,,,,,,0,0,0,0,1,,"[""j""]",[0.7292999999523317],1,"[""j""]",[0.7293999999761809],,,,,,,,,,,,,,,,,,,,,,,,,,,,,,,,,,,,,,,,,,,,,,,,,,,,,,,,,,,,,,,,,,,
,,,,424424,001,2023-09-28_16h33.28.607,fluency,2022.2.5,Win32,59.4000594,,,,,,,,,,,,,,,,,,,,,,,2,4,img/B04_02.jpg,CONTROL,Press J as soon as you see a face, ,JK,,,,,,,,,,,,,,,,,,,,,,,,,,,,,,,,,,,,,,,6,0.772,,,,,,,,,,,,,,0,37,37,35,1,,,,,,,,,,,,,space,3.3468,,,,,,,,,,,,,,,,,,,,,,,,,,,,,,,,,,,,,,,,,,,,,,,,,,,,,,,,,,,,,,,,,
,,,,424424,001,2023-09-28_16h33.28.607,fluency,2022.2.5,Win32,59.4000594,,,,,,,,,,,,,,,,,,,,,,,7,4,img/B04_07.jpg,CONTROL,Press J as soon as you see a face, ,JK,,,,,,,,,,,,,,,,,,,,,,,,,,,,,,,,,,,,,,,,,,,,,,,,,,,,,550.9558,0,38,38,40,1,109,0,0,0,0,1,98,,,,,,,,,,,,,,,,,,,,,,,,,,,,,,,,,,,,,,,,,,,,,,,,,,,,,,,,,,,,,,,,,,,,,,,,
,,,,424424,001,2023-09-28_16h33.28.607,fluency,2022.2.5,Win32,59.4000594,,,,,,,,,,,,,,,,,,,,,,,,,,,,,,,,,,,,,,,,,,,,,,,,,,,,,,,,,,,,,,,,,,,,,,,,,,,,,,,,,,,,,,,,,0,0,0,0,1,,"[""j""]",[0.3858999999761181],1,"[""j""]",[0.3858999999761181],,,,,,,,,,,,,,,,,,,,,,,,,,,,,,,,,,,,,,,,,,,,,,,,,,,,,,,,,,,,,,,,,,,
,,,,424424,001,2023-09-28_16h33.28.607,fluency,2022.2.5,Win32,59.4000594,,,,,,,,,,,,,,,,,,,,,,,7,4,img/B04_07.jpg,CONTROL,Press J as soon as you see a face, ,JK,,,,,,,,,,,,,,,,,,,,,,,,,,,,,,,,,,,,,,,5,0.7214,,,,,,,,,,,,,,0,38,38,40,1,,,,,,,,,,,,,space,1.086,,,,,,,,,,,,,,,,,,,,,,,,,,,,,,,,,,,,,,,,,,,,,,,,,,,,,,,,,,,,,,,,,
,,,,424424,001,2023-09-28_16h33.28.607,fluency,2022.2.5,Win32,59.4000594,,,,,,,,,,,,,,,,,,,,,,,10,2,img/B02_10.jpg,CONTROL,Press J as soon as you see a face, ,JK,,,,,,,,,,,,,,,,,,,,,,,,,,,,,,,,,,,,,,,,,,,,,,,,,,,,,556.8175,0,39,39,21,1,109,0,0,0,0,1,98,,,,,,,,,,,,,,,,,,,,,,,,,,,,,,,,,,,,,,,,,,,,,,,,,,,,,,,,,,,,,,,,,,,,,,,,
,,,,424424,001,2023-09-28_16h33.28.607,fluency,2022.2.5,Win32,59.4000594,,,,,,,,,,,,,,,,,,,,,,,,,,,,,,,,,,,,,,,,,,,,,,,,,,,,,,,,,,,,,,,,,,,,,,,,,,,,,,,,,,,,,,,,,0,0,0,0,1,,"[""j""]",[0.2460000000000946],1,"[""j""]",[0.24590000009538926],,,,,,,,,,,,,,,,,,,,,,,,,,,,,,,,,,,,,,,,,,,,,,,,,,,,,,,,,,,,,,,,,,,
,,,,424424,001,2023-09-28_16h33.28.607,fluency,2022.2.5,Win32,59.4000594,,,,,,,,,,,,,,,,,,,,,,,10,2,img/B02_10.jpg,CONTROL,Press J as soon as you see a face, ,JK,,,,,,,,,,,,,,,,,,,,,,,,,,,,,,,,,,,,,,,7,0.5505,,,,,,,,,,,,,,0,39,39,21,1,,,,,,,,,,,,,space,1.6637,,,,,,,,,,,,,,,,,,,,,,,,,,,,,,,,,,,,,,,,,,,,,,,,,,,,,,,,,,,,,,,,,
,,,,424424,001,2023-09-28_16h33.28.607,fluency,2022.2.5,Win32,59.4000594,,,,,,,,,,,,,,,,,,,,,,,3,7,img/B07_03.jpg,CONTROL,Press J as soon as you see a face, ,JK,,,,,,,,,,,,,,,,,,,,,,,,,,,,,,,,,,,,,,,,,,,,,,,,,,,,,564.094,0,40,40,69,1,109,0,0,0,0,1,98,,,,,,,,,,,,,,,,,,,,,,,,,,,,,,,,,,,,,,,,,,,,,,,,,,,,,,,,,,,,,,,,,,,,,,,,
,,,,424424,001,2023-09-28_16h33.28.607,fluency,2022.2.5,Win32,59.4000594,,,,,,,,,,,,,,,,,,,,,,,,,,,,,,,,,,,,,,,,,,,,,,,,,,,,,,,,,,,,,,,,,,,,,,,,,,,,,,,,,,,,,,,,,0,0,0,0,1,,"[""j""]",[0.315700000047741],1,"[""j""]",[0.3156000000238919],,,,,,,,,,,,,,,,,,,,,,,,,,,,,,,,,,,,,,,,,,,,,,,,,,,,,,,,,,,,,,,,,,,
,,,,424424,001,2023-09-28_16h33.28.607,fluency,2022.2.5,Win32,59.4000594,,,,,,,,,,,,,,,,,,,,,,,3,7,img/B07_03.jpg,CONTROL,Press J as soon as you see a face, ,JK,,,,,,,,,,,,,,,,,,,,,,,,,,,,,,,,,,,,,,,5,0.6084,,,,,,,,,,,,,,0,40,40,69,1,,,,,,,,,,,,,space,1.3056,,,,,,,,,,,,,,,,,,,,,,,,,,,,,,,,,,,,,,,,,,,,,,,,,,,,,,,,,,,,,,,,,
,,,,424424,001,2023-09-28_16h33.28.607,fluency,2022.2.5,Win32,59.4000594,,,,,,,,,,,,,,,,,,,,,,,10,4,img/B04_10.jpg,CONTROL,Press J as soon as you see a face, ,JK,,,,,,,,,,,,,,,,,,,,,,,,,,,,,,,,,,,,,,,,,,,,,,,,,,,,,571.0705,0,41,41,43,1,109,0,0,0,0,1,98,,,,,,,,,,,,,,,,,,,,,,,,,,,,,,,,,,,,,,,,,,,,,,,,,,,,,,,,,,,,,,,,,,,,,,,,
,,,,424424,001,2023-09-28_16h33.28.607,fluency,2022.2.5,Win32,59.4000594,,,,,,,,,,,,,,,,,,,,,,,,,,,,,,,,,,,,,,,,,,,,,,,,,,,,,,,,,,,,,,,,,,,,,,,,,,,,,,,,,,,,,,,,,0,0,0,0,1,,"[""j""]",[0.6067999999522726],1,"[""j""]",[0.6068000000715301],,,,,,,,,,,,,,,,,,,,,,,,,,,,,,,,,,,,,,,,,,,,,,,,,,,,,,,,,,,,,,,,,,,
,,,,424424,001,2023-09-28_16h33.28.607,fluency,2022.2.5,Win32,59.4000594,,,,,,,,,,,,,,,,,,,,,,,10,4,img/B04_10.jpg,CONTROL,Press J as soon as you see a face, ,JK,,,,,,,,,,,,,,,,,,,,,,,,,,,,,,,,,,,,,,,7,0.5449,,,,,,,,,,,,,,0,41,41,43,1,,,,,,,,,,,,,space,0.9539,,,,,,,,,,,,,,,,,,,,,,,,,,,,,,,,,,,,,,,,,,,,,,,,,,,,,,,,,,,,,,,,,
,,,,424424,001,2023-09-28_16h33.28.607,fluency,2022.2.5,Win32,59.4000594,,,,,,,,,,,,,,,,,,,,,,,0,3,img/B03_00.jpg,CONTROL,Press J as soon as you see a face, ,JK,,,,,,,,,,,,,,,,,,,,,,,,,,,,,,,,,,,,,,,,,,,,,,,,,,,,,577.6144,0,42,42,22,1,109,0,0,0,0,1,98,,,,,,,,,,,,,,,,,,,,,,,,,,,,,,,,,,,,,,,,,,,,,,,,,,,,,,,,,,,,,,,,,,,,,,,,
,,,,424424,001,2023-09-28_16h33.28.607,fluency,2022.2.5,Win32,59.4000594,,,,,,,,,,,,,,,,,,,,,,,,,,,,,,,,,,,,,,,,,,,,,,,,,,,,,,,,,,,,,,,,,,,,,,,,,,,,,,,,,,,,,,,,,0,0,0,0,1,,"[""j""]",[0.36769999992850444],1,"[""j""]",[0.3676000000237991],,,,,,,,,,,,,,,,,,,,,,,,,,,,,,,,,,,,,,,,,,,,,,,,,,,,,,,,,,,,,,,,,,,
,,,,424424,001,2023-09-28_16h33.28.607,fluency,2022.2.5,Win32,59.4000594,,,,,,,,,,,,,,,,,,,,,,,0,3,img/B03_00.jpg,CONTROL,Press J as soon as you see a face, ,JK,,,,,,,,,,,,,,,,,,,,,,,,,,,,,,,,,,,,,,,5,0.5075,,,,,,,,,,,,,,0,42,42,22,1,,,,,,,,,,,,,space,0.868,,,,,,,,,,,,,,,,,,,,,,,,,,,,,,,,,,,,,,,,,,,,,,,,,,,,,,,,,,,,,,,,,
,,,,424424,001,2023-09-28_16h33.28.607,fluency,2022.2.5,Win32,59.4000594,,,,,,,,,,,,,,,,,,,,,,,0,7,img/B07_00.jpg,CONTROL,Press J as soon as you see a face, ,JK,,,,,,,,,,,,,,,,,,,,,,,,,,,,,,,,,,,,,,,,,,,,,,,,,,,,,583.0469,0,43,43,66,1,109,0,0,0,0,1,98,,,,,,,,,,,,,,,,,,,,,,,,,,,,,,,,,,,,,,,,,,,,,,,,,,,,,,,,,,,,,,,,,,,,,,,,
,,,,424424,001,2023-09-28_16h33.28.607,fluency,2022.2.5,Win32,59.4000594,,,,,,,,,,,,,,,,,,,,,,,,,,,,,,,,,,,,,,,,,,,,,,,,,,,,,,,,,,,,,,,,,,,,,,,,,,,,,,,,,,,,,,,,,0,0,0,0,1,,"[""j""]",[0.3936000000238664],1,"[""j""]",[0.3936000000238664],,,,,,,,,,,,,,,,,,,,,,,,,,,,,,,,,,,,,,,,,,,,,,,,,,,,,,,,,,,,,,,,,,,
,,,,424424,001,2023-09-28_16h33.28.607,fluency,2022.2.5,Win32,59.4000594,,,,,,,,,,,,,,,,,,,,,,,0,7,img/B07_00.jpg,CONTROL,Press J as soon as you see a face, ,JK,,,,,,,,,,,,,,,,,,,,,,,,,,,,,,,,,,,,,,,5,0.5469,,,,,,,,,,,,,,0,43,43,66,1,,,,,,,,,,,,,space,1.2071,,,,,,,,,,,,,,,,,,,,,,,,,,,,,,,,,,,,,,,,,,,,,,,,,,,,,,,,,,,,,,,,,
,,,,424424,001,2023-09-28_16h33.28.607,fluency,2022.2.5,Win32,59.4000594,,,,,,,,,,,,,,,,,,,,,,,1,1,img/B01_01.jpg,CONTROL,Press J as soon as you see a face, ,JK,,,,,,,,,,,,,,,,,,,,,,,,,,,,,,,,,,,,,,,,,,,,,,,,,,,,,588.8588,0,44,44,1,1,109,0,0,0,0,1,98,,,,,,,,,,,,,,,,,,,,,,,,,,,,,,,,,,,,,,,,,,,,,,,,,,,,,,,,,,,,,,,,,,,,,,,,
,,,,424424,001,2023-09-28_16h33.28.607,fluency,2022.2.5,Win32,59.4000594,,,,,,,,,,,,,,,,,,,,,,,,,,,,,,,,,,,,,,,,,,,,,,,,,,,,,,,,,,,,,,,,,,,,,,,,,,,,,,,,,,,,,,,,,0,0,0,0,1,,"[""j""]",[0.5953999999761663],1,"[""j""]",[0.595300000071461],,,,,,,,,,,,,,,,,,,,,,,,,,,,,,,,,,,,,,,,,,,,,,,,,,,,,,,,,,,,,,,,,,,
,,,,424424,001,2023-09-28_16h33.28.607,fluency,2022.2.5,Win32,59.4000594,,,,,,,,,,,,,,,,,,,,,,,1,1,img/B01_01.jpg,CONTROL,Press J as soon as you see a face, ,JK,,,,,,,,,,,,,,,,,,,,,,,,,,,,,,,,,,,,,,,5,0.6224,,,,,,,,,,,,,,0,44,44,1,1,,,,,,,,,,,,,space,0.6344,,,,,,,,,,,,,,,,,,,,,,,,,,,,,,,,,,,,,,,,,,,,,,,,,,,,,,,,,,,,,,,,,
,,,,424424,001,2023-09-28_16h33.28.607,fluency,2022.2.5,Win32,59.4000594,,,,,,,,,,,,,,,,,,,,,,,3,6,img/B06_03.jpg,CONTROL,Press J as soon as you see a face, ,JK,,,,,,,,,,,,,,,,,,,,,,,,,,,,,,,,,,,,,,,,,,,,,,,,,,,,,594.1703,0,45,45,58,1,109,0,0,0,0,1,98,,,,,,,,,,,,,,,,,,,,,,,,,,,,,,,,,,,,,,,,,,,,,,,,,,,,,,,,,,,,,,,,,,,,,,,,
,,,,424424,001,2023-09-28_16h33.28.607,fluency,2022.2.5,Win32,59.4000594,,,,,,,,,,,,,,,,,,,,,,,,,,,,,,,,,,,,,,,,,,,,,,,,,,,,,,,,,,,,,,,,,,,,,,,,,,,,,,,,,,,,,,,,,0,0,0,0,1,,"[""j""]",[0.3798999999761463],1,"[""j""]",[0.3798999999761463],,,,,,,,,,,,,,,,,,,,,,,,,,,,,,,,,,,,,,,,,,,,,,,,,,,,,,,,,,,,,,,,,,,
,,,,424424,001,2023-09-28_16h33.28.607,fluency,2022.2.5,Win32,59.4000594,,,,,,,,,,,,,,,,,,,,,,,3,6,img/B06_03.jpg,CONTROL,Press J as soon as you see a face, ,JK,,,,,,,,,,,,,,,,,,,,,,,,,,,,,,,,,,,,,,,5,0.5772,,,,,,,,,,,,,,0,45,45,58,1,,,,,,,,,,,,,space,1.4428,,,,,,,,,,,,,,,,,,,,,,,,,,,,,,,,,,,,,,,,,,,,,,,,,,,,,,,,,,,,,,,,,
,,,,424424,001,2023-09-28_16h33.28.607,fluency,2022.2.5,Win32,59.4000594,,,,,,,,,,,,,,,,,,,,,,,10,9,img/B09_10.jpg,CONTROL,Press J as soon as you see a face, ,JK,,,,,,,,,,,,,,,,,,,,,,,,,,,,,,,,,,,,,,,,,,,,,,,,,,,,,601.2449,0,46,46,98,1,109,0,0,0,0,1,98,,,,,,,,,,,,,,,,,,,,,,,,,,,,,,,,,,,,,,,,,,,,,,,,,,,,,,,,,,,,,,,,,,,,,,,,
,,,,424424,001,2023-09-28_16h33.28.607,fluency,2022.2.5,Win32,59.4000594,,,,,,,,,,,,,,,,,,,,,,,,,,,,,,,,,,,,,,,,,,,,,,,,,,,,,,,,,,,,,,,,,,,,,,,,,,,,,,,,,,,,,,,,,0,0,0,0,1,,"[""j""]",[0.4273000000715683],1,"[""j""]",[0.42740000009541745],,,,,,,,,,,,,,,,,,,,,,,,,,,,,,,,,,,,,,,,,,,,,,,,,,,,,,,,,,,,,,,,,,,
,,,,424424,001,2023-09-28_16h33.28.607,fluency,2022.2.5,Win32,59.4000594,,,,,,,,,,,,,,,,,,,,,,,10,9,img/B09_10.jpg,CONTROL,Press J as soon as you see a face, ,JK,,,,,,,,,,,,,,,,,,,,,,,,,,,,,,,,,,,,,,,6,0.8747,,,,,,,,,,,,,,0,46,46,98,1,,,,,,,,,,,,,space,1.1341,,,,,,,,,,,,,,,,,,,,,,,,,,,,,,,,,,,,,,,,,,,,,,,,,,,,,,,,,,,,,,,,,
,,,,424424,001,2023-09-28_16h33.28.607,fluency,2022.2.5,Win32,59.4000594,,,,,,,,,,,,,,,,,,,,,,,5,3,img/B03_05.jpg,CONTROL,Press J as soon as you see a face, ,JK,,,,,,,,,,,,,,,,,,,,,,,,,,,,,,,,,,,,,,,,,,,,,,,,,,,,,608.3063,0,47,47,27,1,109,0,0,0,0,1,98,,,,,,,,,,,,,,,,,,,,,,,,,,,,,,,,,,,,,,,,,,,,,,,,,,,,,,,,,,,,,,,,,,,,,,,,
,,,,424424,001,2023-09-28_16h33.28.607,fluency,2022.2.5,Win32,59.4000594,,,,,,,,,,,,,,,,,,,,,,,,,,,,,,,,,,,,,,,,,,,,,,,,,,,,,,,,,,,,,,,,,,,,,,,,,,,,,,,,,,,,,,,,,0,0,0,0,1,,"[""j""]",[0.65949999999998],1,"[""j""]",[0.6596000000238291],,,,,,,,,,,,,,,,,,,,,,,,,,,,,,,,,,,,,,,,,,,,,,,,,,,,,,,,,,,,,,,,,,,
,,,,424424,001,2023-09-28_16h33.28.607,fluency,2022.2.5,Win32,59.4000594,,,,,,,,,,,,,,,,,,,,,,,5,3,img/B03_05.jpg,CONTROL,Press J as soon as you see a face, ,JK,,,,,,,,,,,,,,,,,,,,,,,,,,,,,,,,,,,,,,,6,0.7945,,,,,,,,,,,,,,0,47,47,27,1,,,,,,,,,,,,,space,1.4349,,,,,,,,,,,,,,,,,,,,,,,,,,,,,,,,,,,,,,,,,,,,,,,,,,,,,,,,,,,,,,,,,
,,,,424424,001,2023-09-28_16h33.28.607,fluency,2022.2.5,Win32,59.4000594,,,,,,,,,,,,,,,,,,,,,,,0,6,img/B06_00.jpg,CONTROL,Press J as soon as you see a face, ,JK,,,,,,,,,,,,,,,,,,,,,,,,,,,,,,,,,,,,,,,,,,,,,,,,,,,,,614.5962,0,48,48,55,1,109,0,0,0,0,1,98,,,,,,,,,,,,,,,,,,,,,,,,,,,,,,,,,,,,,,,,,,,,,,,,,,,,,,,,,,,,,,,,,,,,,,,,
,,,,424424,001,2023-09-28_16h33.28.607,fluency,2022.2.5,Win32,59.4000594,,,,,,,,,,,,,,,,,,,,,,,,,,,,,,,,,,,,,,,,,,,,,,,,,,,,,,,,,,,,,,,,,,,,,,,,,,,,,,,,,,,,,,,,,0,0,0,0,1,,"[""j""]",[0.4330000000001064],1,"[""j""]",[0.43310000002384186],,,,,,,,,,,,,,,,,,,,,,,,,,,,,,,,,,,,,,,,,,,,,,,,,,,,,,,,,,,,,,,,,,,
,,,,424424,001,2023-09-28_16h33.28.607,fluency,2022.2.5,Win32,59.4000594,,,,,,,,,,,,,,,,,,,,,,,0,6,img/B06_00.jpg,CONTROL,Press J as soon as you see a face, ,JK,,,,,,,,,,,,,,,,,,,,,,,,,,,,,,,,,,,,,,,6,1.1152,,,,,,,,,,,,,,0,48,48,55,1,,,,,,,,,,,,,space,0.6825,,,,,,,,,,,,,,,,,,,,,,,,,,,,,,,,,,,,,,,,,,,,,,,,,,,,,,,,,,,,,,,,,
,,,,424424,001,2023-09-28_16h33.28.607,fluency,2022.2.5,Win32,59.4000594,,,,,,,,,,,,,,,,,,,,,,,2,3,img/B03_02.jpg,CONTROL,Press J as soon as you see a face, ,JK,,,,,,,,,,,,,,,,,,,,,,,,,,,,,,,,,,,,,,,,,,,,,,,,,,,,,620.4579,0,49,49,24,1,109,0,0,0,0,1,98,,,,,,,,,,,,,,,,,,,,,,,,,,,,,,,,,,,,,,,,,,,,,,,,,,,,,,,,,,,,,,,,,,,,,,,,
,,,,424424,001,2023-09-28_16h33.28.607,fluency,2022.2.5,Win32,59.4000594,,,,,,,,,,,,,,,,,,,,,,,,,,,,,,,,,,,,,,,,,,,,,,,,,,,,,,,,,,,,,,,,,,,,,,,,,,,,,,,,,,,,,,,,,0,0,0,0,1,,"[""j""]",[1.8573999999762236],1,"[""6"",""j""]","[1.0236000000238619,1.8573999999762236]",,,,,,,,,,,,,,,,,,,,,,,,,,,,,,,,,,,,,,,,,,,,,,,,,,,,,,,,,,,,,,,,,,,
,,,,424424,001,2023-09-28_16h33.28.607,fluency,2022.2.5,Win32,59.4000594,,,,,,,,,,,,,,,,,,,,,,,2,3,img/B03_02.jpg,CONTROL,Press J as soon as you see a face, ,JK,,,,,,,,,,,,,,,,,,,,,,,,,,,,,,,,,,,,,,,6,1.2209,,,,,,,,,,,,,,0,49,49,24,1,,,,,,,,,,,,,space,1.9999,,,,,,,,,,,,,,,,,,,,,,,,,,,,,,,,,,,,,,,,,,,,,,,,,,,,,,,,,,,,,,,,,
,,,,424424,001,2023-09-28_16h33.28.607,fluency,2022.2.5,Win32,59.4000594,,,,,,,,,,,,,,,,,,,,,,,2,8,img/B08_02.jpg,CONTROL,Press J as soon as you see a face, ,JK,,,,,,,,,,,,,,,,,,,,,,,,,,,,,,,,,,,,,,,,,,,,,,,,,,,,,627.7344,0,50,50,79,1,109,0,0,0,0,1,98,,,,,,,,,,,,,,,,,,,,,,,,,,,,,,,,,,,,,,,,,,,,,,,,,,,,,,,,,,,,,,,,,,,,,,,,
,,,,424424,001,2023-09-28_16h33.28.607,fluency,2022.2.5,Win32,59.4000594,,,,,,,,,,,,,,,,,,,,,,,,,,,,,,,,,,,,,,,,,,,,,,,,,,,,,,,,,,,,,,,,,,,,,,,,,,,,,,,,,,,,,,,,,0,0,0,0,1,,"[""j""]",[0.4694999999999254],1,"[""j""]",[0.4693999999760763],,,,,,,,,,,,,,,,,,,,,,,,,,,,,,,,,,,,,,,,,,,,,,,,,,,,,,,,,,,,,,,,,,,
,,,,424424,001,2023-09-28_16h33.28.607,fluency,2022.2.5,Win32,59.4000594,,,,,,,,,,,,,,,,,,,,,,,2,8,img/B08_02.jpg,CONTROL,Press J as soon as you see a face, ,JK,,,,,,,,,,,,,,,,,,,,,,,,,,,,,,,,,,,,,,,5,0.3073,,,,,,,,,,,,,,0,50,50,79,1,,,,,,,,,,,,,space,1.141,,,,,,,,,,,,,,,,,,,,,,,,,,,,,,,,,,,,,,,,,,,,,,,,,,,,,,,,,,,,,,,,,
,,,,424424,001,2023-09-28_16h33.28.607,fluency,2022.2.5,Win32,59.4000594,,,,,,,,,,,,,,,,,,,,,,,10,8,img/B08_10.jpg,CONTROL,Press J as soon as you see a face, ,JK,,,,,,,,,,,,,,,,,,,,,,,,,,,,,,,,,,,,,,,,,,,,,,,,,,,,,633.2299,0,51,51,87,1,109,0,0,0,0,1,98,,,,,,,,,,,,,,,,,,,,,,,,,,,,,,,,,,,,,,,,,,,,,,,,,,,,,,,,,,,,,,,,,,,,,,,,
,,,,424424,001,2023-09-28_16h33.28.607,fluency,2022.2.5,Win32,59.4000594,,,,,,,,,,,,,,,,,,,,,,,,,,,,,,,,,,,,,,,,,,,,,,,,,,,,,,,,,,,,,,,,,,,,,,,,,,,,,,,,,,,,,,,,,0,0,0,0,1,,"[""j""]",[0.7686000000237527],1,"[""j"",""space""]","[0.7684999999999036,1.5867999999522908]",,,,,,,,,,,,,,,,,,,,,,,,,,,,,,,,,,,,,,,,,,,,,,,,,,,,,,,,,,,,,,,,,,,
,,,,424424,001,2023-09-28_16h33.28.607,fluency,2022.2.5,Win32,59.4000594,,,,,,,,,,,,,,,,,,,,,,,10,8,img/B08_10.jpg,CONTROL,Press J as soon as you see a face, ,JK,,,,,,,,,,,,,,,,,,,,,,,,,,,,,,,,,,,,,,,5,0.3732,,,,,,,,,,,,,,0,51,51,87,1,,,,,,,,,,,,,space,2.3496,,,,,,,,,,,,,,,,,,,,,,,,,,,,,,,,,,,,,,,,,,,,,,,,,,,,,,,,,,,,,,,,,
,,,,424424,001,2023-09-28_16h33.28.607,fluency,2022.2.5,Win32,59.4000594,,,,,,,,,,,,,,,,,,,,,,,7,7,img/B07_07.jpg,CONTROL,Press J as soon as you see a face, ,JK,,,,,,,,,,,,,,,,,,,,,,,,,,,,,,,,,,,,,,,,,,,,,,,,,,,,,640.0108,0,52,52,73,1,109,0,0,0,0,1,98,,,,,,,,,,,,,,,,,,,,,,,,,,,,,,,,,,,,,,,,,,,,,,,,,,,,,,,,,,,,,,,,,,,,,,,,
,,,,424424,001,2023-09-28_16h33.28.607,fluency,2022.2.5,Win32,59.4000594,,,,,,,,,,,,,,,,,,,,,,,,,,,,,,,,,,,,,,,,,,,,,,,,,,,,,,,,,,,,,,,,,,,,,,,,,,,,,,,,,,,,,,,,,0,0,0,0,1,,"[""j""]",[0.712699999928418],1,"[""j""]",[0.712699999928418],,,,,,,,,,,,,,,,,,,,,,,,,,,,,,,,,,,,,,,,,,,,,,,,,,,,,,,,,,,,,,,,,,,
,,,,424424,001,2023-09-28_16h33.28.607,fluency,2022.2.5,Win32,59.4000594,,,,,,,,,,,,,,,,,,,,,,,7,7,img/B07_07.jpg,CONTROL,Press J as soon as you see a face, ,JK,,,,,,,,,,,,,,,,,,,,,,,,,,,,,,,,,,,,,,,6,0.3231,,,,,,,,,,,,,,0,52,52,73,1,,,,,,,,,,,,,space,0.3692,,,,,,,,,,,,,,,,,,,,,,,,,,,,,,,,,,,,,,,,,,,,,,,,,,,,,,,,,,,,,,,,,
,,,,424424,001,2023-09-28_16h33.28.607,fluency,2022.2.5,Win32,59.4000594,,,,,,,,,,,,,,,,,,,,,,,10,5,img/B05_10.jpg,CONTROL,Press J as soon as you see a face, ,JK,,,,,,,,,,,,,,,,,,,,,,,,,,,,,,,,,,,,,,,,,,,,,,,,,,,,,644.7679,0,53,53,54,1,109,0,0,0,0,1,98,,,,,,,,,,,,,,,,,,,,,,,,,,,,,,,,,,,,,,,,,,,,,,,,,,,,,,,,,,,,,,,,,,,,,,,,
,,,,424424,001,2023-09-28_16h33.28.607,fluency,2022.2.5,Win32,59.4000594,,,,,,,,,,,,,,,,,,,,,,,,,,,,,,,,,,,,,,,,,,,,,,,,,,,,,,,,,,,,,,,,,,,,,,,,,,,,,,,,,,,,,,,,,0,0,0,0,1,,"[""j""]",[0.8052999999523536],1,"[""j""]",[0.8052999999523536],,,,,,,,,,,,,,,,,,,,,,,,,,,,,,,,,,,,,,,,,,,,,,,,,,,,,,,,,,,,,,,,,,,
,,,,424424,001,2023-09-28_16h33.28.607,fluency,2022.2.5,Win32,59.4000594,,,,,,,,,,,,,,,,,,,,,,,10,5,img/B05_10.jpg,CONTROL,Press J as soon as you see a face, ,JK,,,,,,,,,,,,,,,,,,,,,,,,,,,,,,,,,,,,,,,6,0.83,,,,,,,,,,,,,,0,53,53,54,1,,,,,,,,,,,,,space,2.532,,,,,,,,,,,,,,,,,,,,,,,,,,,,,,,,,,,,,,,,,,,,,,,,,,,,,,,,,,,,,,,,,
,,,,424424,001,2023-09-28_16h33.28.607,fluency,2022.2.5,Win32,59.4000594,,,,,,,,,,,,,,,,,,,,,,,1,5,img/B05_01.jpg,CONTROL,Press J as soon as you see a face, ,JK,,,,,,,,,,,,,,,,,,,,,,,,,,,,,,,,,,,,,,,,,,,,,,,,,,,,,653.1939,0,54,54,45,1,109,0,0,0,0,1,98,,,,,,,,,,,,,,,,,,,,,,,,,,,,,,,,,,,,,,,,,,,,,,,,,,,,,,,,,,,,,,,,,,,,,,,,
,,,,424424,001,2023-09-28_16h33.28.607,fluency,2022.2.5,Win32,59.4000594,,,,,,,,,,,,,,,,,,,,,,,,,,,,,,,,,,,,,,,,,,,,,,,,,,,,,,,,,,,,,,,,,,,,,,,,,,,,,,,,,,,,,,,,,0,0,0,0,1,,"[""j""]",[0.13339999997617724],1,"[""j""]",[0.1332999999523281],,,,,,,,,,,,,,,,,,,,,,,,,,,,,,,,,,,,,,,,,,,,,,,,,,,,,,,,,,,,,,,,,,,
,,,,424424,001,2023-09-28_16h33.28.607,fluency,2022.2.5,Win32,59.4000594,,,,,,,,,,,,,,,,,,,,,,,1,5,img/B05_01.jpg,CONTROL,Press J as soon as you see a face, ,JK,,,,,,,,,,,,,,,,,,,,,,,,,,,,,,,,,,,,,,,5,0.3675,,,,,,,,,,,,,,0,54,54,45,1,,,,,,,,,,,,,space,0.7209,,,,,,,,,,,,,,,,,,,,,,,,,,,,,,,,,,,,,,,,,,,,,,,,,,,,,,,,,,,,,,,,,
,,,,424424,001,2023-09-28_16h33.28.607,fluency,2022.2.5,Win32,59.4000594,,,,,,,,,,,,,,,,,,,,,,,4,2,img/B02_04.jpg,CONTROL,Press J as soon as you see a face, ,JK,,,,,,,,,,,,,,,,,,,,,,,,,,,,,,,,,,,,,,,,,,,,,,,,,,,,,659.338,0,55,55,15,1,109,0,0,0,0,1,98,,,,,,,,,,,,,,,,,,,,,,,,,,,,,,,,,,,,,,,,,,,,,,,,,,,,,,,,,,,,,,,,,,,,,,,,
,,,,424424,001,2023-09-28_16h33.28.607,fluency,2022.2.5,Win32,59.4000594,,,,,,,,,,,,,,,,,,,,,,,,,,,,,,,,,,,,,,,,,,,,,,,,,,,,,,,,,,,,,,,,,,,,,,,,,,,,,,,,,,,,,,,,,0,0,0,0,1,,"[""j""]",[0.6564999999999372],1,"[""j"",""space""]","[0.6566000000237864,1.2042000000476492]",,,,,,,,,,,,,,,,,,,,,,,,,,,,,,,,,,,,,,,,,,,,,,,,,,,,,,,,,,,,,,,,,,,
,,,,424424,001,2023-09-28_16h33.28.607,fluency,2022.2.5,Win32,59.4000594,,,,,,,,,,,,,,,,,,,,,,,4,2,img/B02_04.jpg,CONTROL,Press J as soon as you see a face, ,JK,,,,,,,,,,,,,,,,,,,,,,,,,,,,,,,,,,,,,,,5,0.4966,,,,,,,,,,,,,,0,55,55,15,1,,,,,,,,,,,,,space,2.2733,,,,,,,,,,,,,,,,,,,,,,,,,,,,,,,,,,,,,,,,,,,,,,,,,,,,,,,,,,,,,,,,,
,,,,424424,001,2023-09-28_16h33.28.607,fluency,2022.2.5,Win32,59.4000594,,,,,,,,,,,,,,,,,,,,,,,6,5,img/B05_06.jpg,CONTROL,Press J as soon as you see a face, ,JK,,,,,,,,,,,,,,,,,,,,,,,,,,,,,,,,,,,,,,,,,,,,,,,,,,,,,667.1471,0,56,56,50,1,109,0,0,0,0,1,98,,,,,,,,,,,,,,,,,,,,,,,,,,,,,,,,,,,,,,,,,,,,,,,,,,,,,,,,,,,,,,,,,,,,,,,,
,,,,424424,001,2023-09-28_16h33.28.607,fluency,2022.2.5,Win32,59.4000594,,,,,,,,,,,,,,,,,,,,,,,,,,,,,,,,,,,,,,,,,,,,,,,,,,,,,,,,,,,,,,,,,,,,,,,,,,,,,,,,,,,,,,,,,0,0,0,0,1,,"[""j""]",[0.4123999999761736],1,"[""j""]",[0.4123999999761736],,,,,,,,,,,,,,,,,,,,,,,,,,,,,,,,,,,,,,,,,,,,,,,,,,,,,,,,,,,,,,,,,,,
,,,,424424,001,2023-09-28_16h33.28.607,fluency,2022.2.5,Win32,59.4000594,,,,,,,,,,,,,,,,,,,,,,,6,5,img/B05_06.jpg,CONTROL,Press J as soon as you see a face, ,JK,,,,,,,,,,,,,,,,,,,,,,,,,,,,,,,,,,,,,,,5,0.9405,,,,,,,,,,,,,,0,56,56,50,1,,,,,,,,,,,,,space,0.7992,,,,,,,,,,,,,,,,,,,,,,,,,,,,,,,,,,,,,,,,,,,,,,,,,,,,,,,,,,,,,,,,,
,,,,424424,001,2023-09-28_16h33.28.607,fluency,2022.2.5,Win32,59.4000594,,,,,,,,,,,,,,,,,,,,,,,9,1,img/B01_09.jpg,CONTROL,Press J as soon as you see a face, ,JK,,,,,,,,,,,,,,,,,,,,,,,,,,,,,,,,,,,,,,,,,,,,,,,,,,,,,673.9578,0,57,57,9,1,109,0,0,0,0,1,98,,,,,,,,,,,,,,,,,,,,,,,,,,,,,,,,,,,,,,,,,,,,,,,,,,,,,,,,,,,,,,,,,,,,,,,,
,,,,424424,001,2023-09-28_16h33.28.607,fluency,2022.2.5,Win32,59.4000594,,,,,,,,,,,,,,,,,,,,,,,,,,,,,,,,,,,,,,,,,,,,,,,,,,,,,,,,,,,,,,,,,,,,,,,,,,,,,,,,,,,,,,,,,0,0,0,0,1,,"[""j""]",[0.5502000000476528],1,"[""j""]",[0.5501000000238037],,,,,,,,,,,,,,,,,,,,,,,,,,,,,,,,,,,,,,,,,,,,,,,,,,,,,,,,,,,,,,,,,,,
,,,,424424,001,2023-09-28_16h33.28.607,fluency,2022.2.5,Win32,59.4000594,,,,,,,,,,,,,,,,,,,,,,,9,1,img/B01_09.jpg,CONTROL,Press J as soon as you see a face, ,JK,,,,,,,,,,,,,,,,,,,,,,,,,,,,,,,,,,,,,,,6,0.6957,,,,,,,,,,,,,,0,57,57,9,1,,,,,,,,,,,,,space,0.7374,,,,,,,,,,,,,,,,,,,,,,,,,,,,,,,,,,,,,,,,,,,,,,,,,,,,,,,,,,,,,,,,,
,,,,424424,001,2023-09-28_16h33.28.607,fluency,2022.2.5,Win32,59.4000594,,,,,,,,,,,,,,,,,,,,,,,0,4,img/B04_00.jpg,CONTROL,Press J as soon as you see a face, ,JK,,,,,,,,,,,,,,,,,,,,,,,,,,,,,,,,,,,,,,,,,,,,,,,,,,,,,680.4558,0,58,58,33,1,109,0,0,0,0,1,98,,,,,,,,,,,,,,,,,,,,,,,,,,,,,,,,,,,,,,,,,,,,,,,,,,,,,,,,,,,,,,,,,,,,,,,,
,,,,424424,001,2023-09-28_16h33.28.607,fluency,2022.2.5,Win32,59.4000594,,,,,,,,,,,,,,,,,,,,,,,,,,,,,,,,,,,,,,,,,,,,,,,,,,,,,,,,,,,,,,,,,,,,,,,,,,,,,,,,,,,,,,,,,0,0,0,0,1,,"[""j""]",[0.39649999999994634],1,"[""j""]",[0.3966000000237955],,,,,,,,,,,,,,,,,,,,,,,,,,,,,,,,,,,,,,,,,,,,,,,,,,,,,,,,,,,,,,,,,,,
,,,,424424,001,2023-09-28_16h33.28.607,fluency,2022.2.5,Win32,59.4000594,,,,,,,,,,,,,,,,,,,,,,,0,4,img/B04_00.jpg,CONTROL,Press J as soon as you see a face, ,JK,,,,,,,,,,,,,,,,,,,,,,,,,,,,,,,,,,,,,,,5,0.377,,,,,,,,,,,,,,0,58,58,33,1,,,,,,,,,,,,,space,0.5773,,,,,,,,,,,,,,,,,,,,,,,,,,,,,,,,,,,,,,,,,,,,,,,,,,,,,,,,,,,,,,,,,
,,,,424424,001,2023-09-28_16h33.28.607,fluency,2022.2.5,Win32,59.4000594,,,,,,,,,,,,,,,,,,,,,,,4,10,img/B10_04.jpg,CONTROL,Press J as soon as you see a face, ,JK,,,,,,,,,,,,,,,,,,,,,,,,,,,,,,,,,,,,,,,,,,,,,,,,,,,,,686.4625,0,59,59,103,1,109,0,0,0,0,1,98,,,,,,,,,,,,,,,,,,,,,,,,,,,,,,,,,,,,,,,,,,,,,,,,,,,,,,,,,,,,,,,,,,,,,,,,
,,,,424424,001,2023-09-28_16h33.28.607,fluency,2022.2.5,Win32,59.4000594,,,,,,,,,,,,,,,,,,,,,,,,,,,,,,,,,,,,,,,,,,,,,,,,,,,,,,,,,,,,,,,,,,,,,,,,,,,,,,,,,,,,,,,,,0,0,0,0,1,,"[""j""]",[0.6786000000238346],1,"[""j""]",[0.6784999999999854],,,,,,,,,,,,,,,,,,,,,,,,,,,,,,,,,,,,,,,,,,,,,,,,,,,,,,,,,,,,,,,,,,,
,,,,424424,001,2023-09-28_16h33.28.607,fluency,2022.2.5,Win32,59.4000594,,,,,,,,,,,,,,,,,,,,,,,4,10,img/B10_04.jpg,CONTROL,Press J as soon as you see a face, ,JK,,,,,,,,,,,,,,,,,,,,,,,,,,,,,,,,,,,,,,,4,0.8117,,,,,,,,,,,,,,0,59,59,103,1,,,,,,,,,,,,,space,1.0196,,,,,,,,,,,,,,,,,,,,,,,,,,,,,,,,,,,,,,,,,,,,,,,,,,,,,,,,,,,,,,,,,
,,,,424424,001,2023-09-28_16h33.28.607,fluency,2022.2.5,Win32,59.4000594,,,,,,,,,,,,,,,,,,,,,,,10,1,img/B01_10.jpg,CONTROL,Press J as soon as you see a face, ,JK,,,,,,,,,,,,,,,,,,,,,,,,,,,,,,,,,,,,,,,,,,,,,,,,,,,,,692.3405,0,60,60,10,1,109,0,0,0,0,1,98,,,,,,,,,,,,,,,,,,,,,,,,,,,,,,,,,,,,,,,,,,,,,,,,,,,,,,,,,,,,,,,,,,,,,,,,
,,,,424424,001,2023-09-28_16h33.28.607,fluency,2022.2.5,Win32,59.4000594,,,,,,,,,,,,,,,,,,,,,,,,,,,,,,,,,,,,,,,,,,,,,,,,,,,,,,,,,,,,,,,,,,,,,,,,,,,,,,,,,,,,,,,,,0,0,0,0,1,,"[""j""]",[0.7908000000714992],1,"[""j""]",[0.7908000000714992],,,,,,,,,,,,,,,,,,,,,,,,,,,,,,,,,,,,,,,,,,,,,,,,,,,,,,,,,,,,,,,,,,,
,,,,424424,001,2023-09-28_16h33.28.607,fluency,2022.2.5,Win32,59.4000594,,,,,,,,,,,,,,,,,,,,,,,10,1,img/B01_10.jpg,CONTROL,Press J as soon as you see a face, ,JK,,,,,,,,,,,,,,,,,,,,,,,,,,,,,,,,,,,,,,,6,0.5599,,,,,,,,,,,,,,0,60,60,10,1,,,,,,,,,,,,,space,0.452,,,,,,,,,,,,,,,,,,,,,,,,,,,,,,,,,,,,,,,,,,,,,,,,,,,,,,,,,,,,,,,,,
,,,,424424,001,2023-09-28_16h33.28.607,fluency,2022.2.5,Win32,59.4000594,,,,,,,,,,,,,,,,,,,,,,,6,7,img/B07_06.jpg,CONTROL,Press J as soon as you see a face, ,JK,,,,,,,,,,,,,,,,,,,,,,,,,,,,,,,,,,,,,,,,,,,,,,,,,,,,,697.4066,0,61,61,72,1,109,0,0,0,0,1,98,,,,,,,,,,,,,,,,,,,,,,,,,,,,,,,,,,,,,,,,,,,,,,,,,,,,,,,,,,,,,,,,,,,,,,,,
,,,,424424,001,2023-09-28_16h33.28.607,fluency,2022.2.5,Win32,59.4000594,,,,,,,,,,,,,,,,,,,,,,,,,,,,,,,,,,,,,,,,,,,,,,,,,,,,,,,,,,,,,,,,,,,,,,,,,,,,,,,,,,,,,,,,,0,0,0,0,1,,"[""j""]",[0.6283000000714765],1,"[""j""]",[0.6282000000476273],,,,,,,,,,,,,,,,,,,,,,,,,,,,,,,,,,,,,,,,,,,,,,,,,,,,,,,,,,,,,,,,,,,
,,,,424424,001,2023-09-28_16h33.28.607,fluency,2022.2.5,Win32,59.4000594,,,,,,,,,,,,,,,,,,,,,,,6,7,img/B07_06.jpg,CONTROL,Press J as soon as you see a face, ,JK,,,,,,,,,,,,,,,,,,,,,,,,,,,,,,,,,,,,,,,6,0.8392,,,,,,,,,,,,,,0,61,61,72,1,,,,,,,,,,,,,space,2.7329,,,,,,,,,,,,,,,,,,,,,,,,,,,,,,,,,,,,,,,,,,,,,,,,,,,,,,,,,,,,,,,,,
,,,,424424,001,2023-09-28_16h33.28.607,fluency,2022.2.5,Win32,59.4000594,,,,,,,,,,,,,,,,,,,,,,,1,3,img/B03_01.jpg,CONTROL,Press J as soon as you see a face, ,JK,,,,,,,,,,,,,,,,,,,,,,,,,,,,,,,,,,,,,,,,,,,,,,,,,,,,,706.0318,0,62,62,23,1,109,0,0,0,0,1,98,,,,,,,,,,,,,,,,,,,,,,,,,,,,,,,,,,,,,,,,,,,,,,,,,,,,,,,,,,,,,,,,,,,,,,,,
,,,,424424,001,2023-09-28_16h33.28.607,fluency,2022.2.5,Win32,59.4000594,,,,,,,,,,,,,,,,,,,,,,,,,,,,,,,,,,,,,,,,,,,,,,,,,,,,,,,,,,,,,,,,,,,,,,,,,,,,,,,,,,,,,,,,,0,0,0,0,1,,"[""j""]",[0.41619999992849444],1,"[""j""]",[0.4160999999046453],,,,,,,,,,,,,,,,,,,,,,,,,,,,,,,,,,,,,,,,,,,,,,,,,,,,,,,,,,,,,,,,,,,
,,,,424424,001,2023-09-28_16h33.28.607,fluency,2022.2.5,Win32,59.4000594,,,,,,,,,,,,,,,,,,,,,,,1,3,img/B03_01.jpg,CONTROL,Press J as soon as you see a face, ,JK,,,,,,,,,,,,,,,,,,,,,,,,,,,,,,,,,,,,,,,6,0.5177,,,,,,,,,,,,,,0,62,62,23,1,,,,,,,,,,,,,space,0.553,,,,,,,,,,,,,,,,,,,,,,,,,,,,,,,,,,,,,,,,,,,,,,,,,,,,,,,,,,,,,,,,,
,,,,424424,001,2023-09-28_16h33.28.607,fluency,2022.2.5,Win32,59.4000594,,,,,,,,,,,,,,,,,,,,,,,3,5,img/B05_03.jpg,CONTROL,Press J as soon as you see a face, ,JK,,,,,,,,,,,,,,,,,,,,,,,,,,,,,,,,,,,,,,,,,,,,,,,,,,,,,712.1552,0,63,63,47,1,109,0,0,0,0,1,98,,,,,,,,,,,,,,,,,,,,,,,,,,,,,,,,,,,,,,,,,,,,,,,,,,,,,,,,,,,,,,,,,,,,,,,,
,,,,424424,001,2023-09-28_16h33.28.607,fluency,2022.2.5,Win32,59.4000594,,,,,,,,,,,,,,,,,,,,,,,,,,,,,,,,,,,,,,,,,,,,,,,,,,,,,,,,,,,,,,,,,,,,,,,,,,,,,,,,,,,,,,,,,0,0,0,0,1,,"[""j""]",[0.6254999999999882],1,"[""j""]",[0.6254999999999882],,,,,,,,,,,,,,,,,,,,,,,,,,,,,,,,,,,,,,,,,,,,,,,,,,,,,,,,,,,,,,,,,,,
,,,,424424,001,2023-09-28_16h33.28.607,fluency,2022.2.5,Win32,59.4000594,,,,,,,,,,,,,,,,,,,,,,,3,5,img/B05_03.jpg,CONTROL,Press J as soon as you see a face, ,JK,,,,,,,,,,,,,,,,,,,,,,,,,,,,,,,,,,,,,,,6,1.106,,,,,,,,,,,,,,0,63,63,47,1,,,,,,,,,,,,,space,3.0727,,,,,,,,,,,,,,,,,,,,,,,,,,,,,,,,,,,,,,,,,,,,,,,,,,,,,,,,,,,,,,,,,
,,,,424424,001,2023-09-28_16h33.28.607,fluency,2022.2.5,Win32,59.4000594,,,,,,,,,,,,,,,,,,,,,,,9,3,img/B03_09.jpg,CONTROL,Press J as soon as you see a face, ,JK,,,,,,,,,,,,,,,,,,,,,,,,,,,,,,,,,,,,,,,,,,,,,,,,,,,,,721.3964,0,64,64,31,1,109,0,0,0,0,1,98,,,,,,,,,,,,,,,,,,,,,,,,,,,,,,,,,,,,,,,,,,,,,,,,,,,,,,,,,,,,,,,,,,,,,,,,
,,,,424424,001,2023-09-28_16h33.28.607,fluency,2022.2.5,Win32,59.4000594,,,,,,,,,,,,,,,,,,,,,,,,,,,,,,,,,,,,,,,,,,,,,,,,,,,,,,,,,,,,,,,,,,,,,,,,,,,,,,,,,,,,,,,,,0,0,0,0,1,,"[""j""]",[0.5206000000238191],1,"[""j""]",[0.52049999999997],,,,,,,,,,,,,,,,,,,,,,,,,,,,,,,,,,,,,,,,,,,,,,,,,,,,,,,,,,,,,,,,,,,
,,,,424424,001,2023-09-28_16h33.28.607,fluency,2022.2.5,Win32,59.4000594,,,,,,,,,,,,,,,,,,,,,,,9,3,img/B03_09.jpg,CONTROL,Press J as soon as you see a face, ,JK,,,,,,,,,,,,,,,,,,,,,,,,,,,,,,,,,,,,,,,7,0.604,,,,,,,,,,,,,,0,64,64,31,1,,,,,,,,,,,,,space,1.7515,,,,,,,,,,,,,,,,,,,,,,,,,,,,,,,,,,,,,,,,,,,,,,,,,,,,,,,,,,,,,,,,,
,,,,424424,001,2023-09-28_16h33.28.607,fluency,2022.2.5,Win32,59.4000594,,,,,,,,,,,,,,,,,,,,,,,8,7,img/B07_08.jpg,CONTROL,Press J as soon as you see a face, ,JK,,,,,,,,,,,,,,,,,,,,,,,,,,,,,,,,,,,,,,,,,,,,,,,,,,,,,727.824,0,65,65,74,1,109,0,0,0,0,1,98,,,,,,,,,,,,,,,,,,,,,,,,,,,,,,,,,,,,,,,,,,,,,,,,,,,,,,,,,,,,,,,,,,,,,,,,
,,,,424424,001,2023-09-28_16h33.28.607,fluency,2022.2.5,Win32,59.4000594,,,,,,,,,,,,,,,,,,,,,,,,,,,,,,,,,,,,,,,,,,,,,,,,,,,,,,,,,,,,,,,,,,,,,,,,,,,,,,,,,,,,,,,,,0,0,0,0,1,,"[""j""]",[0.5826000000238309],1,"[""j""]",[0.5825999999046871],,,,,,,,,,,,,,,,,,,,,,,,,,,,,,,,,,,,,,,,,,,,,,,,,,,,,,,,,,,,,,,,,,,
,,,,424424,001,2023-09-28_16h33.28.607,fluency,2022.2.5,Win32,59.4000594,,,,,,,,,,,,,,,,,,,,,,,8,7,img/B07_08.jpg,CONTROL,Press J as soon as you see a face, ,JK,,,,,,,,,,,,,,,,,,,,,,,,,,,,,,,,,,,,,,,6,0.7117,,,,,,,,,,,,,,0,65,65,74,1,,,,,,,,,,,,,space,0.7182,,,,,,,,,,,,,,,,,,,,,,,,,,,,,,,,,,,,,,,,,,,,,,,,,,,,,,,,,,,,,,,,,
,,,,424424,001,2023-09-28_16h33.28.607,fluency,2022.2.5,Win32,59.4000594,,,,,,,,,,,,,,,,,,,,,,,3,3,img/B03_03.jpg,CONTROL,Press J as soon as you see a face, ,JK,,,,,,,,,,,,,,,,,,,,,,,,,,,,,,,,,,,,,,,,,,,,,,,,,,,,,734.318,0,66,66,25,1,109,0,0,0,0,1,98,,,,,,,,,,,,,,,,,,,,,,,,,,,,,,,,,,,,,,,,,,,,,,,,,,,,,,,,,,,,,,,,,,,,,,,,
,,,,424424,001,2023-09-28_16h33.28.607,fluency,2022.2.5,Win32,59.4000594,,,,,,,,,,,,,,,,,,,,,,,,,,,,,,,,,,,,,,,,,,,,,,,,,,,,,,,,,,,,,,,,,,,,,,,,,,,,,,,,,,,,,,,,,0,0,0,0,1,,"[""j""]",[0.5869000000953974],1,"[""j""]",[0.5869000000953974],,,,,,,,,,,,,,,,,,,,,,,,,,,,,,,,,,,,,,,,,,,,,,,,,,,,,,,,,,,,,,,,,,,
,,,,424424,001,2023-09-28_16h33.28.607,fluency,2022.2.5,Win32,59.4000594,,,,,,,,,,,,,,,,,,,,,,,3,3,img/B03_03.jpg,CONTROL,Press J as soon as you see a face, ,JK,,,,,,,,,,,,,,,,,,,,,,,,,,,,,,,,,,,,,,,6,0.5176,,,,,,,,,,,,,,0,66,66,25,1,,,,,,,,,,,,,space,0.3384,,,,,,,,,,,,,,,,,,,,,,,,,,,,,,,,,,,,,,,,,,,,,,,,,,,,,,,,,,,,,,,,,
,,,,424424,001,2023-09-28_16h33.28.607,fluency,2022.2.5,Win32,59.4000594,,,,,,,,,,,,,,,,,,,,,,,0,8,img/B08_00.jpg,CONTROL,Press J as soon as you see a face, ,JK,,,,,,,,,,,,,,,,,,,,,,,,,,,,,,,,,,,,,,,,,,,,,,,,,,,,,739.2132,0,67,67,77,1,109,0,0,0,0,1,98,,,,,,,,,,,,,,,,,,,,,,,,,,,,,,,,,,,,,,,,,,,,,,,,,,,,,,,,,,,,,,,,,,,,,,,,
,,,,424424,001,2023-09-28_16h33.28.607,fluency,2022.2.5,Win32,59.4000594,,,,,,,,,,,,,,,,,,,,,,,,,,,,,,,,,,,,,,,,,,,,,,,,,,,,,,,,,,,,,,,,,,,,,,,,,,,,,,,,,,,,,,,,,0,0,0,0,1,,"[""j""]",[0.6201999999284453],1,"[""j""]",[0.6201999999284453],,,,,,,,,,,,,,,,,,,,,,,,,,,,,,,,,,,,,,,,,,,,,,,,,,,,,,,,,,,,,,,,,,,
,,,,424424,001,2023-09-28_16h33.28.607,fluency,2022.2.5,Win32,59.4000594,,,,,,,,,,,,,,,,,,,,,,,0,8,img/B08_00.jpg,CONTROL,Press J as soon as you see a face, ,JK,,,,,,,,,,,,,,,,,,,,,,,,,,,,,,,,,,,,,,,6,0.6298,,,,,,,,,,,,,,0,67,67,77,1,,,,,,,,,,,,,space,0.9658,,,,,,,,,,,,,,,,,,,,,,,,,,,,,,,,,,,,,,,,,,,,,,,,,,,,,,,,,,,,,,,,,
,,,,424424,001,2023-09-28_16h33.28.607,fluency,2022.2.5,Win32,59.4000594,,,,,,,,,,,,,,,,,,,,,,,2,1,img/B01_02.jpg,CONTROL,Press J as soon as you see a face, ,JK,,,,,,,,,,,,,,,,,,,,,,,,,,,,,,,,,,,,,,,,,,,,,,,,,,,,,744.8789,0,68,68,2,1,109,0,0,0,0,1,98,,,,,,,,,,,,,,,,,,,,,,,,,,,,,,,,,,,,,,,,,,,,,,,,,,,,,,,,,,,,,,,,,,,,,,,,
,,,,424424,001,2023-09-28_16h33.28.607,fluency,2022.2.5,Win32,59.4000594,,,,,,,,,,,,,,,,,,,,,,,,,,,,,,,,,,,,,,,,,,,,,,,,,,,,,,,,,,,,,,,,,,,,,,,,,,,,,,,,,,,,,,,,,0,0,0,0,1,,"[""j""]",[0.5858999999761636],1,"[""j""]",[0.5857999999523145],,,,,,,,,,,,,,,,,,,,,,,,,,,,,,,,,,,,,,,,,,,,,,,,,,,,,,,,,,,,,,,,,,,
,,,,424424,001,2023-09-28_16h33.28.607,fluency,2022.2.5,Win32,59.4000594,,,,,,,,,,,,,,,,,,,,,,,2,1,img/B01_02.jpg,CONTROL,Press J as soon as you see a face, ,JK,,,,,,,,,,,,,,,,,,,,,,,,,,,,,,,,,,,,,,,5,0.5588,,,,,,,,,,,,,,0,68,68,2,1,,,,,,,,,,,,,space,0.7172,,,,,,,,,,,,,,,,,,,,,,,,,,,,,,,,,,,,,,,,,,,,,,,,,,,,,,,,,,,,,,,,,
,,,,424424,001,2023-09-28_16h33.28.607,fluency,2022.2.5,Win32,59.4000594,,,,,,,,,,,,,,,,,,,,,,,10,10,img/B10_10.jpg,CONTROL,Press J as soon as you see a face, ,JK,,,,,,,,,,,,,,,,,,,,,,,,,,,,,,,,,,,,,,,,,,,,,,,,,,,,,751.2061,0,69,69,109,1,109,0,0,0,0,1,98,,,,,,,,,,,,,,,,,,,,,,,,,,,,,,,,,,,,,,,,,,,,,,,,,,,,,,,,,,,,,,,,,,,,,,,,
,,,,424424,001,2023-09-28_16h33.28.607,fluency,2022.2.5,Win32,59.4000594,,,,,,,,,,,,,,,,,,,,,,,,,,,,,,,,,,,,,,,,,,,,,,,,,,,,,,,,,,,,,,,,,,,,,,,,,,,,,,,,,,,,,,,,,0,0,0,0,1,,"[""j""]",[0.7017999999522999],1,"[""j""]",[0.7017999999522999],,,,,,,,,,,,,,,,,,,,,,,,,,,,,,,,,,,,,,,,,,,,,,,,,,,,,,,,,,,,,,,,,,,
,,,,424424,001,2023-09-28_16h33.28.607,fluency,2022.2.5,Win32,59.4000594,,,,,,,,,,,,,,,,,,,,,,,10,10,img/B10_10.jpg,CONTROL,Press J as soon as you see a face, ,JK,,,,,,,,,,,,,,,,,,,,,,,,,,,,,,,,,,,,,,,5,1.2719,,,,,,,,,,,,,,0,69,69,109,1,,,,,,,,,,,,,space,1.1339,,,,,,,,,,,,,,,,,,,,,,,,,,,,,,,,,,,,,,,,,,,,,,,,,,,,,,,,,,,,,,,,,
,,,,424424,001,2023-09-28_16h33.28.607,fluency,2022.2.5,Win32,59.4000594,,,,,,,,,,,,,,,,,,,,,,,1,9,img/B09_01.jpg,CONTROL,Press J as soon as you see a face, ,JK,,,,,,,,,,,,,,,,,,,,,,,,,,,,,,,,,,,,,,,,,,,,,,,,,,,,,758.6805,0,70,70,89,1,109,0,0,0,0,1,98,,,,,,,,,,,,,,,,,,,,,,,,,,,,,,,,,,,,,,,,,,,,,,,,,,,,,,,,,,,,,,,,,,,,,,,,
,,,,424424,001,2023-09-28_16h33.28.607,fluency,2022.2.5,Win32,59.4000594,,,,,,,,,,,,,,,,,,,,,,,,,,,,,,,,,,,,,,,,,,,,,,,,,,,,,,,,,,,,,,,,,,,,,,,,,,,,,,,,,,,,,,,,,0,0,0,0,1,,"[""j""]",[0.5902000000477301],1,"[""j""]",[0.5902000000477301],,,,,,,,,,,,,,,,,,,,,,,,,,,,,,,,,,,,,,,,,,,,,,,,,,,,,,,,,,,,,,,,,,,
,,,,424424,001,2023-09-28_16h33.28.607,fluency,2022.2.5,Win32,59.4000594,,,,,,,,,,,,,,,,,,,,,,,1,9,img/B09_01.jpg,CONTROL,Press J as soon as you see a face, ,JK,,,,,,,,,,,,,,,,,,,,,,,,,,,,,,,,,,,,,,,7,0.5725,,,,,,,,,,,,,,0,70,70,89,1,,,,,,,,,,,,,space,2.5575,,,,,,,,,,,,,,,,,,,,,,,,,,,,,,,,,,,,,,,,,,,,,,,,,,,,,,,,,,,,,,,,,
,,,,424424,001,2023-09-28_16h33.28.607,fluency,2022.2.5,Win32,59.4000594,,,,,,,,,,,,,,,,,,,,,,,8,4,img/B04_08.jpg,CONTROL,Press J as soon as you see a face, ,JK,,,,,,,,,,,,,,,,,,,,,,,,,,,,,,,,,,,,,,,,,,,,,,,,,,,,,766.8704,0,71,71,41,1,109,0,0,0,0,1,98,,,,,,,,,,,,,,,,,,,,,,,,,,,,,,,,,,,,,,,,,,,,,,,,,,,,,,,,,,,,,,,,,,,,,,,,
,,,,424424,001,2023-09-28_16h33.28.607,fluency,2022.2.5,Win32,59.4000594,,,,,,,,,,,,,,,,,,,,,,,,,,,,,,,,,,,,,,,,,,,,,,,,,,,,,,,,,,,,,,,,,,,,,,,,,,,,,,,,,,,,,,,,,0,0,0,0,1,,"[""j""]",[0.3598000000714592],1,"[""j""]",[0.3598000000714592],,,,,,,,,,,,,,,,,,,,,,,,,,,,,,,,,,,,,,,,,,,,,,,,,,,,,,,,,,,,,,,,,,,
,,,,424424,001,2023-09-28_16h33.28.607,fluency,2022.2.5,Win32,59.4000594,,,,,,,,,,,,,,,,,,,,,,,8,4,img/B04_08.jpg,CONTROL,Press J as soon as you see a face, ,JK,,,,,,,,,,,,,,,,,,,,,,,,,,,,,,,,,,,,,,,5,1.3383,,,,,,,,,,,,,,0,71,71,41,1,,,,,,,,,,,,,space,0.5842,,,,,,,,,,,,,,,,,,,,,,,,,,,,,,,,,,,,,,,,,,,,,,,,,,,,,,,,,,,,,,,,,
,,,,424424,001,2023-09-28_16h33.28.607,fluency,2022.2.5,Win32,59.4000594,,,,,,,,,,,,,,,,,,,,,,,5,4,img/B04_05.jpg,CONTROL,Press J as soon as you see a face, ,JK,,,,,,,,,,,,,,,,,,,,,,,,,,,,,,,,,,,,,,,,,,,,,,,,,,,,,773.8521,0,72,72,38,1,109,0,0,0,0,1,98,,,,,,,,,,,,,,,,,,,,,,,,,,,,,,,,,,,,,,,,,,,,,,,,,,,,,,,,,,,,,,,,,,,,,,,,
,,,,424424,001,2023-09-28_16h33.28.607,fluency,2022.2.5,Win32,59.4000594,,,,,,,,,,,,,,,,,,,,,,,,,,,,,,,,,,,,,,,,,,,,,,,,,,,,,,,,,,,,,,,,,,,,,,,,,,,,,,,,,,,,,,,,,0,0,0,0,1,,"[""j""]",[0.37029999995229446],1,"[""j""]",[0.3703999999761436],,,,,,,,,,,,,,,,,,,,,,,,,,,,,,,,,,,,,,,,,,,,,,,,,,,,,,,,,,,,,,,,,,,
,,,,424424,001,2023-09-28_16h33.28.607,fluency,2022.2.5,Win32,59.4000594,,,,,,,,,,,,,,,,,,,,,,,5,4,img/B04_05.jpg,CONTROL,Press J as soon as you see a face, ,JK,,,,,,,,,,,,,,,,,,,,,,,,,,,,,,,,,,,,,,,6,0.5258,,,,,,,,,,,,,,0,72,72,38,1,,,,,,,,,,,,,space,0.6341,,,,,,,,,,,,,,,,,,,,,,,,,,,,,,,,,,,,,,,,,,,,,,,,,,,,,,,,,,,,,,,,,
,,,,424424,001,2023-09-28_16h33.28.607,fluency,2022.2.5,Win32,59.4000594,,,,,,,,,,,,,,,,,,,,,,,5,1,img/B01_05.jpg,CONTROL,Press J as soon as you see a face, ,JK,,,,,,,,,,,,,,,,,,,,,,,,,,,,,,,,,,,,,,,,,,,,,,,,,,,,,780.0627,0,73,73,5,1,109,0,0,0,0,1,98,,,,,,,,,,,,,,,,,,,,,,,,,,,,,,,,,,,,,,,,,,,,,,,,,,,,,,,,,,,,,,,,,,,,,,,,
,,,,424424,001,2023-09-28_16h33.28.607,fluency,2022.2.5,Win32,59.4000594,,,,,,,,,,,,,,,,,,,,,,,,,,,,,,,,,,,,,,,,,,,,,,,,,,,,,,,,,,,,,,,,,,,,,,,,,,,,,,,,,,,,,,,,,0,0,0,0,1,,"[""j""]",[0.643299999952319],1,"[""j""]",[0.643299999952319],,,,,,,,,,,,,,,,,,,,,,,,,,,,,,,,,,,,,,,,,,,,,,,,,,,,,,,,,,,,,,,,,,,
,,,,424424,001,2023-09-28_16h33.28.607,fluency,2022.2.5,Win32,59.4000594,,,,,,,,,,,,,,,,,,,,,,,5,1,img/B01_05.jpg,CONTROL,Press J as soon as you see a face, ,JK,,,,,,,,,,,,,,,,,,,,,,,,,,,,,,,,,,,,,,,5,0.4776,,,,,,,,,,,,,,0,73,73,5,1,,,,,,,,,,,,,space,0.7378,,,,,,,,,,,,,,,,,,,,,,,,,,,,,,,,,,,,,,,,,,,,,,,,,,,,,,,,,,,,,,,,,
,,,,424424,001,2023-09-28_16h33.28.607,fluency,2022.2.5,Win32,59.4000594,,,,,,,,,,,,,,,,,,,,,,,2,6,img/B06_02.jpg,CONTROL,Press J as soon as you see a face, ,JK,,,,,,,,,,,,,,,,,,,,,,,,,,,,,,,,,,,,,,,,,,,,,,,,,,,,,785.3359,0,74,74,57,1,109,0,0,0,0,1,98,,,,,,,,,,,,,,,,,,,,,,,,,,,,,,,,,,,,,,,,,,,,,,,,,,,,,,,,,,,,,,,,,,,,,,,,
,,,,424424,001,2023-09-28_16h33.28.607,fluency,2022.2.5,Win32,59.4000594,,,,,,,,,,,,,,,,,,,,,,,,,,,,,,,,,,,,,,,,,,,,,,,,,,,,,,,,,,,,,,,,,,,,,,,,,,,,,,,,,,,,,,,,,0,0,0,0,1,,"[""j""]",[0.6328000000714837],1,"[""j""]",[0.6328000000714837],,,,,,,,,,,,,,,,,,,,,,,,,,,,,,,,,,,,,,,,,,,,,,,,,,,,,,,,,,,,,,,,,,,
,,,,424424,001,2023-09-28_16h33.28.607,fluency,2022.2.5,Win32,59.4000594,,,,,,,,,,,,,,,,,,,,,,,2,6,img/B06_02.jpg,CONTROL,Press J as soon as you see a face, ,JK,,,,,,,,,,,,,,,,,,,,,,,,,,,,,,,,,,,,,,,6,0.5639,,,,,,,,,,,,,,0,74,74,57,1,,,,,,,,,,,,,space,3.2987,,,,,,,,,,,,,,,,,,,,,,,,,,,,,,,,,,,,,,,,,,,,,,,,,,,,,,,,,,,,,,,,,
,,,,424424,001,2023-09-28_16h33.28.607,fluency,2022.2.5,Win32,59.4000594,,,,,,,,,,,,,,,,,,,,,,,3,9,img/B09_03.jpg,CONTROL,Press J as soon as you see a face, ,JK,,,,,,,,,,,,,,,,,,,,,,,,,,,,,,,,,,,,,,,,,,,,,,,,,,,,,793.2626,0,75,75,91,1,109,0,0,0,0,1,98,,,,,,,,,,,,,,,,,,,,,,,,,,,,,,,,,,,,,,,,,,,,,,,,,,,,,,,,,,,,,,,,,,,,,,,,
,,,,424424,001,2023-09-28_16h33.28.607,fluency,2022.2.5,Win32,59.4000594,,,,,,,,,,,,,,,,,,,,,,,,,,,,,,,,,,,,,,,,,,,,,,,,,,,,,,,,,,,,,,,,,,,,,,,,,,,,,,,,,,,,,,,,,0,0,0,0,1,,"[""j""]",[0.2764999999999418],1,"[""j""]",[0.2764999999999418],,,,,,,,,,,,,,,,,,,,,,,,,,,,,,,,,,,,,,,,,,,,,,,,,,,,,,,,,,,,,,,,,,,
,,,,424424,001,2023-09-28_16h33.28.607,fluency,2022.2.5,Win32,59.4000594,,,,,,,,,,,,,,,,,,,,,,,3,9,img/B09_03.jpg,CONTROL,Press J as soon as you see a face, ,JK,,,,,,,,,,,,,,,,,,,,,,,,,,,,,,,,,,,,,,,7,0.7001,,,,,,,,,,,,,,0,75,75,91,1,,,,,,,,,,,,,space,1.1582,,,,,,,,,,,,,,,,,,,,,,,,,,,,,,,,,,,,,,,,,,,,,,,,,,,,,,,,,,,,,,,,,
,,,,424424,001,2023-09-28_16h33.28.607,fluency,2022.2.5,Win32,59.4000594,,,,,,,,,,,,,,,,,,,,,,,10,6,img/B06_10.jpg,CONTROL,Press J as soon as you see a face, ,JK,,,,,,,,,,,,,,,,,,,,,,,,,,,,,,,,,,,,,,,,,,,,,,,,,,,,,800.1737,0,76,76,65,1,109,0,0,0,0,1,98,,,,,,,,,,,,,,,,,,,,,,,,,,,,,,,,,,,,,,,,,,,,,,,,,,,,,,,,,,,,,,,,,,,,,,,,
,,,,424424,001,2023-09-28_16h33.28.607,fluency,2022.2.5,Win32,59.4000594,,,,,,,,,,,,,,,,,,,,,,,,,,,,,,,,,,,,,,,,,,,,,,,,,,,,,,,,,,,,,,,,,,,,,,,,,,,,,,,,,,,,,,,,,0,0,0,0,1,,"[""j""]",[0.6666000000237773],1,"[""j"",""space""]","[0.6666000000237773,2.232600000023808]",,,,,,,,,,,,,,,,,,,,,,,,,,,,,,,,,,,,,,,,,,,,,,,,,,,,,,,,,,,,,,,,,,,
,,,,424424,001,2023-09-28_16h33.28.607,fluency,2022.2.5,Win32,59.4000594,,,,,,,,,,,,,,,,,,,,,,,10,6,img/B06_10.jpg,CONTROL,Press J as soon as you see a face, ,JK,,,,,,,,,,,,,,,,,,,,,,,,,,,,,,,,,,,,,,,6,1.1686,,,,,,,,,,,,,,0,76,76,65,1,,,,,,,,,,,,,space,4.8197,,,,,,,,,,,,,,,,,,,,,,,,,,,,,,,,,,,,,,,,,,,,,,,,,,,,,,,,,,,,,,,,,
,,,,424424,001,2023-09-28_16h33.28.607,fluency,2022.2.5,Win32,59.4000594,,,,,,,,,,,,,,,,,,,,,,,6,2,img/B02_06.jpg,CONTROL,Press J as soon as you see a face, ,JK,,,,,,,,,,,,,,,,,,,,,,,,,,,,,,,,,,,,,,,,,,,,,,,,,,,,,810.2302,0,77,77,17,1,109,0,0,0,0,1,98,,,,,,,,,,,,,,,,,,,,,,,,,,,,,,,,,,,,,,,,,,,,,,,,,,,,,,,,,,,,,,,,,,,,,,,,
,,,,424424,001,2023-09-28_16h33.28.607,fluency,2022.2.5,Win32,59.4000594,,,,,,,,,,,,,,,,,,,,,,,,,,,,,,,,,,,,,,,,,,,,,,,,,,,,,,,,,,,,,,,,,,,,,,,,,,,,,,,,,,,,,,,,,0,0,0,0,1,,"[""j""]",[0.7691000000238546],1,"[""j""]",[0.7691000000238546],,,,,,,,,,,,,,,,,,,,,,,,,,,,,,,,,,,,,,,,,,,,,,,,,,,,,,,,,,,,,,,,,,,
,,,,424424,001,2023-09-28_16h33.28.607,fluency,2022.2.5,Win32,59.4000594,,,,,,,,,,,,,,,,,,,,,,,6,2,img/B02_06.jpg,CONTROL,Press J as soon as you see a face, ,JK,,,,,,,,,,,,,,,,,,,,,,,,,,,,,,,,,,,,,,,7,0.4967,,,,,,,,,,,,,,0,77,77,17,1,,,,,,,,,,,,,space,0.9933,,,,,,,,,,,,,,,,,,,,,,,,,,,,,,,,,,,,,,,,,,,,,,,,,,,,,,,,,,,,,,,,,
,,,,424424,001,2023-09-28_16h33.28.607,fluency,2022.2.5,Win32,59.4000594,,,,,,,,,,,,,,,,,,,,,,,0,1,img/B01_00.jpg,CONTROL,Press J as soon as you see a face, ,JK,,,,,,,,,,,,,,,,,,,,,,,,,,,,,,,,,,,,,,,,,,,,,,,,,,,,,816.7738,0,78,78,0,1,109,0,0,0,0,1,98,,,,,,,,,,,,,,,,,,,,,,,,,,,,,,,,,,,,,,,,,,,,,,,,,,,,,,,,,,,,,,,,,,,,,,,,
,,,,424424,001,2023-09-28_16h33.28.607,fluency,2022.2.5,Win32,59.4000594,,,,,,,,,,,,,,,,,,,,,,,,,,,,,,,,,,,,,,,,,,,,,,,,,,,,,,,,,,,,,,,,,,,,,,,,,,,,,,,,,,,,,,,,,0,0,0,0,1,,"[""j""]",[0.6281999999284835],1,"[""j""]",[0.6282999999523327],,,,,,,,,,,,,,,,,,,,,,,,,,,,,,,,,,,,,,,,,,,,,,,,,,,,,,,,,,,,,,,,,,,
,,,,424424,001,2023-09-28_16h33.28.607,fluency,2022.2.5,Win32,59.4000594,,,,,,,,,,,,,,,,,,,,,,,0,1,img/B01_00.jpg,CONTROL,Press J as soon as you see a face, ,JK,,,,,,,,,,,,,,,,,,,,,,,,,,,,,,,,,,,,,,,5,0.8417,,,,,,,,,,,,,,0,78,78,0,1,,,,,,,,,,,,,space,1.5077,,,,,,,,,,,,,,,,,,,,,,,,,,,,,,,,,,,,,,,,,,,,,,,,,,,,,,,,,,,,,,,,,
,,,,424424,001,2023-09-28_16h33.28.607,fluency,2022.2.5,Win32,59.4000594,,,,,,,,,,,,,,,,,,,,,,,1,2,img/B02_01.jpg,CONTROL,Press J as soon as you see a face, ,JK,,,,,,,,,,,,,,,,,,,,,,,,,,,,,,,,,,,,,,,,,,,,,,,,,,,,,824.167,0,79,79,12,1,109,0,0,0,0,1,98,,,,,,,,,,,,,,,,,,,,,,,,,,,,,,,,,,,,,,,,,,,,,,,,,,,,,,,,,,,,,,,,,,,,,,,,
,,,,424424,001,2023-09-28_16h33.28.607,fluency,2022.2.5,Win32,59.4000594,,,,,,,,,,,,,,,,,,,,,,,,,,,,,,,,,,,,,,,,,,,,,,,,,,,,,,,,,,,,,,,,,,,,,,,,,,,,,,,,,,,,,,,,,0,0,0,0,1,,"[""j""]",[0.6855000000000473],1,"[""j""]",[0.6853999999761982],,,,,,,,,,,,,,,,,,,,,,,,,,,,,,,,,,,,,,,,,,,,,,,,,,,,,,,,,,,,,,,,,,,
,,,,424424,001,2023-09-28_16h33.28.607,fluency,2022.2.5,Win32,59.4000594,,,,,,,,,,,,,,,,,,,,,,,1,2,img/B02_01.jpg,CONTROL,Press J as soon as you see a face, ,JK,,,,,,,,,,,,,,,,,,,,,,,,,,,,,,,,,,,,,,,5,0.6078,,,,,,,,,,,,,,0,79,79,12,1,,,,,,,,,,,,,space,0.7673,,,,,,,,,,,,,,,,,,,,,,,,,,,,,,,,,,,,,,,,,,,,,,,,,,,,,,,,,,,,,,,,,
,,,,424424,001,2023-09-28_16h33.28.607,fluency,2022.2.5,Win32,59.4000594,,,,,,,,,,,,,,,,,,,,,,,0,2,img/B02_00.jpg,CONTROL,Press J as soon as you see a face, ,JK,,,,,,,,,,,,,,,,,,,,,,,,,,,,,,,,,,,,,,,,,,,,,,,,,,,,,829.599,0,80,80,11,1,109,0,0,0,0,1,98,,,,,,,,,,,,,,,,,,,,,,,,,,,,,,,,,,,,,,,,,,,,,,,,,,,,,,,,,,,,,,,,,,,,,,,,
,,,,424424,001,2023-09-28_16h33.28.607,fluency,2022.2.5,Win32,59.4000594,,,,,,,,,,,,,,,,,,,,,,,,,,,,,,,,,,,,,,,,,,,,,,,,,,,,,,,,,,,,,,,,,,,,,,,,,,,,,,,,,,,,,,,,,0,0,0,0,1,,"[""j""]",[0.9755000000000109],1,"[""j""]",[0.9753999999761618],,,,,,,,,,,,,,,,,,,,,,,,,,,,,,,,,,,,,,,,,,,,,,,,,,,,,,,,,,,,,,,,,,,
,,,,424424,001,2023-09-28_16h33.28.607,fluency,2022.2.5,Win32,59.4000594,,,,,,,,,,,,,,,,,,,,,,,0,2,img/B02_00.jpg,CONTROL,Press J as soon as you see a face, ,JK,,,,,,,,,,,,,,,,,,,,,,,,,,,,,,,,,,,,,,,5,0.3771,,,,,,,,,,,,,,0,80,80,11,1,,,,,,,,,,,,,space,0.805,,,,,,,,,,,,,,,,,,,,,,,,,,,,,,,,,,,,,,,,,,,,,,,,,,,,,,,,,,,,,,,,,
,,,,424424,001,2023-09-28_16h33.28.607,fluency,2022.2.5,Win32,59.4000594,,,,,,,,,,,,,,,,,,,,,,,7,6,img/B06_07.jpg,CONTROL,Press J as soon as you see a face, ,JK,,,,,,,,,,,,,,,,,,,,,,,,,,,,,,,,,,,,,,,,,,,,,,,,,,,,,835.8231,0,81,81,62,1,109,0,0,0,0,1,98,,,,,,,,,,,,,,,,,,,,,,,,,,,,,,,,,,,,,,,,,,,,,,,,,,,,,,,,,,,,,,,,,,,,,,,,
,,,,424424,001,2023-09-28_16h33.28.607,fluency,2022.2.5,Win32,59.4000594,,,,,,,,,,,,,,,,,,,,,,,,,,,,,,,,,,,,,,,,,,,,,,,,,,,,,,,,,,,,,,,,,,,,,,,,,,,,,,,,,,,,,,,,,0,0,0,0,1,,"[""j""]",[0.6167000000476719],1,"[""j""]",[0.6167000000476719],,,,,,,,,,,,,,,,,,,,,,,,,,,,,,,,,,,,,,,,,,,,,,,,,,,,,,,,,,,,,,,,,,,
,,,,424424,001,2023-09-28_16h33.28.607,fluency,2022.2.5,Win32,59.4000594,,,,,,,,,,,,,,,,,,,,,,,7,6,img/B06_07.jpg,CONTROL,Press J as soon as you see a face, ,JK,,,,,,,,,,,,,,,,,,,,,,,,,,,,,,,,,,,,,,,7,0.5084,,,,,,,,,,,,,,0,81,81,62,1,,,,,,,,,,,,,space,0.6472,,,,,,,,,,,,,,,,,,,,,,,,,,,,,,,,,,,,,,,,,,,,,,,,,,,,,,,,,,,,,,,,,
,,,,424424,001,2023-09-28_16h33.28.607,fluency,2022.2.5,Win32,59.4000594,,,,,,,,,,,,,,,,,,,,,,,5,5,img/B05_05.jpg,CONTROL,Press J as soon as you see a face, ,JK,,,,,,,,,,,,,,,,,,,,,,,,,,,,,,,,,,,,,,,,,,,,,,,,,,,,,841.0527,0,82,82,49,1,109,0,0,0,0,1,98,,,,,,,,,,,,,,,,,,,,,,,,,,,,,,,,,,,,,,,,,,,,,,,,,,,,,,,,,,,,,,,,,,,,,,,,
,,,,424424,001,2023-09-28_16h33.28.607,fluency,2022.2.5,Win32,59.4000594,,,,,,,,,,,,,,,,,,,,,,,,,,,,,,,,,,,,,,,,,,,,,,,,,,,,,,,,,,,,,,,,,,,,,,,,,,,,,,,,,,,,,,,,,0,0,0,0,1,,"[""j""]",[0.54099999999994],1,"[""j""]",[0.54099999999994],,,,,,,,,,,,,,,,,,,,,,,,,,,,,,,,,,,,,,,,,,,,,,,,,,,,,,,,,,,,,,,,,,,
,,,,424424,001,2023-09-28_16h33.28.607,fluency,2022.2.5,Win32,59.4000594,,,,,,,,,,,,,,,,,,,,,,,5,5,img/B05_05.jpg,CONTROL,Press J as soon as you see a face, ,JK,,,,,,,,,,,,,,,,,,,,,,,,,,,,,,,,,,,,,,,7,0.5495,,,,,,,,,,,,,,0,82,82,49,1,,,,,,,,,,,,,space,0.2517,,,,,,,,,,,,,,,,,,,,,,,,,,,,,,,,,,,,,,,,,,,,,,,,,,,,,,,,,,,,,,,,,
,,,,424424,001,2023-09-28_16h33.28.607,fluency,2022.2.5,Win32,59.4000594,,,,,,,,,,,,,,,,,,,,,,,3,2,img/B02_03.jpg,CONTROL,Press J as soon as you see a face, ,JK,,,,,,,,,,,,,,,,,,,,,,,,,,,,,,,,,,,,,,,,,,,,,,,,,,,,,845.913,0,83,83,14,1,109,0,0,0,0,1,98,,,,,,,,,,,,,,,,,,,,,,,,,,,,,,,,,,,,,,,,,,,,,,,,,,,,,,,,,,,,,,,,,,,,,,,,
,,,,424424,001,2023-09-28_16h33.28.607,fluency,2022.2.5,Win32,59.4000594,,,,,,,,,,,,,,,,,,,,,,,,,,,,,,,,,,,,,,,,,,,,,,,,,,,,,,,,,,,,,,,,,,,,,,,,,,,,,,,,,,,,,,,,,0,0,0,0,1,,"[""j""]",[0.7596000000238519],1,"[""j""]",[0.7596000000238519],,,,,,,,,,,,,,,,,,,,,,,,,,,,,,,,,,,,,,,,,,,,,,,,,,,,,,,,,,,,,,,,,,,
,,,,424424,001,2023-09-28_16h33.28.607,fluency,2022.2.5,Win32,59.4000594,,,,,,,,,,,,,,,,,,,,,,,3,2,img/B02_03.jpg,CONTROL,Press J as soon as you see a face, ,JK,,,,,,,,,,,,,,,,,,,,,,,,,,,,,,,,,,,,,,,6,0.8201,,,,,,,,,,,,,,0,83,83,14,1,,,,,,,,,,,,,space,2.4229,,,,,,,,,,,,,,,,,,,,,,,,,,,,,,,,,,,,,,,,,,,,,,,,,,,,,,,,,,,,,,,,,
,,,,424424,001,2023-09-28_16h33.28.607,fluency,2022.2.5,Win32,59.4000594,,,,,,,,,,,,,,,,,,,,,,,8,1,img/B01_08.jpg,CONTROL,Press J as soon as you see a face, ,JK,,,,,,,,,,,,,,,,,,,,,,,,,,,,,,,,,,,,,,,,,,,,,,,,,,,,,853.2064,0,84,84,8,1,109,0,0,0,0,1,98,,,,,,,,,,,,,,,,,,,,,,,,,,,,,,,,,,,,,,,,,,,,,,,,,,,,,,,,,,,,,,,,,,,,,,,,
,,,,424424,001,2023-09-28_16h33.28.607,fluency,2022.2.5,Win32,59.4000594,,,,,,,,,,,,,,,,,,,,,,,,,,,,,,,,,,,,,,,,,,,,,,,,,,,,,,,,,,,,,,,,,,,,,,,,,,,,,,,,,,,,,,,,,0,0,0,0,1,,"[""j""]",[0.7169999999999845],1,"[""j""]",[0.7169999999999845],,,,,,,,,,,,,,,,,,,,,,,,,,,,,,,,,,,,,,,,,,,,,,,,,,,,,,,,,,,,,,,,,,,
,,,,424424,001,2023-09-28_16h33.28.607,fluency,2022.2.5,Win32,59.4000594,,,,,,,,,,,,,,,,,,,,,,,8,1,img/B01_08.jpg,CONTROL,Press J as soon as you see a face, ,JK,,,,,,,,,,,,,,,,,,,,,,,,,,,,,,,,,,,,,,,7,0.569,,,,,,,,,,,,,,0,84,84,8,1,,,,,,,,,,,,,space,0.675,,,,,,,,,,,,,,,,,,,,,,,,,,,,,,,,,,,,,,,,,,,,,,,,,,,,,,,,,,,,,,,,,
,,,,424424,001,2023-09-28_16h33.28.607,fluency,2022.2.5,Win32,59.4000594,,,,,,,,,,,,,,,,,,,,,,,3,1,img/B01_03.jpg,CONTROL,Press J as soon as you see a face, ,JK,,,,,,,,,,,,,,,,,,,,,,,,,,,,,,,,,,,,,,,,,,,,,,,,,,,,,858.5018,0,85,85,3,1,109,0,0,0,0,1,98,,,,,,,,,,,,,,,,,,,,,,,,,,,,,,,,,,,,,,,,,,,,,,,,,,,,,,,,,,,,,,,,,,,,,,,,
,,,,424424,001,2023-09-28_16h33.28.607,fluency,2022.2.5,Win32,59.4000594,,,,,,,,,,,,,,,,,,,,,,,,,,,,,,,,,,,,,,,,,,,,,,,,,,,,,,,,,,,,,,,,,,,,,,,,,,,,,,,,,,,,,,,,,0,0,0,0,1,,"[""j""]",[0.6577999999523172],1,"[""j""]",[0.6577999999523172],,,,,,,,,,,,,,,,,,,,,,,,,,,,,,,,,,,,,,,,,,,,,,,,,,,,,,,,,,,,,,,,,,,
,,,,424424,001,2023-09-28_16h33.28.607,fluency,2022.2.5,Win32,59.4000594,,,,,,,,,,,,,,,,,,,,,,,3,1,img/B01_03.jpg,CONTROL,Press J as soon as you see a face, ,JK,,,,,,,,,,,,,,,,,,,,,,,,,,,,,,,,,,,,,,,5,0.4987,,,,,,,,,,,,,,0,85,85,3,1,,,,,,,,,,,,,space,0.8012,,,,,,,,,,,,,,,,,,,,,,,,,,,,,,,,,,,,,,,,,,,,,,,,,,,,,,,,,,,,,,,,,
,,,,424424,001,2023-09-28_16h33.28.607,fluency,2022.2.5,Win32,59.4000594,,,,,,,,,,,,,,,,,,,,,,,7,10,img/B10_07.jpg,CONTROL,Press J as soon as you see a face, ,JK,,,,,,,,,,,,,,,,,,,,,,,,,,,,,,,,,,,,,,,,,,,,,,,,,,,,,864.8625,0,86,86,106,1,109,0,0,0,0,1,98,,,,,,,,,,,,,,,,,,,,,,,,,,,,,,,,,,,,,,,,,,,,,,,,,,,,,,,,,,,,,,,,,,,,,,,,
,,,,424424,001,2023-09-28_16h33.28.607,fluency,2022.2.5,Win32,59.4000594,,,,,,,,,,,,,,,,,,,,,,,,,,,,,,,,,,,,,,,,,,,,,,,,,,,,,,,,,,,,,,,,,,,,,,,,,,,,,,,,,,,,,,,,,0,0,0,0,1,,"[""j""]",[0.47180000007142553],1,"[""j""]",[0.4717000000475764],,,,,,,,,,,,,,,,,,,,,,,,,,,,,,,,,,,,,,,,,,,,,,,,,,,,,,,,,,,,,,,,,,,
,,,,424424,001,2023-09-28_16h33.28.607,fluency,2022.2.5,Win32,59.4000594,,,,,,,,,,,,,,,,,,,,,,,7,10,img/B10_07.jpg,CONTROL,Press J as soon as you see a face, ,JK,,,,,,,,,,,,,,,,,,,,,,,,,,,,,,,,,,,,,,,6,0.4552,,,,,,,,,,,,,,0,86,86,106,1,,,,,,,,,,,,,space,0.985,,,,,,,,,,,,,,,,,,,,,,,,,,,,,,,,,,,,,,,,,,,,,,,,,,,,,,,,,,,,,,,,,
,,,,424424,001,2023-09-28_16h33.28.607,fluency,2022.2.5,Win32,59.4000594,,,,,,,,,,,,,,,,,,,,,,,4,3,img/B03_04.jpg,CONTROL,Press J as soon as you see a face, ,JK,,,,,,,,,,,,,,,,,,,,,,,,,,,,,,,,,,,,,,,,,,,,,,,,,,,,,870.3617,0,87,87,26,1,109,0,0,0,0,1,98,,,,,,,,,,,,,,,,,,,,,,,,,,,,,,,,,,,,,,,,,,,,,,,,,,,,,,,,,,,,,,,,,,,,,,,,
,,,,424424,001,2023-09-28_16h33.28.607,fluency,2022.2.5,Win32,59.4000594,,,,,,,,,,,,,,,,,,,,,,,,,,,,,,,,,,,,,,,,,,,,,,,,,,,,,,,,,,,,,,,,,,,,,,,,,,,,,,,,,,,,,,,,,0,0,0,0,1,,"[""j""]",[0.6788000000714192],1,"[""j""]",[0.6787000000476837],,,,,,,,,,,,,,,,,,,,,,,,,,,,,,,,,,,,,,,,,,,,,,,,,,,,,,,,,,,,,,,,,,,
,,,,424424,001,2023-09-28_16h33.28.607,fluency,2022.2.5,Win32,59.4000594,,,,,,,,,,,,,,,,,,,,,,,4,3,img/B03_04.jpg,CONTROL,Press J as soon as you see a face, ,JK,,,,,,,,,,,,,,,,,,,,,,,,,,,,,,,,,,,,,,,7,0.42,,,,,,,,,,,,,,0,87,87,26,1,,,,,,,,,,,,,space,1.0514,,,,,,,,,,,,,,,,,,,,,,,,,,,,,,,,,,,,,,,,,,,,,,,,,,,,,,,,,,,,,,,,,
,,,,424424,001,2023-09-28_16h33.28.607,fluency,2022.2.5,Win32,59.4000594,,,,,,,,,,,,,,,,,,,,,,,8,5,img/B05_08.jpg,CONTROL,Press J as soon as you see a face, ,JK,,,,,,,,,,,,,,,,,,,,,,,,,,,,,,,,,,,,,,,,,,,,,,,,,,,,,876.9018,0,88,88,52,1,109,0,0,0,0,1,98,,,,,,,,,,,,,,,,,,,,,,,,,,,,,,,,,,,,,,,,,,,,,,,,,,,,,,,,,,,,,,,,,,,,,,,,
,,,,424424,001,2023-09-28_16h33.28.607,fluency,2022.2.5,Win32,59.4000594,,,,,,,,,,,,,,,,,,,,,,,,,,,,,,,,,,,,,,,,,,,,,,,,,,,,,,,,,,,,,,,,,,,,,,,,,,,,,,,,,,,,,,,,,0,0,0,0,1,,"[""j""]",[0.6488999999761518],1,"[""j""]",[0.64910000002385],,,,,,,,,,,,,,,,,,,,,,,,,,,,,,,,,,,,,,,,,,,,,,,,,,,,,,,,,,,,,,,,,,,
,,,,424424,001,2023-09-28_16h33.28.607,fluency,2022.2.5,Win32,59.4000594,,,,,,,,,,,,,,,,,,,,,,,8,5,img/B05_08.jpg,CONTROL,Press J as soon as you see a face, ,JK,,,,,,,,,,,,,,,,,,,,,,,,,,,,,,,,,,,,,,,7,0.5392,,,,,,,,,,,,,,0,88,88,52,1,,,,,,,,,,,,,space,1.0002,,,,,,,,,,,,,,,,,,,,,,,,,,,,,,,,,,,,,,,,,,,,,,,,,,,,,,,,,,,,,,,,,
,,,,424424,001,2023-09-28_16h33.28.607,fluency,2022.2.5,Win32,59.4000594,,,,,,,,,,,,,,,,,,,,,,,2,10,img/B10_02.jpg,CONTROL,Press J as soon as you see a face, ,JK,,,,,,,,,,,,,,,,,,,,,,,,,,,,,,,,,,,,,,,,,,,,,,,,,,,,,883.4999,0,89,89,101,1,109,0,0,0,0,1,98,,,,,,,,,,,,,,,,,,,,,,,,,,,,,,,,,,,,,,,,,,,,,,,,,,,,,,,,,,,,,,,,,,,,,,,,
,,,,424424,001,2023-09-28_16h33.28.607,fluency,2022.2.5,Win32,59.4000594,,,,,,,,,,,,,,,,,,,,,,,,,,,,,,,,,,,,,,,,,,,,,,,,,,,,,,,,,,,,,,,,,,,,,,,,,,,,,,,,,,,,,,,,,0,0,0,0,1,,"[""j""]",[0.5326999999284681],1,"[""j""]",[0.5327999999523172],,,,,,,,,,,,,,,,,,,,,,,,,,,,,,,,,,,,,,,,,,,,,,,,,,,,,,,,,,,,,,,,,,,
,,,,424424,001,2023-09-28_16h33.28.607,fluency,2022.2.5,Win32,59.4000594,,,,,,,,,,,,,,,,,,,,,,,2,10,img/B10_02.jpg,CONTROL,Press J as soon as you see a face, ,JK,,,,,,,,,,,,,,,,,,,,,,,,,,,,,,,,,,,,,,,7,0.7061,,,,,,,,,,,,,,0,89,89,101,1,,,,,,,,,,,,,space,0.3176,,,,,,,,,,,,,,,,,,,,,,,,,,,,,,,,,,,,,,,,,,,,,,,,,,,,,,,,,,,,,,,,,
,,,,424424,001,2023-09-28_16h33.28.607,fluency,2022.2.5,Win32,59.4000594,,,,,,,,,,,,,,,,,,,,,,,6,10,img/B10_06.jpg,CONTROL,Press J as soon as you see a face, ,JK,,,,,,,,,,,,,,,,,,,,,,,,,,,,,,,,,,,,,,,,,,,,,,,,,,,,,889.5725,0,90,90,105,1,109,0,0,0,0,1,98,,,,,,,,,,,,,,,,,,,,,,,,,,,,,,,,,,,,,,,,,,,,,,,,,,,,,,,,,,,,,,,,,,,,,,,,
,,,,424424,001,2023-09-28_16h33.28.607,fluency,2022.2.5,Win32,59.4000594,,,,,,,,,,,,,,,,,,,,,,,,,,,,,,,,,,,,,,,,,,,,,,,,,,,,,,,,,,,,,,,,,,,,,,,,,,,,,,,,,,,,,,,,,0,0,0,0,1,,"[""j""]",[0.48450000000002547],1,"[""j""]",[0.4844999999999118],,,,,,,,,,,,,,,,,,,,,,,,,,,,,,,,,,,,,,,,,,,,,,,,,,,,,,,,,,,,,,,,,,,
,,,,424424,001,2023-09-28_16h33.28.607,fluency,2022.2.5,Win32,59.4000594,,,,,,,,,,,,,,,,,,,,,,,6,10,img/B10_06.jpg,CONTROL,Press J as soon as you see a face, ,JK,,,,,,,,,,,,,,,,,,,,,,,,,,,,,,,,,,,,,,,7,0.4674,,,,,,,,,,,,,,0,90,90,105,1,,,,,,,,,,,,,space,0.6092,,,,,,,,,,,,,,,,,,,,,,,,,,,,,,,,,,,,,,,,,,,,,,,,,,,,,,,,,,,,,,,,,
,,,,424424,001,2023-09-28_16h33.28.607,fluency,2022.2.5,Win32,59.4000594,,,,,,,,,,,,,,,,,,,,,,,5,10,img/B10_05.jpg,CONTROL,Press J as soon as you see a face, ,JK,,,,,,,,,,,,,,,,,,,,,,,,,,,,,,,,,,,,,,,,,,,,,,,,,,,,,895.7004,0,91,91,104,1,109,0,0,0,0,1,98,,,,,,,,,,,,,,,,,,,,,,,,,,,,,,,,,,,,,,,,,,,,,,,,,,,,,,,,,,,,,,,,,,,,,,,,
,,,,424424,001,2023-09-28_16h33.28.607,fluency,2022.2.5,Win32,59.4000594,,,,,,,,,,,,,,,,,,,,,,,,,,,,,,,,,,,,,,,,,,,,,,,,,,,,,,,,,,,,,,,,,,,,,,,,,,,,,,,,,,,,,,,,,0,0,0,0,1,,"[""j""]",[0.4979999999999336],1,"[""j""]",[0.4979999999999336],,,,,,,,,,,,,,,,,,,,,,,,,,,,,,,,,,,,,,,,,,,,,,,,,,,,,,,,,,,,,,,,,,,
,,,,424424,001,2023-09-28_16h33.28.607,fluency,2022.2.5,Win32,59.4000594,,,,,,,,,,,,,,,,,,,,,,,5,10,img/B10_05.jpg,CONTROL,Press J as soon as you see a face, ,JK,,,,,,,,,,,,,,,,,,,,,,,,,,,,,,,,,,,,,,,7,1.0103,,,,,,,,,,,,,,0,91,91,104,1,,,,,,,,,,,,,space,0.9515,,,,,,,,,,,,,,,,,,,,,,,,,,,,,,,,,,,,,,,,,,,,,,,,,,,,,,,,,,,,,,,,,
,,,,424424,001,2023-09-28_16h33.28.607,fluency,2022.2.5,Win32,59.4000594,,,,,,,,,,,,,,,,,,,,,,,8,3,img/B03_08.jpg,CONTROL,Press J as soon as you see a face, ,JK,,,,,,,,,,,,,,,,,,,,,,,,,,,,,,,,,,,,,,,,,,,,,,,,,,,,,902.7271,0,92,92,30,1,109,0,0,0,0,1,98,,,,,,,,,,,,,,,,,,,,,,,,,,,,,,,,,,,,,,,,,,,,,,,,,,,,,,,,,,,,,,,,,,,,,,,,
,,,,424424,001,2023-09-28_16h33.28.607,fluency,2022.2.5,Win32,59.4000594,,,,,,,,,,,,,,,,,,,,,,,,,,,,,,,,,,,,,,,,,,,,,,,,,,,,,,,,,,,,,,,,,,,,,,,,,,,,,,,,,,,,,,,,,0,0,0,0,1,,"[""j""]",[0.5356999999283971],1,"[""j""]",[0.5357000000476546],,,,,,,,,,,,,,,,,,,,,,,,,,,,,,,,,,,,,,,,,,,,,,,,,,,,,,,,,,,,,,,,,,,
,,,,424424,001,2023-09-28_16h33.28.607,fluency,2022.2.5,Win32,59.4000594,,,,,,,,,,,,,,,,,,,,,,,8,3,img/B03_08.jpg,CONTROL,Press J as soon as you see a face, ,JK,,,,,,,,,,,,,,,,,,,,,,,,,,,,,,,,,,,,,,,8,0.4592,,,,,,,,,,,,,,0,92,92,30,1,,,,,,,,,,,,,space,0.7035,,,,,,,,,,,,,,,,,,,,,,,,,,,,,,,,,,,,,,,,,,,,,,,,,,,,,,,,,,,,,,,,,
,,,,424424,001,2023-09-28_16h33.28.607,fluency,2022.2.5,Win32,59.4000594,,,,,,,,,,,,,,,,,,,,,,,9,8,img/B08_09.jpg,CONTROL,Press J as soon as you see a face, ,JK,,,,,,,,,,,,,,,,,,,,,,,,,,,,,,,,,,,,,,,,,,,,,,,,,,,,,908.9377,0,93,93,86,1,109,0,0,0,0,1,98,,,,,,,,,,,,,,,,,,,,,,,,,,,,,,,,,,,,,,,,,,,,,,,,,,,,,,,,,,,,,,,,,,,,,,,,
,,,,424424,001,2023-09-28_16h33.28.607,fluency,2022.2.5,Win32,59.4000594,,,,,,,,,,,,,,,,,,,,,,,,,,,,,,,,,,,,,,,,,,,,,,,,,,,,,,,,,,,,,,,,,,,,,,,,,,,,,,,,,,,,,,,,,0,0,0,0,1,,"[""j""]",[0.6193999999761672],1,"[""j""]",[0.6192999999523181],,,,,,,,,,,,,,,,,,,,,,,,,,,,,,,,,,,,,,,,,,,,,,,,,,,,,,,,,,,,,,,,,,,
,,,,424424,001,2023-09-28_16h33.28.607,fluency,2022.2.5,Win32,59.4000594,,,,,,,,,,,,,,,,,,,,,,,9,8,img/B08_09.jpg,CONTROL,Press J as soon as you see a face, ,JK,,,,,,,,,,,,,,,,,,,,,,,,,,,,,,,,,,,,,,,6,0.4838,,,,,,,,,,,,,,0,93,93,86,1,,,,,,,,,,,,,space,3.0542,,,,,,,,,,,,,,,,,,,,,,,,,,,,,,,,,,,,,,,,,,,,,,,,,,,,,,,,,,,,,,,,,
,,,,424424,001,2023-09-28_16h33.28.607,fluency,2022.2.5,Win32,59.4000594,,,,,,,,,,,,,,,,,,,,,,,10,3,img/B03_10.jpg,CONTROL,Press J as soon as you see a face, ,JK,,,,,,,,,,,,,,,,,,,,,,,,,,,,,,,,,,,,,,,,,,,,,,,,,,,,,916.5476,0,94,94,32,1,109,0,0,0,0,1,98,,,,,,,,,,,,,,,,,,,,,,,,,,,,,,,,,,,,,,,,,,,,,,,,,,,,,,,,,,,,,,,,,,,,,,,,
,,,,424424,001,2023-09-28_16h33.28.607,fluency,2022.2.5,Win32,59.4000594,,,,,,,,,,,,,,,,,,,,,,,,,,,,,,,,,,,,,,,,,,,,,,,,,,,,,,,,,,,,,,,,,,,,,,,,,,,,,,,,,,,,,,,,,0,0,0,0,1,,"[""j""]",[0.6023000000715228],1,"[""j""]",[0.6025000000000773],,,,,,,,,,,,,,,,,,,,,,,,,,,,,,,,,,,,,,,,,,,,,,,,,,,,,,,,,,,,,,,,,,,
,,,,424424,001,2023-09-28_16h33.28.607,fluency,2022.2.5,Win32,59.4000594,,,,,,,,,,,,,,,,,,,,,,,10,3,img/B03_10.jpg,CONTROL,Press J as soon as you see a face, ,JK,,,,,,,,,,,,,,,,,,,,,,,,,,,,,,,,,,,,,,,8,0.518,,,,,,,,,,,,,,0,94,94,32,1,,,,,,,,,,,,,space,3.5835,,,,,,,,,,,,,,,,,,,,,,,,,,,,,,,,,,,,,,,,,,,,,,,,,,,,,,,,,,,,,,,,,
,,,,424424,001,2023-09-28_16h33.28.607,fluency,2022.2.5,Win32,59.4000594,,,,,,,,,,,,,,,,,,,,,,,1,8,img/B08_01.jpg,CONTROL,Press J as soon as you see a face, ,JK,,,,,,,,,,,,,,,,,,,,,,,,,,,,,,,,,,,,,,,,,,,,,,,,,,,,,924.7064,0,95,95,78,1,109,0,0,0,0,1,98,,,,,,,,,,,,,,,,,,,,,,,,,,,,,,,,,,,,,,,,,,,,,,,,,,,,,,,,,,,,,,,,,,,,,,,,
,,,,424424,001,2023-09-28_16h33.28.607,fluency,2022.2.5,Win32,59.4000594,,,,,,,,,,,,,,,,,,,,,,,,,,,,,,,,,,,,,,,,,,,,,,,,,,,,,,,,,,,,,,,,,,,,,,,,,,,,,,,,,,,,,,,,,0,0,0,0,1,,"[""j""]",[0.6730000000000018],1,"[""j""]",[0.6730000000000018],,,,,,,,,,,,,,,,,,,,,,,,,,,,,,,,,,,,,,,,,,,,,,,,,,,,,,,,,,,,,,,,,,,
,,,,424424,001,2023-09-28_16h33.28.607,fluency,2022.2.5,Win32,59.4000594,,,,,,,,,,,,,,,,,,,,,,,1,8,img/B08_01.jpg,CONTROL,Press J as soon as you see a face, ,JK,,,,,,,,,,,,,,,,,,,,,,,,,,,,,,,,,,,,,,,6,0.4402,,,,,,,,,,,,,,0,95,95,78,1,,,,,,,,,,,,,space,0.4042,,,,,,,,,,,,,,,,,,,,,,,,,,,,,,,,,,,,,,,,,,,,,,,,,,,,,,,,,,,,,,,,,
,,,,424424,001,2023-09-28_16h33.28.607,fluency,2022.2.5,Win32,59.4000594,,,,,,,,,,,,,,,,,,,,,,,6,1,img/B01_06.jpg,CONTROL,Press J as soon as you see a face, ,JK,,,,,,,,,,,,,,,,,,,,,,,,,,,,,,,,,,,,,,,,,,,,,,,,,,,,,930.6219,0,96,96,6,1,109,0,0,0,0,1,98,,,,,,,,,,,,,,,,,,,,,,,,,,,,,,,,,,,,,,,,,,,,,,,,,,,,,,,,,,,,,,,,,,,,,,,,
,,,,424424,001,2023-09-28_16h33.28.607,fluency,2022.2.5,Win32,59.4000594,,,,,,,,,,,,,,,,,,,,,,,,,,,,,,,,,,,,,,,,,,,,,,,,,,,,,,,,,,,,,,,,,,,,,,,,,,,,,,,,,,,,,,,,,0,0,0,0,1,,"[""j""]",[0.2616999999283962],1,"[""j""]",[0.2616999999283962],,,,,,,,,,,,,,,,,,,,,,,,,,,,,,,,,,,,,,,,,,,,,,,,,,,,,,,,,,,,,,,,,,,
,,,,424424,001,2023-09-28_16h33.28.607,fluency,2022.2.5,Win32,59.4000594,,,,,,,,,,,,,,,,,,,,,,,6,1,img/B01_06.jpg,CONTROL,Press J as soon as you see a face, ,JK,,,,,,,,,,,,,,,,,,,,,,,,,,,,,,,,,,,,,,,5,0.8937,,,,,,,,,,,,,,0,96,96,6,1,,,,,,,,,,,,,space,0.9337,,,,,,,,,,,,,,,,,,,,,,,,,,,,,,,,,,,,,,,,,,,,,,,,,,,,,,,,,,,,,,,,,
,,,,424424,001,2023-09-28_16h33.28.607,fluency,2022.2.5,Win32,59.4000594,,,,,,,,,,,,,,,,,,,,,,,5,6,img/B06_05.jpg,CONTROL,Press J as soon as you see a face, ,JK,,,,,,,,,,,,,,,,,,,,,,,,,,,,,,,,,,,,,,,,,,,,,,,,,,,,,936.4963,0,97,97,60,1,109,0,0,0,0,1,98,,,,,,,,,,,,,,,,,,,,,,,,,,,,,,,,,,,,,,,,,,,,,,,,,,,,,,,,,,,,,,,,,,,,,,,,
