idTextbox.text,welcomeDone.numClicks,welcomeDone.timesOn,welcomeDone.timesOff,participant,session,date,expName,psychopyVersion,OS,frameRate,consent_advance.keys,consent_advance.rt,consent_advance_2.keys,consent_advance_2.rt,consentClick.x,consentClick.y,consentClick.leftButton,consentClick.midButton,consentClick.rightButton,consentClick.time,consentClick.clicked_name,instr_advance_3.keys,instr_advance_3.rt,spec_instr_adv.keys,spec_instr_adv.rt,spec_instr_adv2.keys,spec_instr_adv2.rt,instrLoop.thisRepN,instrLoop.thisTrialN,instrLoop.thisN,instrLoop.thisIndex,instrLoop.ran,steps,fams,face_file,cond,instr,term,key_map,attnKeyResp1.keys,attnKeyResp1.rt,q1.thisRepN,q1.thisTrialN,q1.thisN,q1.thisIndex,q1.ran,attnKeyResp2.keys,attnKeyResp2.rt,q2.thisRepN,q2.thisTrialN,q2.thisN,q2.thisIndex,q2.ran,failureAcknowledged.keys,failureAcknowledged.rt,attnFailure.thisRepN,attnFailure.thisTrialN,attnFailure.thisN,attnFailure.thisIndex,attnFailure.ran,attnLoop.thisRepN,attnLoop.thisTrialN,attnLoop.thisN,attnLoop.thisIndex,attnLoop.ran,instr_advance_2.keys,instr_advance_2.rt,spec_instr_adv_2.keys,spec_instr_adv_2.rt,rate_instr_adv2.keys,rate_instr_adv2.rt,reshowInstr.thisRepN,reshowInstr.thisTrialN,reshowInstr.thisN,reshowInstr.thisIndex,reshowInstr.ran,attnKeyResp3.keys,attnKeyResp3.rt,q3.thisRepN,q3.thisTrialN,q3.thisN,q3.thisIndex,q3.ran,practiceStart.keys,practiceStart.rt,practiceResp.keys,timesRedone,redo_keypress.keys,redo_keypress.rt,practiceFailed.thisRepN,practiceFailed.thisTrialN,practiceFailed.thisN,practiceFailed.thisIndex,practiceFailed.ran,practiceRepeat.thisRepN,practiceRepeat.thisTrialN,practiceRepeat.thisN,practiceRepeat.thisIndex,practiceRepeat.ran,practiceResp.rt,attrRating.keys,attrRating.rt,practiceTrial.thisRepN,practiceTrial.thisTrialN,practiceTrial.thisN,practiceTrial.thisIndex,practiceTrial.ran,key_resp_3.keys,key_resp_3.rt,attnChecker.thisRepN,attnChecker.thisTrialN,attnChecker.thisN,attnChecker.thisIndex,attnChecker.ran,faceOnsetTime,trials.thisRepN,trials.thisTrialN,trials.thisN,trials.thisIndex,trials.ran,trials.order,repeat_loop.thisRepN,repeat_loop.thisTrialN,repeat_loop.thisN,repeat_loop.thisIndex,repeat_loop.ran,repeat_loop.order,catResp.keys,catResp.rt,globalTimesRedone,catAllKeys.keys,catAllKeys.rt,contResp.keys,contResp.rt,redo_feedback_loop.thisRepN,redo_feedback_loop.thisTrialN,redo_feedback_loop.thisN,redo_feedback_loop.thisIndex,redo_feedback_loop.ran,contResp_2.keys,contResp_2.rt,respQ1.response,respQ1.rt,respQ2.response,respQ2.rt,respQ3.response,respQ3.rt,respQ4.response,respQ4.rt,surveyContinue1.numClicks,surveyContinue1.timesOn,surveyContinue1.timesOff,respQ5.response,respQ5.rt,respQ6.response,respQ6.rt,respQ7.response,respQ7.rt,respQ8.response,respQ8.rt,surveyContinue2.numClicks,surveyContinue2.timesOn,surveyContinue2.timesOff,respQ9.response,respQ9.rt,respQ10.response,respQ10.rt,respQ11.response,respQ11.rt,respQ12.response,respQ12.rt,surveyContinue3.numClicks,surveyContinue3.timesOn,surveyContinue3.timesOff,respQ13.response,respQ13.rt,respQ14.response,respQ14.rt,respQ15.response,respQ15.rt,surveyContinue4.numClicks,surveyContinue4.timesOn,surveyContinue4.timesOff,respAge.response,respAge.rt,genderResp1.response,genderResp1.rt,genderResp2.text,demogexitClick.numClicks,demogexitClick.timesOn,demogexitClick.timesOff,textbox.text,openAnswerClick.numClicks,openAnswerClick.timesOn,openAnswerClick.timesOff,debriefEnd.keys,debriefEnd.rt,exitKey.keys,exitKey.rt
6107b85a1f75367afc533648,1,[11.708299999952317],[11.708399999976159],597823,001,2023-10-10_24h51.10.815,fluency,2022.2.4,Win32,60.64281383,,,,,,,,,,,,,,,,,,,,,,,,,,,,,,,,,,,,,,,,,,,,,,,,,,,,,,,,,,,,,,,,,,,,,,,,,,,,,,,,,,,,,,,,,,,,,,,,,,,,,,,,,,,,,,,,,,,,,,,,,,,,,,,,,,,,,,,,,,,,,,,,,,,,,,,,,,,,,,,,,,,,,,,,,,,,,,,,,,,,,,,,,,,,,
,,,,597823,001,2023-10-10_24h51.10.815,fluency,2022.2.4,Win32,60.64281383,space,10.4496,,,,,,,,,,,,,,,,,,,,,,,,,,,,,,,,,,,,,,,,,,,,,,,,,,,,,,,,,,,,,,,,,,,,,,,,,,,,,,,,,,,,,,,,,,,,,,,,,,,,,,,,,,,,,,,,,,,,,,,,,,,,,,,,,,,,,,,,,,,,,,,,,,,,,,,,,,,,,,,,,,,,,,,,,,,,,,,,,,,,,,,,,,,
,,,,597823,001,2023-10-10_24h51.10.815,fluency,2022.2.4,Win32,60.64281383,,,space,5.4028,,,,,,,,,,,,,,,,,,,,,,,,,,,,,,,,,,,,,,,,,,,,,,,,,,,,,,,,,,,,,,,,,,,,,,,,,,,,,,,,,,,,,,,,,,,,,,,,,,,,,,,,,,,,,,,,,,,,,,,,,,,,,,,,,,,,,,,,,,,,,,,,,,,,,,,,,,,,,,,,,,,,,,,,,,,,,,,,,,,,,,,,,
,,,,597823,001,2023-10-10_24h51.10.815,fluency,2022.2.4,Win32,60.64281383,,,,,0.28729898,-0.332501454,1,0,0,26.7026,iAgree,,,,,,,,,,,,,,,,,,,,,,,,,,,,,,,,,,,,,,,,,,,,,,,,,,,,,,,,,,,,,,,,,,,,,,,,,,,,,,,,,,,,,,,,,,,,,,,,,,,,,,,,,,,,,,,,,,,,,,,,,,,,,,,,,,,,,,,,,,,,,,,,,,,,,,,,,,,,,,,,,,,,,,,,,,,,,,,,,,
,,,,597823,001,2023-10-10_24h51.10.815,fluency,2022.2.4,Win32,60.64281383,,,,,,,,,,,,space,13.7901,,,,,,,,,,,,,,,,,,,,,,,,,,,,,,,,,,,,,,,,,,,,,,,,,,,,,,,,,,,,,,,,,,,,,,,,,,,,,,,,,,,,,,,,,,,,,,,,,,,,,,,,,,,,,,,,,,,,,,,,,,,,,,,,,,,,,,,,,,,,,,,,,,,,,,,,,,,,,,,,,,,,,,,,,,,,,,,,
,,,,597823,001,2023-10-10_24h51.10.815,fluency,2022.2.4,Win32,60.64281383,,,,,,,,,,,,,,space,23.8435,space,6.7103,0,0,0,65,1,10,6,img/B06_10.jpg,BLEND,Press J if the face is a NON-BLEND and K if the face is a BLEND,A blend is a computer-generated image created by combining together multiple photos of real human faces. A non-blend is a regular photo of a human face.,KJ,,,,,,,,,,,,,,,,,,,,,,,,,,,,,,,,,,,,,,,,,,,,,,,,,,,,,,,,,,,,,,,,,,,,,,,,,,,,,,,,,,,,,,,,,,,,,,,,,,,,,,,,,,,,,,,,,,,,,,,,,,,,,,,,,,,,,,,,,,,,,,,,,,,,,,,,,,,,,,,,
,,,,597823,001,2023-10-10_24h51.10.815,fluency,2022.2.4,Win32,60.64281383,,,,,,,,,,,,,,,,,,,,,,,,,,,,,,c,6.1845,0,0,0,0,1,,,,,,,,,,,,,,,,,,,,,,,,,,,,,,,,,,,,,,,,,,,,,,,,,,,,,,,,,,,,,,,,,,,,,,,,,,,,,,,,,,,,,,,,,,,,,,,,,,,,,,,,,,,,,,,,,,,,,,,,,,,,,,,,,,,,,,,,,,,,,,,,,,,,,,,,,
,,,,597823,001,2023-10-10_24h51.10.815,fluency,2022.2.4,Win32,60.64281383,,,,,,,,,,,,,,,,,,,,,,,,,,,,,,,,,,,,,c,0.0263,0,0,0,0,1,,,,,,,,,,,,,,,,,,,,,,,,,,,,,,,,,,,,,,,,,,,,,,,,,,,,,,,,,,,,,,,,,,,,,,,,,,,,,,,,,,,,,,,,,,,,,,,,,,,,,,,,,,,,,,,,,,,,,,,,,,,,,,,,,,,,,,,,,,,,,,,,,,
,,,,597823,001,2023-10-10_24h51.10.815,fluency,2022.2.4,Win32,60.64281383,,,,,,,,,,,,,,,,,,,,,,,,,,,,,,,,,,,,,,,,,,,,space,1.3589,0,0,0,0,1,,,,,,,,,,,,,,,,,,,,,,,,,,,,,,,,,,,,,,,,,,,,,,,,,,,,,,,,,,,,,,,,,,,,,,,,,,,,,,,,,,,,,,,,,,,,,,,,,,,,,,,,,,,,,,,,,,,,,,,,,,,,,,,,,,,,,,,,,,,
,,,,597823,001,2023-10-10_24h51.10.815,fluency,2022.2.4,Win32,60.64281383,,,,,,,,,,,,,,,,,,,,,,,,,,,,,,,,,,,,,,,,,,,,,,,,,,,0,0,0,0,1,,,,,,,,,,,,,,,,,,,,,,,,,,,,,,,,,,,,,,,,,,,,,,,,,,,,,,,,,,,,,,,,,,,,,,,,,,,,,,,,,,,,,,,,,,,,,,,,,,,,,,,,,,,,,,,,,,,,,,,,,,,,,,,,,,,,,,
,,,,597823,001,2023-10-10_24h51.10.815,fluency,2022.2.4,Win32,60.64281383,,,,,,,,,,,,,,,,,,,,,,,,,,,,,,,,,,,,,,,,,,,,,,,,,,,,,,,,space,4.9933,space,13.5094,space,2.8201,0,0,0,0,1,,,,,,,,,,,,,,,,,,,,,,,,,,,,,,,,,,,,,,,,,,,,,,,,,,,,,,,,,,,,,,,,,,,,,,,,,,,,,,,,,,,,,,,,,,,,,,,,,,,,,,,,,,,,,,,,,,,,,,,,,,,
,,,,597823,001,2023-10-10_24h51.10.815,fluency,2022.2.4,Win32,60.64281383,,,,,,,,,,,,,,,,,,,,,,,,,,,,,,c,4.098,0,0,0,0,1,,,,,,,,,,,,,,,,,,,,,,,,,,,,,,,,,,,,,,,,,,,,,,,,,,,,,,,,,,,,,,,,,,,,,,,,,,,,,,,,,,,,,,,,,,,,,,,,,,,,,,,,,,,,,,,,,,,,,,,,,,,,,,,,,,,,,,,,,,,,,,,,,,,,,,,,,
,,,,597823,001,2023-10-10_24h51.10.815,fluency,2022.2.4,Win32,60.64281383,,,,,,,,,,,,,,,,,,,,,,,,,,,,,,,,,,,,,a,1.8412,0,0,0,0,1,,,,,,,,,,,,,,,,,,,,,,,,,,,,,,,,,,,,,,,,,,,,,,,,,,,,,,,,,,,,,,,,,,,,,,,,,,,,,,,,,,,,,,,,,,,,,,,,,,,,,,,,,,,,,,,,,,,,,,,,,,,,,,,,,,,,,,,,,,,,,,,,,,
,,,,597823,001,2023-10-10_24h51.10.815,fluency,2022.2.4,Win32,60.64281383,,,,,,,,,,,,,,,,,,,,,,,,,,,,,,,,,,,,,,,,,,,,,,,,,,,,,,,,,,,,,,,,,,,c,3.5595,0,0,0,0,1,,,,,,,,,,,,,,,,,,,,,,,,,,,,,,,,,,,,,,,,,,,,,,,,,,,,,,,,,,,,,,,,,,,,,,,,,,,,,,,,,,,,,,,,,,,,,,,,,,,,,,,,,,,,,,,,,,,,
,,,,597823,001,2023-10-10_24h51.10.815,fluency,2022.2.4,Win32,60.64281383,,,,,,,,,,,,,,,,,,,,,,,,,,,,,,,,,,,,,,,,,,,,,,,,,,,,,,,,,,,,,,,,,,,,,,,,,,space,1.0132,,1,space,3.1267,0,0,0,0,1,,,,,,,,,,,,,,,,,,,,,,,,,,,,,,,,,,,,,,,,,,,,,,,,,,,,,,,,,,,,,,,,,,,,,,,,,,,,,,,,,,,,,,,,,,,,,,,,,,,,,,,,,
,,,,597823,001,2023-10-10_24h51.10.815,fluency,2022.2.4,Win32,60.64281383,,,,,,,,,,,,,,,,,,,,,,,,,,,,,,,,,,,,,,,,,,,,,,,,,,,,,,,,,,,,,,,,,,,,,,,,,,,,,,,,,,,,,0,0,0,0,1,,,,,,,,,,,,,,,,,,,,,,,,,,,,,,,,,,,,,,,,,,,,,,,,,,,,,,,,,,,,,,,,,,,,,,,,,,,,,,,,,,,,,,,,,,,,,,,,,,,,
,,,,597823,001,2023-10-10_24h51.10.815,fluency,2022.2.4,Win32,60.64281383,,,,,,,,,,,,,,,,,,,,,,,,,,,,,,,,,,,,,,,,,,,,,,,,,,,,,,,,,,,,,,,,,,,,,,,,,,,,j,1,,,,,,,,1,0,1,0,1,1.2796,,,,,,,,,,,,,,,,,,,,,,,,,,,,,,,,,,,,,,,,,,,,,,,,,,,,,,,,,,,,,,,,,,,,,,,,,,,,,,,,,,,,,,,,,,,,,,,,,,,
,,,,597823,001,2023-10-10_24h51.10.815,fluency,2022.2.4,Win32,60.64281383,,,,,,,,,,,,,,,,,,,,,,,,,,,,,,,,,,,,,,,,,,,,,,,,,,,,,,,,,,,,,,,,,,,,,,,,,,,,,,,,,,,,,,,,,,,3,2.0387,0,0,0,0,1,,,,,,,,,,,,,,,,,,,,,,,,,,,,,,,,,,,,,,,,,,,,,,,,,,,,,,,,,,,,,,,,,,,,,,,,,,,,,,,,,,,,,,,,,,,,
,,,,597823,001,2023-10-10_24h51.10.815,fluency,2022.2.4,Win32,60.64281383,,,,,,,,,,,,,,,,,,,,,,,,,,,,,,,,,,,,,,,,,,,,,,,,,,,,,,,,,,,,,,,,,,,,,,,,,,,,,,,,,,,,,,,,,,,,,,,,,,space,0.8309,0,0,0,0,1,,,,,,,,,,,,,,,,,,,,,,,,,,,,,,,,,,,,,,,,,,,,,,,,,,,,,,,,,,,,,,,,,,,,,,,,,,,,,,,,,,,,,
,,,,597823,001,2023-10-10_24h51.10.815,fluency,2022.2.4,Win32,60.64281383,,,,,,,,,,,,,,,,,,,,,,,7,8,img/B08_07.jpg,BLEND,Press J if the face is a NON-BLEND and K if the face is a BLEND,A blend is a computer-generated image created by combining together multiple photos of real human faces. A non-blend is a regular photo of a human face.,KJ,,,,,,,,,,,,,,,,,,,,,,,,,,,,,,,,,,,,,,,,,,,,,,,,,,,,,,,,,,,,,,,,,,,,,,,,,,,,180.4708,0,0,0,84,1,109,0,0,0,0,1,98,,,,,,,,,,,,,,,,,,,,,,,,,,,,,,,,,,,,,,,,,,,,,,,,,,,,,,,,,,,,,,,,,,,,,,,,
,,,,597823,001,2023-10-10_24h51.10.815,fluency,2022.2.4,Win32,60.64281383,,,,,,,,,,,,,,,,,,,,,,,,,,,,,,,,,,,,,,,,,,,,,,,,,,,,,,,,,,,,,,,,,,,,,,,,,,,,,,,,,,,,,,,,,,,,,,,,,,,,,,,,,,,,,,,,0,0,0,0,1,,"[""j""]",[2.209900000095388],1,"[""j""]",[2.209899999976159],,,,,,,,,,,,,,,,,,,,,,,,,,,,,,,,,,,,,,,,,,,,,,,,,,,,,,,,,,,,,,,,,,,
,,,,597823,001,2023-10-10_24h51.10.815,fluency,2022.2.4,Win32,60.64281383,,,,,,,,,,,,,,,,,,,,,,,7,8,img/B08_07.jpg,BLEND,Press J if the face is a NON-BLEND and K if the face is a BLEND,A blend is a computer-generated image created by combining together multiple photos of real human faces. A non-blend is a regular photo of a human face.,KJ,,,,,,,,,,,,,,,,,,,,,,,,,,,,,,,,,,,,,,,,,,,,,,,,,,,,,,,,,,,,,,1,3.1522,,,,,,,,,,,,,,0,0,0,84,1,,,,,,,,,,,,,space,1.3025,,,,,,,,,,,,,,,,,,,,,,,,,,,,,,,,,,,,,,,,,,,,,,,,,,,,,,,,,,,,,,,,,
,,,,597823,001,2023-10-10_24h51.10.815,fluency,2022.2.4,Win32,60.64281383,,,,,,,,,,,,,,,,,,,,,,,9,7,img/B07_09.jpg,BLEND,Press J if the face is a NON-BLEND and K if the face is a BLEND,A blend is a computer-generated image created by combining together multiple photos of real human faces. A non-blend is a regular photo of a human face.,KJ,,,,,,,,,,,,,,,,,,,,,,,,,,,,,,,,,,,,,,,,,,,,,,,,,,,,,,,,,,,,,,,,,,,,,,,,,,,,190.1475,0,1,1,75,1,109,0,0,0,0,1,98,,,,,,,,,,,,,,,,,,,,,,,,,,,,,,,,,,,,,,,,,,,,,,,,,,,,,,,,,,,,,,,,,,,,,,,,
,,,,597823,001,2023-10-10_24h51.10.815,fluency,2022.2.4,Win32,60.64281383,,,,,,,,,,,,,,,,,,,,,,,,,,,,,,,,,,,,,,,,,,,,,,,,,,,,,,,,,,,,,,,,,,,,,,,,,,,,,,space,2.0353,,,,,,,,,,,,,,,,,,,,,,,,,,,,,,,,,,,,,,,,,2,,,,,0,0,0,0,1,,,,,,,,,,,,,,,,,,,,,,,,,,,,,,,,,,,,,,,,,,,,,,,,,,,,,,,,,,,,
,,,,597823,001,2023-10-10_24h51.10.815,fluency,2022.2.4,Win32,60.64281383,,,,,,,,,,,,,,,,,,,,,,,,,,,,,,,,,,,,,,,,,,,,,,,,,,,,,,,,,,,,,,,,,,,,,,,,,,,,,,,,,,,,,,,,,,,,,,,,,,,,,,,,,,,,,,,,0,0,0,0,1,,,,,,,,,,,,,,,,,,,,,,,,,,,,,,,,,,,,,,,,,,,,,,,,,,,,,,,,,,,,,,,,,,,,,,,,,
,,,,597823,001,2023-10-10_24h51.10.815,fluency,2022.2.4,Win32,60.64281383,,,,,,,,,,,,,,,,,,,,,,,9,7,img/B07_09.jpg,BLEND,Press J if the face is a NON-BLEND and K if the face is a BLEND,A blend is a computer-generated image created by combining together multiple photos of real human faces. A non-blend is a regular photo of a human face.,KJ,,,,,,,,,,,,,,,,,,,,,,,,,,,,,,,,,,,,,,,,,,,,,,,,,,,,,,,,,,,,,,,,,,,,,,,,,,,,196.2293,0,1,1,75,1,109,1,0,1,0,1,98,,,,,,,,,,,,,,,,,,,,,,,,,,,,,,,,,,,,,,,,,,,,,,,,,,,,,,,,,,,,,,,,,,,,,,,,
,,,,597823,001,2023-10-10_24h51.10.815,fluency,2022.2.4,Win32,60.64281383,,,,,,,,,,,,,,,,,,,,,,,,,,,,,,,,,,,,,,,,,,,,,,,,,,,,,,,,,,,,,,,,,,,,,,,,,,,,,,,,,,,,,,,,,,,,,,,,,,,,,,,,,,,,,,,,1,0,1,0,1,,"[""j""]",[0.29829999995232015],2,"[""j""]",[0.29829999995232015],,,,,,,,,,,,,,,,,,,,,,,,,,,,,,,,,,,,,,,,,,,,,,,,,,,,,,,,,,,,,,,,,,,
,,,,597823,001,2023-10-10_24h51.10.815,fluency,2022.2.4,Win32,60.64281383,,,,,,,,,,,,,,,,,,,,,,,9,7,img/B07_09.jpg,BLEND,Press J if the face is a NON-BLEND and K if the face is a BLEND,A blend is a computer-generated image created by combining together multiple photos of real human faces. A non-blend is a regular photo of a human face.,KJ,,,,,,,,,,,,,,,,,,,,,,,,,,,,,,,,,,,,,,,,,,,,,,,,,,,,,,,,,,,,,,7,0.4222,,,,,,,,,,,,,,0,1,1,75,1,,,,,,,,,,,,,space,5.4848,,,,,,,,,,,,,,,,,,,,,,,,,,,,,,,,,,,,,,,,,,,,,,,,,,,,,,,,,,,,,,,,,
,,,,597823,001,2023-10-10_24h51.10.815,fluency,2022.2.4,Win32,60.64281383,,,,,,,,,,,,,,,,,,,,,,,4,3,img/B03_04.jpg,BLEND,Press J if the face is a NON-BLEND and K if the face is a BLEND,A blend is a computer-generated image created by combining together multiple photos of real human faces. A non-blend is a regular photo of a human face.,KJ,,,,,,,,,,,,,,,,,,,,,,,,,,,,,,,,,,,,,,,,,,,,,,,,,,,,,,,,,,,,,,,,,,,,,,,,,,,,207.2772,0,2,2,26,1,109,0,0,0,0,1,98,,,,,,,,,,,,,,,,,,,,,,,,,,,,,,,,,,,,,,,,,,,,,,,,,,,,,,,,,,,,,,,,,,,,,,,,
,,,,597823,001,2023-10-10_24h51.10.815,fluency,2022.2.4,Win32,60.64281383,,,,,,,,,,,,,,,,,,,,,,,,,,,,,,,,,,,,,,,,,,,,,,,,,,,,,,,,,,,,,,,,,,,,,,,,,,,,,,,,,,,,,,,,,,,,,,,,,,,,,,,,,,,,,,,,0,0,0,0,1,,"[""j""]",[1.3626000000238605],2,"[""j""]",[1.3625000000000114],,,,,,,,,,,,,,,,,,,,,,,,,,,,,,,,,,,,,,,,,,,,,,,,,,,,,,,,,,,,,,,,,,,
,,,,597823,001,2023-10-10_24h51.10.815,fluency,2022.2.4,Win32,60.64281383,,,,,,,,,,,,,,,,,,,,,,,4,3,img/B03_04.jpg,BLEND,Press J if the face is a NON-BLEND and K if the face is a BLEND,A blend is a computer-generated image created by combining together multiple photos of real human faces. A non-blend is a regular photo of a human face.,KJ,,,,,,,,,,,,,,,,,,,,,,,,,,,,,,,,,,,,,,,,,,,,,,,,,,,,,,,,,,,,,,5,0.5343,,,,,,,,,,,,,,0,2,2,26,1,,,,,,,,,,,,,space,4.3045,,,,,,,,,,,,,,,,,,,,,,,,,,,,,,,,,,,,,,,,,,,,,,,,,,,,,,,,,,,,,,,,,
,,,,597823,001,2023-10-10_24h51.10.815,fluency,2022.2.4,Win32,60.64281383,,,,,,,,,,,,,,,,,,,,,,,7,3,img/B03_07.jpg,BLEND,Press J if the face is a NON-BLEND and K if the face is a BLEND,A blend is a computer-generated image created by combining together multiple photos of real human faces. A non-blend is a regular photo of a human face.,KJ,,,,,,,,,,,,,,,,,,,,,,,,,,,,,,,,,,,,,,,,,,,,,,,,,,,,,,,,,,,,,,,,,,,,,,,,,,,,216.2441,0,3,3,29,1,109,0,0,0,0,1,98,,,,,,,,,,,,,,,,,,,,,,,,,,,,,,,,,,,,,,,,,,,,,,,,,,,,,,,,,,,,,,,,,,,,,,,,
,,,,597823,001,2023-10-10_24h51.10.815,fluency,2022.2.4,Win32,60.64281383,,,,,,,,,,,,,,,,,,,,,,,,,,,,,,,,,,,,,,,,,,,,,,,,,,,,,,,,,,,,,,,,,,,,,,,,,,,,,,,,,,,,,,,,,,,,,,,,,,,,,,,,,,,,,,,,0,0,0,0,1,,"[""j""]",[2.0002999999523183],2,"[""j""]",[2.0002000000476983],,,,,,,,,,,,,,,,,,,,,,,,,,,,,,,,,,,,,,,,,,,,,,,,,,,,,,,,,,,,,,,,,,,
,,,,597823,001,2023-10-10_24h51.10.815,fluency,2022.2.4,Win32,60.64281383,,,,,,,,,,,,,,,,,,,,,,,7,3,img/B03_07.jpg,BLEND,Press J if the face is a NON-BLEND and K if the face is a BLEND,A blend is a computer-generated image created by combining together multiple photos of real human faces. A non-blend is a regular photo of a human face.,KJ,,,,,,,,,,,,,,,,,,,,,,,,,,,,,,,,,,,,,,,,,,,,,,,,,,,,,,,,,,,,,,6,0.9975,,,,,,,,,,,,,,0,3,3,29,1,,,,,,,,,,,,,space,1.7811,,,,,,,,,,,,,,,,,,,,,,,,,,,,,,,,,,,,,,,,,,,,,,,,,,,,,,,,,,,,,,,,,
,,,,597823,001,2023-10-10_24h51.10.815,fluency,2022.2.4,Win32,60.64281383,,,,,,,,,,,,,,,,,,,,,,,10,6,img/B06_10.jpg,BLEND,Press J if the face is a NON-BLEND and K if the face is a BLEND,A blend is a computer-generated image created by combining together multiple photos of real human faces. A non-blend is a regular photo of a human face.,KJ,,,,,,,,,,,,,,,,,,,,,,,,,,,,,,,,,,,,,,,,,,,,,,,,,,,,,,,,,,,,,,,,,,,,,,,,,,,,223.1404,0,4,4,65,1,109,0,0,0,0,1,98,,,,,,,,,,,,,,,,,,,,,,,,,,,,,,,,,,,,,,,,,,,,,,,,,,,,,,,,,,,,,,,,,,,,,,,,
,,,,597823,001,2023-10-10_24h51.10.815,fluency,2022.2.4,Win32,60.64281383,,,,,,,,,,,,,,,,,,,,,,,,,,,,,,,,,,,,,,,,,,,,,,,,,,,,,,,,,,,,,,,,,,,,,,,,,,,,,,,,,,,,,,,,,,,,,,,,,,,,,,,,,,,,,,,,0,0,0,0,1,,"[""j""]",[0.9797000000476714],2,"[""j""]",[0.9796999999284708],,,,,,,,,,,,,,,,,,,,,,,,,,,,,,,,,,,,,,,,,,,,,,,,,,,,,,,,,,,,,,,,,,,
,,,,597823,001,2023-10-10_24h51.10.815,fluency,2022.2.4,Win32,60.64281383,,,,,,,,,,,,,,,,,,,,,,,10,6,img/B06_10.jpg,BLEND,Press J if the face is a NON-BLEND and K if the face is a BLEND,A blend is a computer-generated image created by combining together multiple photos of real human faces. A non-blend is a regular photo of a human face.,KJ,,,,,,,,,,,,,,,,,,,,,,,,,,,,,,,,,,,,,,,,,,,,,,,,,,,,,,,,,,,,,,4,0.543,,,,,,,,,,,,,,0,4,4,65,1,,,,,,,,,,,,,space,0.7402,,,,,,,,,,,,,,,,,,,,,,,,,,,,,,,,,,,,,,,,,,,,,,,,,,,,,,,,,,,,,,,,,
,,,,597823,001,2023-10-10_24h51.10.815,fluency,2022.2.4,Win32,60.64281383,,,,,,,,,,,,,,,,,,,,,,,5,5,img/B05_05.jpg,BLEND,Press J if the face is a NON-BLEND and K if the face is a BLEND,A blend is a computer-generated image created by combining together multiple photos of real human faces. A non-blend is a regular photo of a human face.,KJ,,,,,,,,,,,,,,,,,,,,,,,,,,,,,,,,,,,,,,,,,,,,,,,,,,,,,,,,,,,,,,,,,,,,,,,,,,,,229.4751,0,5,5,49,1,109,0,0,0,0,1,98,,,,,,,,,,,,,,,,,,,,,,,,,,,,,,,,,,,,,,,,,,,,,,,,,,,,,,,,,,,,,,,,,,,,,,,,
,,,,597823,001,2023-10-10_24h51.10.815,fluency,2022.2.4,Win32,60.64281383,,,,,,,,,,,,,,,,,,,,,,,,,,,,,,,,,,,,,,,,,,,,,,,,,,,,,,,,,,,,,,,,,,,,,,,,,,,,,,,,,,,,,,,,,,,,,,,,,,,,,,,,,,,,,,,,0,0,0,0,1,,"[""k""]",[0.9377999999523183],2,"[""k""]",[0.9378999999761675],,,,,,,,,,,,,,,,,,,,,,,,,,,,,,,,,,,,,,,,,,,,,,,,,,,,,,,,,,,,,,,,,,,
,,,,597823,001,2023-10-10_24h51.10.815,fluency,2022.2.4,Win32,60.64281383,,,,,,,,,,,,,,,,,,,,,,,5,5,img/B05_05.jpg,BLEND,Press J if the face is a NON-BLEND and K if the face is a BLEND,A blend is a computer-generated image created by combining together multiple photos of real human faces. A non-blend is a regular photo of a human face.,KJ,,,,,,,,,,,,,,,,,,,,,,,,,,,,,,,,,,,,,,,,,,,,,,,,,,,,,,,,,,,,,,2,0.6279,,,,,,,,,,,,,,0,5,5,49,1,,,,,,,,,,,,,space,0.7423,,,,,,,,,,,,,,,,,,,,,,,,,,,,,,,,,,,,,,,,,,,,,,,,,,,,,,,,,,,,,,,,,
,,,,597823,001,2023-10-10_24h51.10.815,fluency,2022.2.4,Win32,60.64281383,,,,,,,,,,,,,,,,,,,,,,,3,8,img/B08_03.jpg,BLEND,Press J if the face is a NON-BLEND and K if the face is a BLEND,A blend is a computer-generated image created by combining together multiple photos of real human faces. A non-blend is a regular photo of a human face.,KJ,,,,,,,,,,,,,,,,,,,,,,,,,,,,,,,,,,,,,,,,,,,,,,,,,,,,,,,,,,,,,,,,,,,,,,,,,,,,235.9902,0,6,6,80,1,109,0,0,0,0,1,98,,,,,,,,,,,,,,,,,,,,,,,,,,,,,,,,,,,,,,,,,,,,,,,,,,,,,,,,,,,,,,,,,,,,,,,,
,,,,597823,001,2023-10-10_24h51.10.815,fluency,2022.2.4,Win32,60.64281383,,,,,,,,,,,,,,,,,,,,,,,,,,,,,,,,,,,,,,,,,,,,,,,,,,,,,,,,,,,,,,,,,,,,,,,,,,,,,,,,,,,,,,,,,,,,,,,,,,,,,,,,,,,,,,,,0,0,0,0,1,,"[""k""]",[0.9510000000000218],2,"[""k""]",[0.9508999999761443],,,,,,,,,,,,,,,,,,,,,,,,,,,,,,,,,,,,,,,,,,,,,,,,,,,,,,,,,,,,,,,,,,,
,,,,597823,001,2023-10-10_24h51.10.815,fluency,2022.2.4,Win32,60.64281383,,,,,,,,,,,,,,,,,,,,,,,3,8,img/B08_03.jpg,BLEND,Press J if the face is a NON-BLEND and K if the face is a BLEND,A blend is a computer-generated image created by combining together multiple photos of real human faces. A non-blend is a regular photo of a human face.,KJ,,,,,,,,,,,,,,,,,,,,,,,,,,,,,,,,,,,,,,,,,,,,,,,,,,,,,,,,,,,,,,1,0.5039,,,,,,,,,,,,,,0,6,6,80,1,,,,,,,,,,,,,space,0.8318,,,,,,,,,,,,,,,,,,,,,,,,,,,,,,,,,,,,,,,,,,,,,,,,,,,,,,,,,,,,,,,,,
,,,,597823,001,2023-10-10_24h51.10.815,fluency,2022.2.4,Win32,60.64281383,,,,,,,,,,,,,,,,,,,,,,,7,7,img/B07_07.jpg,BLEND,Press J if the face is a NON-BLEND and K if the face is a BLEND,A blend is a computer-generated image created by combining together multiple photos of real human faces. A non-blend is a regular photo of a human face.,KJ,,,,,,,,,,,,,,,,,,,,,,,,,,,,,,,,,,,,,,,,,,,,,,,,,,,,,,,,,,,,,,,,,,,,,,,,,,,,242.4559,0,7,7,73,1,109,0,0,0,0,1,98,,,,,,,,,,,,,,,,,,,,,,,,,,,,,,,,,,,,,,,,,,,,,,,,,,,,,,,,,,,,,,,,,,,,,,,,
,,,,597823,001,2023-10-10_24h51.10.815,fluency,2022.2.4,Win32,60.64281383,,,,,,,,,,,,,,,,,,,,,,,,,,,,,,,,,,,,,,,,,,,,,,,,,,,,,,,,,,,,,,,,,,,,,,,,,,,,,,,,,,,,,,,,,,,,,,,,,,,,,,,,,,,,,,,,0,0,0,0,1,,"[""j""]",[1.454200000047706],2,"[""j""]",[1.4542999999522976],,,,,,,,,,,,,,,,,,,,,,,,,,,,,,,,,,,,,,,,,,,,,,,,,,,,,,,,,,,,,,,,,,,
,,,,597823,001,2023-10-10_24h51.10.815,fluency,2022.2.4,Win32,60.64281383,,,,,,,,,,,,,,,,,,,,,,,7,7,img/B07_07.jpg,BLEND,Press J if the face is a NON-BLEND and K if the face is a BLEND,A blend is a computer-generated image created by combining together multiple photos of real human faces. A non-blend is a regular photo of a human face.,KJ,,,,,,,,,,,,,,,,,,,,,,,,,,,,,,,,,,,,,,,,,,,,,,,,,,,,,,,,,,,,,,6,0.3489,,,,,,,,,,,,,,0,7,7,73,1,,,,,,,,,,,,,space,0.7437,,,,,,,,,,,,,,,,,,,,,,,,,,,,,,,,,,,,,,,,,,,,,,,,,,,,,,,,,,,,,,,,,
,,,,597823,001,2023-10-10_24h51.10.815,fluency,2022.2.4,Win32,60.64281383,,,,,,,,,,,,,,,,,,,,,,,6,3,img/B03_06.jpg,BLEND,Press J if the face is a NON-BLEND and K if the face is a BLEND,A blend is a computer-generated image created by combining together multiple photos of real human faces. A non-blend is a regular photo of a human face.,KJ,,,,,,,,,,,,,,,,,,,,,,,,,,,,,,,,,,,,,,,,,,,,,,,,,,,,,,,,,,,,,,,,,,,,,,,,,,,,247.6721,0,8,8,28,1,109,0,0,0,0,1,98,,,,,,,,,,,,,,,,,,,,,,,,,,,,,,,,,,,,,,,,,,,,,,,,,,,,,,,,,,,,,,,,,,,,,,,,
,,,,597823,001,2023-10-10_24h51.10.815,fluency,2022.2.4,Win32,60.64281383,,,,,,,,,,,,,,,,,,,,,,,,,,,,,,,,,,,,,,,,,,,,,,,,,,,,,,,,,,,,,,,,,,,,,,,,,,,,,,,,,,,,,,,,,,,,,,,,,,,,,,,,,,,,,,,,0,0,0,0,1,,"[""j""]",[2.060799999952337],2,"[""j""]",[2.060799999952337],,,,,,,,,,,,,,,,,,,,,,,,,,,,,,,,,,,,,,,,,,,,,,,,,,,,,,,,,,,,,,,,,,,
,,,,597823,001,2023-10-10_24h51.10.815,fluency,2022.2.4,Win32,60.64281383,,,,,,,,,,,,,,,,,,,,,,,6,3,img/B03_06.jpg,BLEND,Press J if the face is a NON-BLEND and K if the face is a BLEND,A blend is a computer-generated image created by combining together multiple photos of real human faces. A non-blend is a regular photo of a human face.,KJ,,,,,,,,,,,,,,,,,,,,,,,,,,,,,,,,,,,,,,,,,,,,,,,,,,,,,,,,,,,,,,5,0.5456,,,,,,,,,,,,,,0,8,8,28,1,,,,,,,,,,,,,space,0.6374,,,,,,,,,,,,,,,,,,,,,,,,,,,,,,,,,,,,,,,,,,,,,,,,,,,,,,,,,,,,,,,,,
,,,,597823,001,2023-10-10_24h51.10.815,fluency,2022.2.4,Win32,60.64281383,,,,,,,,,,,,,,,,,,,,,,,9,8,img/B08_09.jpg,BLEND,Press J if the face is a NON-BLEND and K if the face is a BLEND,A blend is a computer-generated image created by combining together multiple photos of real human faces. A non-blend is a regular photo of a human face.,KJ,,,,,,,,,,,,,,,,,,,,,,,,,,,,,,,,,,,,,,,,,,,,,,,,,,,,,,,,,,,,,,,,,,,,,,,,,,,,253.9856,0,9,9,86,1,109,0,0,0,0,1,98,,,,,,,,,,,,,,,,,,,,,,,,,,,,,,,,,,,,,,,,,,,,,,,,,,,,,,,,,,,,,,,,,,,,,,,,
,,,,597823,001,2023-10-10_24h51.10.815,fluency,2022.2.4,Win32,60.64281383,,,,,,,,,,,,,,,,,,,,,,,,,,,,,,,,,,,,,,,,,,,,,,,,,,,,,,,,,,,,,,,,,,,,,,,,,,,,,,,,,,,,,,,,,,,,,,,,,,,,,,,,,,,,,,,,0,0,0,0,1,,"[""k""]",[1.968600000023855],2,"[""k""]",[1.968600000023855],,,,,,,,,,,,,,,,,,,,,,,,,,,,,,,,,,,,,,,,,,,,,,,,,,,,,,,,,,,,,,,,,,,
,,,,597823,001,2023-10-10_24h51.10.815,fluency,2022.2.4,Win32,60.64281383,,,,,,,,,,,,,,,,,,,,,,,9,8,img/B08_09.jpg,BLEND,Press J if the face is a NON-BLEND and K if the face is a BLEND,A blend is a computer-generated image created by combining together multiple photos of real human faces. A non-blend is a regular photo of a human face.,KJ,,,,,,,,,,,,,,,,,,,,,,,,,,,,,,,,,,,,,,,,,,,,,,,,,,,,,,,,,,,,,,2,0.6034,,,,,,,,,,,,,,0,9,9,86,1,,,,,,,,,,,,,space,0.5998,,,,,,,,,,,,,,,,,,,,,,,,,,,,,,,,,,,,,,,,,,,,,,,,,,,,,,,,,,,,,,,,,
,,,,597823,001,2023-10-10_24h51.10.815,fluency,2022.2.4,Win32,60.64281383,,,,,,,,,,,,,,,,,,,,,,,4,8,img/B08_04.jpg,BLEND,Press J if the face is a NON-BLEND and K if the face is a BLEND,A blend is a computer-generated image created by combining together multiple photos of real human faces. A non-blend is a regular photo of a human face.,KJ,,,,,,,,,,,,,,,,,,,,,,,,,,,,,,,,,,,,,,,,,,,,,,,,,,,,,,,,,,,,,,,,,,,,,,,,,,,,260.2854,0,10,10,81,1,109,0,0,0,0,1,98,,,,,,,,,,,,,,,,,,,,,,,,,,,,,,,,,,,,,,,,,,,,,,,,,,,,,,,,,,,,,,,,,,,,,,,,
,,,,597823,001,2023-10-10_24h51.10.815,fluency,2022.2.4,Win32,60.64281383,,,,,,,,,,,,,,,,,,,,,,,,,,,,,,,,,,,,,,,,,,,,,,,,,,,,,,,,,,,,,,,,,,,,,,,,,,,,,,,,,,,,,,,,,,,,,,,,,,,,,,,,,,,,,,,,0,0,0,0,1,,"[""k""]",[0.9551000000238901],2,"[""k""]",[0.9551000000238901],,,,,,,,,,,,,,,,,,,,,,,,,,,,,,,,,,,,,,,,,,,,,,,,,,,,,,,,,,,,,,,,,,,
,,,,597823,001,2023-10-10_24h51.10.815,fluency,2022.2.4,Win32,60.64281383,,,,,,,,,,,,,,,,,,,,,,,4,8,img/B08_04.jpg,BLEND,Press J if the face is a NON-BLEND and K if the face is a BLEND,A blend is a computer-generated image created by combining together multiple photos of real human faces. A non-blend is a regular photo of a human face.,KJ,,,,,,,,,,,,,,,,,,,,,,,,,,,,,,,,,,,,,,,,,,,,,,,,,,,,,,,,,,,,,,1,0.3805,,,,,,,,,,,,,,0,10,10,81,1,,,,,,,,,,,,,space,0.7007,,,,,,,,,,,,,,,,,,,,,,,,,,,,,,,,,,,,,,,,,,,,,,,,,,,,,,,,,,,,,,,,,
,,,,597823,001,2023-10-10_24h51.10.815,fluency,2022.2.4,Win32,60.64281383,,,,,,,,,,,,,,,,,,,,,,,1,6,img/B06_01.jpg,BLEND,Press J if the face is a NON-BLEND and K if the face is a BLEND,A blend is a computer-generated image created by combining together multiple photos of real human faces. A non-blend is a regular photo of a human face.,KJ,,,,,,,,,,,,,,,,,,,,,,,,,,,,,,,,,,,,,,,,,,,,,,,,,,,,,,,,,,,,,,,,,,,,,,,,,,,,265.4843,0,11,11,56,1,109,0,0,0,0,1,98,,,,,,,,,,,,,,,,,,,,,,,,,,,,,,,,,,,,,,,,,,,,,,,,,,,,,,,,,,,,,,,,,,,,,,,,
,,,,597823,001,2023-10-10_24h51.10.815,fluency,2022.2.4,Win32,60.64281383,,,,,,,,,,,,,,,,,,,,,,,,,,,,,,,,,,,,,,,,,,,,,,,,,,,,,,,,,,,,,,,,,,,,,,,,,,,,,,,,,,,,,,,,,,,,,,,,,,,,,,,,,,,,,,,,0,0,0,0,1,,"[""j""]",[1.6580000000000155],2,"[""j""]",[1.6579999999999586],,,,,,,,,,,,,,,,,,,,,,,,,,,,,,,,,,,,,,,,,,,,,,,,,,,,,,,,,,,,,,,,,,,
,,,,597823,001,2023-10-10_24h51.10.815,fluency,2022.2.4,Win32,60.64281383,,,,,,,,,,,,,,,,,,,,,,,1,6,img/B06_01.jpg,BLEND,Press J if the face is a NON-BLEND and K if the face is a BLEND,A blend is a computer-generated image created by combining together multiple photos of real human faces. A non-blend is a regular photo of a human face.,KJ,,,,,,,,,,,,,,,,,,,,,,,,,,,,,,,,,,,,,,,,,,,,,,,,,,,,,,,,,,,,,,3,0.7145,,,,,,,,,,,,,,0,11,11,56,1,,,,,,,,,,,,,space,0.5867,,,,,,,,,,,,,,,,,,,,,,,,,,,,,,,,,,,,,,,,,,,,,,,,,,,,,,,,,,,,,,,,,
,,,,597823,001,2023-10-10_24h51.10.815,fluency,2022.2.4,Win32,60.64281383,,,,,,,,,,,,,,,,,,,,,,,10,4,img/B04_10.jpg,BLEND,Press J if the face is a NON-BLEND and K if the face is a BLEND,A blend is a computer-generated image created by combining together multiple photos of real human faces. A non-blend is a regular photo of a human face.,KJ,,,,,,,,,,,,,,,,,,,,,,,,,,,,,,,,,,,,,,,,,,,,,,,,,,,,,,,,,,,,,,,,,,,,,,,,,,,,270.9167,0,12,12,43,1,109,0,0,0,0,1,98,,,,,,,,,,,,,,,,,,,,,,,,,,,,,,,,,,,,,,,,,,,,,,,,,,,,,,,,,,,,,,,,,,,,,,,,
,,,,597823,001,2023-10-10_24h51.10.815,fluency,2022.2.4,Win32,60.64281383,,,,,,,,,,,,,,,,,,,,,,,,,,,,,,,,,,,,,,,,,,,,,,,,,,,,,,,,,,,,,,,,,,,,,,,,,,,,,,,,,,,,,,,,,,,,,,,,,,,,,,,,,,,,,,,,0,0,0,0,1,,"[""k""]",[1.1683999999761454],2,"[""k""]",[1.1683000000715538],,,,,,,,,,,,,,,,,,,,,,,,,,,,,,,,,,,,,,,,,,,,,,,,,,,,,,,,,,,,,,,,,,,
,,,,597823,001,2023-10-10_24h51.10.815,fluency,2022.2.4,Win32,60.64281383,,,,,,,,,,,,,,,,,,,,,,,10,4,img/B04_10.jpg,BLEND,Press J if the face is a NON-BLEND and K if the face is a BLEND,A blend is a computer-generated image created by combining together multiple photos of real human faces. A non-blend is a regular photo of a human face.,KJ,,,,,,,,,,,,,,,,,,,,,,,,,,,,,,,,,,,,,,,,,,,,,,,,,,,,,,,,,,,,,,1,0.3436,,,,,,,,,,,,,,0,12,12,43,1,,,,,,,,,,,,,space,0.7255,,,,,,,,,,,,,,,,,,,,,,,,,,,,,,,,,,,,,,,,,,,,,,,,,,,,,,,,,,,,,,,,,
,,,,597823,001,2023-10-10_24h51.10.815,fluency,2022.2.4,Win32,60.64281383,,,,,,,,,,,,,,,,,,,,,,,2,6,img/B06_02.jpg,BLEND,Press J if the face is a NON-BLEND and K if the face is a BLEND,A blend is a computer-generated image created by combining together multiple photos of real human faces. A non-blend is a regular photo of a human face.,KJ,,,,,,,,,,,,,,,,,,,,,,,,,,,,,,,,,,,,,,,,,,,,,,,,,,,,,,,,,,,,,,,,,,,,,,,,,,,,277.0986,0,13,13,57,1,109,0,0,0,0,1,98,,,,,,,,,,,,,,,,,,,,,,,,,,,,,,,,,,,,,,,,,,,,,,,,,,,,,,,,,,,,,,,,,,,,,,,,
,,,,597823,001,2023-10-10_24h51.10.815,fluency,2022.2.4,Win32,60.64281383,,,,,,,,,,,,,,,,,,,,,,,,,,,,,,,,,,,,,,,,,,,,,,,,,,,,,,,,,,,,,,,,,,,,,,,,,,,,,,,,,,,,,,,,,,,,,,,,,,,,,,,,,,,,,,,,0,0,0,0,1,,"[""j""]",[1.3716000000238182],2,"[""j""]",[1.371499999999969],,,,,,,,,,,,,,,,,,,,,,,,,,,,,,,,,,,,,,,,,,,,,,,,,,,,,,,,,,,,,,,,,,,
,,,,597823,001,2023-10-10_24h51.10.815,fluency,2022.2.4,Win32,60.64281383,,,,,,,,,,,,,,,,,,,,,,,2,6,img/B06_02.jpg,BLEND,Press J if the face is a NON-BLEND and K if the face is a BLEND,A blend is a computer-generated image created by combining together multiple photos of real human faces. A non-blend is a regular photo of a human face.,KJ,,,,,,,,,,,,,,,,,,,,,,,,,,,,,,,,,,,,,,,,,,,,,,,,,,,,,,,,,,,,,,3,0.3134,,,,,,,,,,,,,,0,13,13,57,1,,,,,,,,,,,,,space,0.5675,,,,,,,,,,,,,,,,,,,,,,,,,,,,,,,,,,,,,,,,,,,,,,,,,,,,,,,,,,,,,,,,,
,,,,597823,001,2023-10-10_24h51.10.815,fluency,2022.2.4,Win32,60.64281383,,,,,,,,,,,,,,,,,,,,,,,5,1,img/B01_05.jpg,BLEND,Press J if the face is a NON-BLEND and K if the face is a BLEND,A blend is a computer-generated image created by combining together multiple photos of real human faces. A non-blend is a regular photo of a human face.,KJ,,,,,,,,,,,,,,,,,,,,,,,,,,,,,,,,,,,,,,,,,,,,,,,,,,,,,,,,,,,,,,,,,,,,,,,,,,,,282.0625,0,14,14,5,1,109,0,0,0,0,1,98,,,,,,,,,,,,,,,,,,,,,,,,,,,,,,,,,,,,,,,,,,,,,,,,,,,,,,,,,,,,,,,,,,,,,,,,
,,,,597823,001,2023-10-10_24h51.10.815,fluency,2022.2.4,Win32,60.64281383,,,,,,,,,,,,,,,,,,,,,,,,,,,,,,,,,,,,,,,,,,,,,,,,,,,,,,,,,,,,,,,,,,,,,,,,,,,,,,,,,,,,,,,,,,,,,,,,,,,,,,,,,,,,,,,,0,0,0,0,1,,"[""k""]",[0.7504999999999882],2,"[""k""]",[0.7506000000238373],,,,,,,,,,,,,,,,,,,,,,,,,,,,,,,,,,,,,,,,,,,,,,,,,,,,,,,,,,,,,,,,,,,
,,,,597823,001,2023-10-10_24h51.10.815,fluency,2022.2.4,Win32,60.64281383,,,,,,,,,,,,,,,,,,,,,,,5,1,img/B01_05.jpg,BLEND,Press J if the face is a NON-BLEND and K if the face is a BLEND,A blend is a computer-generated image created by combining together multiple photos of real human faces. A non-blend is a regular photo of a human face.,KJ,,,,,,,,,,,,,,,,,,,,,,,,,,,,,,,,,,,,,,,,,,,,,,,,,,,,,,,,,,,,,,2,0.3701,,,,,,,,,,,,,,0,14,14,5,1,,,,,,,,,,,,,space,0.4298,,,,,,,,,,,,,,,,,,,,,,,,,,,,,,,,,,,,,,,,,,,,,,,,,,,,,,,,,,,,,,,,,
,,,,597823,001,2023-10-10_24h51.10.815,fluency,2022.2.4,Win32,60.64281383,,,,,,,,,,,,,,,,,,,,,,,0,10,img/B10_00.jpg,BLEND,Press J if the face is a NON-BLEND and K if the face is a BLEND,A blend is a computer-generated image created by combining together multiple photos of real human faces. A non-blend is a regular photo of a human face.,KJ,,,,,,,,,,,,,,,,,,,,,,,,,,,,,,,,,,,,,,,,,,,,,,,,,,,,,,,,,,,,,,,,,,,,,,,,,,,,287.9784,0,15,15,99,1,109,0,0,0,0,1,98,,,,,,,,,,,,,,,,,,,,,,,,,,,,,,,,,,,,,,,,,,,,,,,,,,,,,,,,,,,,,,,,,,,,,,,,
,,,,597823,001,2023-10-10_24h51.10.815,fluency,2022.2.4,Win32,60.64281383,,,,,,,,,,,,,,,,,,,,,,,,,,,,,,,,,,,,,,,,,,,,,,,,,,,,,,,,,,,,,,,,,,,,,,,,,,,,,,,,,,,,,,,,,,,,,,,,,,,,,,,,,,,,,,,,0,0,0,0,1,,"[""j""]",[1.0843999999761422],2,"[""j""]",[1.0843999999761422],,,,,,,,,,,,,,,,,,,,,,,,,,,,,,,,,,,,,,,,,,,,,,,,,,,,,,,,,,,,,,,,,,,
,,,,597823,001,2023-10-10_24h51.10.815,fluency,2022.2.4,Win32,60.64281383,,,,,,,,,,,,,,,,,,,,,,,0,10,img/B10_00.jpg,BLEND,Press J if the face is a NON-BLEND and K if the face is a BLEND,A blend is a computer-generated image created by combining together multiple photos of real human faces. A non-blend is a regular photo of a human face.,KJ,,,,,,,,,,,,,,,,,,,,,,,,,,,,,,,,,,,,,,,,,,,,,,,,,,,,,,,,,,,,,,8,0.4429,,,,,,,,,,,,,,0,15,15,99,1,,,,,,,,,,,,,space,0.5264,,,,,,,,,,,,,,,,,,,,,,,,,,,,,,,,,,,,,,,,,,,,,,,,,,,,,,,,,,,,,,,,,
,,,,597823,001,2023-10-10_24h51.10.815,fluency,2022.2.4,Win32,60.64281383,,,,,,,,,,,,,,,,,,,,,,,7,6,img/B06_07.jpg,BLEND,Press J if the face is a NON-BLEND and K if the face is a BLEND,A blend is a computer-generated image created by combining together multiple photos of real human faces. A non-blend is a regular photo of a human face.,KJ,,,,,,,,,,,,,,,,,,,,,,,,,,,,,,,,,,,,,,,,,,,,,,,,,,,,,,,,,,,,,,,,,,,,,,,,,,,,293.1123,0,16,16,62,1,109,0,0,0,0,1,98,,,,,,,,,,,,,,,,,,,,,,,,,,,,,,,,,,,,,,,,,,,,,,,,,,,,,,,,,,,,,,,,,,,,,,,,
,,,,597823,001,2023-10-10_24h51.10.815,fluency,2022.2.4,Win32,60.64281383,,,,,,,,,,,,,,,,,,,,,,,,,,,,,,,,,,,,,,,,,,,,,,,,,,,,,,,,,,,,,,,,,,,,,,,,,,,,,,,,,,,,,,,,,,,,,,,,,,,,,,,,,,,,,,,,0,0,0,0,1,,"[""k""]",[1.7839000000953433],2,"[""k""]",[1.7837999999522935],,,,,,,,,,,,,,,,,,,,,,,,,,,,,,,,,,,,,,,,,,,,,,,,,,,,,,,,,,,,,,,,,,,
,,,,597823,001,2023-10-10_24h51.10.815,fluency,2022.2.4,Win32,60.64281383,,,,,,,,,,,,,,,,,,,,,,,7,6,img/B06_07.jpg,BLEND,Press J if the face is a NON-BLEND and K if the face is a BLEND,A blend is a computer-generated image created by combining together multiple photos of real human faces. A non-blend is a regular photo of a human face.,KJ,,,,,,,,,,,,,,,,,,,,,,,,,,,,,,,,,,,,,,,,,,,,,,,,,,,,,,,,,,,,,,3,1.1393,,,,,,,,,,,,,,0,16,16,62,1,,,,,,,,,,,,,space,0.3806,,,,,,,,,,,,,,,,,,,,,,,,,,,,,,,,,,,,,,,,,,,,,,,,,,,,,,,,,,,,,,,,,
,,,,597823,001,2023-10-10_24h51.10.815,fluency,2022.2.4,Win32,60.64281383,,,,,,,,,,,,,,,,,,,,,,,2,10,img/B10_02.jpg,BLEND,Press J if the face is a NON-BLEND and K if the face is a BLEND,A blend is a computer-generated image created by combining together multiple photos of real human faces. A non-blend is a regular photo of a human face.,KJ,,,,,,,,,,,,,,,,,,,,,,,,,,,,,,,,,,,,,,,,,,,,,,,,,,,,,,,,,,,,,,,,,,,,,,,,,,,,298.7283,0,17,17,101,1,109,0,0,0,0,1,98,,,,,,,,,,,,,,,,,,,,,,,,,,,,,,,,,,,,,,,,,,,,,,,,,,,,,,,,,,,,,,,,,,,,,,,,
,,,,597823,001,2023-10-10_24h51.10.815,fluency,2022.2.4,Win32,60.64281383,,,,,,,,,,,,,,,,,,,,,,,,,,,,,,,,,,,,,,,,,,,,,,,,,,,,,,,,,,,,,,,,,,,,,,,,,,,,,,,,,,,,,,,,,,,,,,,,,,,,,,,,,,,,,,,,0,0,0,0,1,,"[""k""]",[0.9105000000000132],2,"[""k""]",[0.910399999976164],,,,,,,,,,,,,,,,,,,,,,,,,,,,,,,,,,,,,,,,,,,,,,,,,,,,,,,,,,,,,,,,,,,
,,,,597823,001,2023-10-10_24h51.10.815,fluency,2022.2.4,Win32,60.64281383,,,,,,,,,,,,,,,,,,,,,,,2,10,img/B10_02.jpg,BLEND,Press J if the face is a NON-BLEND and K if the face is a BLEND,A blend is a computer-generated image created by combining together multiple photos of real human faces. A non-blend is a regular photo of a human face.,KJ,,,,,,,,,,,,,,,,,,,,,,,,,,,,,,,,,,,,,,,,,,,,,,,,,,,,,,,,,,,,,,6,1.8503,,,,,,,,,,,,,,0,17,17,101,1,,,,,,,,,,,,,space,0.6982,,,,,,,,,,,,,,,,,,,,,,,,,,,,,,,,,,,,,,,,,,,,,,,,,,,,,,,,,,,,,,,,,
,,,,597823,001,2023-10-10_24h51.10.815,fluency,2022.2.4,Win32,60.64281383,,,,,,,,,,,,,,,,,,,,,,,8,5,img/B05_08.jpg,BLEND,Press J if the face is a NON-BLEND and K if the face is a BLEND,A blend is a computer-generated image created by combining together multiple photos of real human faces. A non-blend is a regular photo of a human face.,KJ,,,,,,,,,,,,,,,,,,,,,,,,,,,,,,,,,,,,,,,,,,,,,,,,,,,,,,,,,,,,,,,,,,,,,,,,,,,,305.4439,0,18,18,52,1,109,0,0,0,0,1,98,,,,,,,,,,,,,,,,,,,,,,,,,,,,,,,,,,,,,,,,,,,,,,,,,,,,,,,,,,,,,,,,,,,,,,,,
,,,,597823,001,2023-10-10_24h51.10.815,fluency,2022.2.4,Win32,60.64281383,,,,,,,,,,,,,,,,,,,,,,,,,,,,,,,,,,,,,,,,,,,,,,,,,,,,,,,,,,,,,,,,,,,,,,,,,,,,,,,,,,,,,,,,,,,,,,,,,,,,,,,,,,,,,,,,0,0,0,0,1,,"[""k""]",[0.8071000000238655],2,"[""k"",""3""]","[0.8069999999999595,2.8971000000238405]",,,,,,,,,,,,,,,,,,,,,,,,,,,,,,,,,,,,,,,,,,,,,,,,,,,,,,,,,,,,,,,,,,,
,,,,597823,001,2023-10-10_24h51.10.815,fluency,2022.2.4,Win32,60.64281383,,,,,,,,,,,,,,,,,,,,,,,8,5,img/B05_08.jpg,BLEND,Press J if the face is a NON-BLEND and K if the face is a BLEND,A blend is a computer-generated image created by combining together multiple photos of real human faces. A non-blend is a regular photo of a human face.,KJ,,,,,,,,,,,,,,,,,,,,,,,,,,,,,,,,,,,,,,,,,,,,,,,,,,,,,,,,,,,,,,3,0.5788,,,,,,,,,,,,,,0,18,18,52,1,,,,,,,,,,,,,space,0.5943,,,,,,,,,,,,,,,,,,,,,,,,,,,,,,,,,,,,,,,,,,,,,,,,,,,,,,,,,,,,,,,,,
,,,,597823,001,2023-10-10_24h51.10.815,fluency,2022.2.4,Win32,60.64281383,,,,,,,,,,,,,,,,,,,,,,,2,3,img/B03_02.jpg,BLEND,Press J if the face is a NON-BLEND and K if the face is a BLEND,A blend is a computer-generated image created by combining together multiple photos of real human faces. A non-blend is a regular photo of a human face.,KJ,,,,,,,,,,,,,,,,,,,,,,,,,,,,,,,,,,,,,,,,,,,,,,,,,,,,,,,,,,,,,,,,,,,,,,,,,,,,310.7566,0,19,19,24,1,109,0,0,0,0,1,98,,,,,,,,,,,,,,,,,,,,,,,,,,,,,,,,,,,,,,,,,,,,,,,,,,,,,,,,,,,,,,,,,,,,,,,,
,,,,597823,001,2023-10-10_24h51.10.815,fluency,2022.2.4,Win32,60.64281383,,,,,,,,,,,,,,,,,,,,,,,,,,,,,,,,,,,,,,,,,,,,,,,,,,,,,,,,,,,,,,,,,,,,,,,,,,,,,,,,,,,,,,,,,,,,,,,,,,,,,,,,,,,,,,,,0,0,0,0,1,,"[""k""]",[1.0933000000715083],2,"[""k""]",[1.0933000000715083],,,,,,,,,,,,,,,,,,,,,,,,,,,,,,,,,,,,,,,,,,,,,,,,,,,,,,,,,,,,,,,,,,,
,,,,597823,001,2023-10-10_24h51.10.815,fluency,2022.2.4,Win32,60.64281383,,,,,,,,,,,,,,,,,,,,,,,2,3,img/B03_02.jpg,BLEND,Press J if the face is a NON-BLEND and K if the face is a BLEND,A blend is a computer-generated image created by combining together multiple photos of real human faces. A non-blend is a regular photo of a human face.,KJ,,,,,,,,,,,,,,,,,,,,,,,,,,,,,,,,,,,,,,,,,,,,,,,,,,,,,,,,,,,,,,7,0.3269,,,,,,,,,,,,,,0,19,19,24,1,,,,,,,,,,,,,space,0.4515,,,,,,,,,,,,,,,,,,,,,,,,,,,,,,,,,,,,,,,,,,,,,,,,,,,,,,,,,,,,,,,,,
,,,,597823,001,2023-10-10_24h51.10.815,fluency,2022.2.4,Win32,60.64281383,,,,,,,,,,,,,,,,,,,,,,,8,1,img/B01_08.jpg,BLEND,Press J if the face is a NON-BLEND and K if the face is a BLEND,A blend is a computer-generated image created by combining together multiple photos of real human faces. A non-blend is a regular photo of a human face.,KJ,,,,,,,,,,,,,,,,,,,,,,,,,,,,,,,,,,,,,,,,,,,,,,,,,,,,,,,,,,,,,,,,,,,,,,,,,,,,315.6225,0,20,20,8,1,109,0,0,0,0,1,98,,,,,,,,,,,,,,,,,,,,,,,,,,,,,,,,,,,,,,,,,,,,,,,,,,,,,,,,,,,,,,,,,,,,,,,,
,,,,597823,001,2023-10-10_24h51.10.815,fluency,2022.2.4,Win32,60.64281383,,,,,,,,,,,,,,,,,,,,,,,,,,,,,,,,,,,,,,,,,,,,,,,,,,,,,,,,,,,,,,,,,,,,,,,,,,,,,,,,,,,,,,,,,,,,,,,,,,,,,,,,,,,,,,,,0,0,0,0,1,,"[""k""]",[0.952699999928484],2,"[""k""]",[0.952699999928484],,,,,,,,,,,,,,,,,,,,,,,,,,,,,,,,,,,,,,,,,,,,,,,,,,,,,,,,,,,,,,,,,,,
,,,,597823,001,2023-10-10_24h51.10.815,fluency,2022.2.4,Win32,60.64281383,,,,,,,,,,,,,,,,,,,,,,,8,1,img/B01_08.jpg,BLEND,Press J if the face is a NON-BLEND and K if the face is a BLEND,A blend is a computer-generated image created by combining together multiple photos of real human faces. A non-blend is a regular photo of a human face.,KJ,,,,,,,,,,,,,,,,,,,,,,,,,,,,,,,,,,,,,,,,,,,,,,,,,,,,,,,,,,,,,,3,0.2588,,,,,,,,,,,,,,0,20,20,8,1,,,,,,,,,,,,,space,0.3851,,,,,,,,,,,,,,,,,,,,,,,,,,,,,,,,,,,,,,,,,,,,,,,,,,,,,,,,,,,,,,,,,
,,,,597823,001,2023-10-10_24h51.10.815,fluency,2022.2.4,Win32,60.64281383,,,,,,,,,,,,,,,,,,,,,,,8,10,img/B10_08.jpg,BLEND,Press J if the face is a NON-BLEND and K if the face is a BLEND,A blend is a computer-generated image created by combining together multiple photos of real human faces. A non-blend is a regular photo of a human face.,KJ,,,,,,,,,,,,,,,,,,,,,,,,,,,,,,,,,,,,,,,,,,,,,,,,,,,,,,,,,,,,,,,,,,,,,,,,,,,,321.3401,0,21,21,107,1,109,0,0,0,0,1,98,,,,,,,,,,,,,,,,,,,,,,,,,,,,,,,,,,,,,,,,,,,,,,,,,,,,,,,,,,,,,,,,,,,,,,,,
,,,,597823,001,2023-10-10_24h51.10.815,fluency,2022.2.4,Win32,60.64281383,,,,,,,,,,,,,,,,,,,,,,,,,,,,,,,,,,,,,,,,,,,,,,,,,,,,,,,,,,,,,,,,,,,,,,,,,,,,,,,,,,,,,,,,,,,,,,,,,,,,,,,,,,,,,,,,0,0,0,0,1,,"[""k""]",[0.877200000047651],2,"[""k""]",[0.8766999999284621],,,,,,,,,,,,,,,,,,,,,,,,,,,,,,,,,,,,,,,,,,,,,,,,,,,,,,,,,,,,,,,,,,,
,,,,597823,001,2023-10-10_24h51.10.815,fluency,2022.2.4,Win32,60.64281383,,,,,,,,,,,,,,,,,,,,,,,8,10,img/B10_08.jpg,BLEND,Press J if the face is a NON-BLEND and K if the face is a BLEND,A blend is a computer-generated image created by combining together multiple photos of real human faces. A non-blend is a regular photo of a human face.,KJ,,,,,,,,,,,,,,,,,,,,,,,,,,,,,,,,,,,,,,,,,,,,,,,,,,,,,,,,,,,,,,2,0.324,,,,,,,,,,,,,,0,21,21,107,1,,,,,,,,,,,,,space,0.4723,,,,,,,,,,,,,,,,,,,,,,,,,,,,,,,,,,,,,,,,,,,,,,,,,,,,,,,,,,,,,,,,,
,,,,597823,001,2023-10-10_24h51.10.815,fluency,2022.2.4,Win32,60.64281383,,,,,,,,,,,,,,,,,,,,,,,4,7,img/B07_04.jpg,BLEND,Press J if the face is a NON-BLEND and K if the face is a BLEND,A blend is a computer-generated image created by combining together multiple photos of real human faces. A non-blend is a regular photo of a human face.,KJ,,,,,,,,,,,,,,,,,,,,,,,,,,,,,,,,,,,,,,,,,,,,,,,,,,,,,,,,,,,,,,,,,,,,,,,,,,,,326.2563,0,22,22,70,1,109,0,0,0,0,1,98,,,,,,,,,,,,,,,,,,,,,,,,,,,,,,,,,,,,,,,,,,,,,,,,,,,,,,,,,,,,,,,,,,,,,,,,
,,,,597823,001,2023-10-10_24h51.10.815,fluency,2022.2.4,Win32,60.64281383,,,,,,,,,,,,,,,,,,,,,,,,,,,,,,,,,,,,,,,,,,,,,,,,,,,,,,,,,,,,,,,,,,,,,,,,,,,,,,,,,,,,,,,,,,,,,,,,,,,,,,,,,,,,,,,,0,0,0,0,1,,"[""k""]",[0.9792000000476833],2,"[""k""]",[0.9790000000000418],,,,,,,,,,,,,,,,,,,,,,,,,,,,,,,,,,,,,,,,,,,,,,,,,,,,,,,,,,,,,,,,,,,
,,,,597823,001,2023-10-10_24h51.10.815,fluency,2022.2.4,Win32,60.64281383,,,,,,,,,,,,,,,,,,,,,,,4,7,img/B07_04.jpg,BLEND,Press J if the face is a NON-BLEND and K if the face is a BLEND,A blend is a computer-generated image created by combining together multiple photos of real human faces. A non-blend is a regular photo of a human face.,KJ,,,,,,,,,,,,,,,,,,,,,,,,,,,,,,,,,,,,,,,,,,,,,,,,,,,,,,,,,,,,,,2,0.3971,,,,,,,,,,,,,,0,22,22,70,1,,,,,,,,,,,,,space,0.4076,,,,,,,,,,,,,,,,,,,,,,,,,,,,,,,,,,,,,,,,,,,,,,,,,,,,,,,,,,,,,,,,,
,,,,597823,001,2023-10-10_24h51.10.815,fluency,2022.2.4,Win32,60.64281383,,,,,,,,,,,,,,,,,,,,,,,1,8,img/B08_01.jpg,BLEND,Press J if the face is a NON-BLEND and K if the face is a BLEND,A blend is a computer-generated image created by combining together multiple photos of real human faces. A non-blend is a regular photo of a human face.,KJ,,,,,,,,,,,,,,,,,,,,,,,,,,,,,,,,,,,,,,,,,,,,,,,,,,,,,,,,,,,,,,,,,,,,,,,,,,,,332.1886,0,23,23,78,1,109,0,0,0,0,1,98,,,,,,,,,,,,,,,,,,,,,,,,,,,,,,,,,,,,,,,,,,,,,,,,,,,,,,,,,,,,,,,,,,,,,,,,
,,,,597823,001,2023-10-10_24h51.10.815,fluency,2022.2.4,Win32,60.64281383,,,,,,,,,,,,,,,,,,,,,,,,,,,,,,,,,,,,,,,,,,,,,,,,,,,,,,,,,,,,,,,,,,,,,,,,,,,,,,,,,,,,,,,,,,,,,,,,,,,,,,,,,,,,,,,,0,0,0,0,1,,"[""k""]",[0.7316000000238319],2,"[""k""]",[0.7313999999761336],,,,,,,,,,,,,,,,,,,,,,,,,,,,,,,,,,,,,,,,,,,,,,,,,,,,,,,,,,,,,,,,,,,
,,,,597823,001,2023-10-10_24h51.10.815,fluency,2022.2.4,Win32,60.64281383,,,,,,,,,,,,,,,,,,,,,,,1,8,img/B08_01.jpg,BLEND,Press J if the face is a NON-BLEND and K if the face is a BLEND,A blend is a computer-generated image created by combining together multiple photos of real human faces. A non-blend is a regular photo of a human face.,KJ,,,,,,,,,,,,,,,,,,,,,,,,,,,,,,,,,,,,,,,,,,,,,,,,,,,,,,,,,,,,,,1,0.3024,,,,,,,,,,,,,,0,23,23,78,1,,,,,,,,,,,,,space,0.7146,,,,,,,,,,,,,,,,,,,,,,,,,,,,,,,,,,,,,,,,,,,,,,,,,,,,,,,,,,,,,,,,,
,,,,597823,001,2023-10-10_24h51.10.815,fluency,2022.2.4,Win32,60.64281383,,,,,,,,,,,,,,,,,,,,,,,2,2,img/B02_02.jpg,BLEND,Press J if the face is a NON-BLEND and K if the face is a BLEND,A blend is a computer-generated image created by combining together multiple photos of real human faces. A non-blend is a regular photo of a human face.,KJ,,,,,,,,,,,,,,,,,,,,,,,,,,,,,,,,,,,,,,,,,,,,,,,,,,,,,,,,,,,,,,,,,,,,,,,,,,,,337.4034,0,24,24,13,1,109,0,0,0,0,1,98,,,,,,,,,,,,,,,,,,,,,,,,,,,,,,,,,,,,,,,,,,,,,,,,,,,,,,,,,,,,,,,,,,,,,,,,
,,,,597823,001,2023-10-10_24h51.10.815,fluency,2022.2.4,Win32,60.64281383,,,,,,,,,,,,,,,,,,,,,,,,,,,,,,,,,,,,,,,,,,,,,,,,,,,,,,,,,,,,,,,,,,,,,,,,,,,,,,,,,,,,,,,,,,,,,,,,,,,,,,,,,,,,,,,,0,0,0,0,1,,"[""k""]",[0.7353999999761527],2,"[""k""]",[0.7351999999284544],,,,,,,,,,,,,,,,,,,,,,,,,,,,,,,,,,,,,,,,,,,,,,,,,,,,,,,,,,,,,,,,,,,
,,,,597823,001,2023-10-10_24h51.10.815,fluency,2022.2.4,Win32,60.64281383,,,,,,,,,,,,,,,,,,,,,,,2,2,img/B02_02.jpg,BLEND,Press J if the face is a NON-BLEND and K if the face is a BLEND,A blend is a computer-generated image created by combining together multiple photos of real human faces. A non-blend is a regular photo of a human face.,KJ,,,,,,,,,,,,,,,,,,,,,,,,,,,,,,,,,,,,,,,,,,,,,,,,,,,,,,,,,,,,,,1,0.2801,,,,,,,,,,,,,,0,24,24,13,1,,,,,,,,,,,,,space,0.2503,,,,,,,,,,,,,,,,,,,,,,,,,,,,,,,,,,,,,,,,,,,,,,,,,,,,,,,,,,,,,,,,,
,,,,597823,001,2023-10-10_24h51.10.815,fluency,2022.2.4,Win32,60.64281383,,,,,,,,,,,,,,,,,,,,,,,9,4,img/B04_09.jpg,BLEND,Press J if the face is a NON-BLEND and K if the face is a BLEND,A blend is a computer-generated image created by combining together multiple photos of real human faces. A non-blend is a regular photo of a human face.,KJ,,,,,,,,,,,,,,,,,,,,,,,,,,,,,,,,,,,,,,,,,,,,,,,,,,,,,,,,,,,,,,,,,,,,,,,,,,,,343.0002,0,25,25,42,1,109,0,0,0,0,1,98,,,,,,,,,,,,,,,,,,,,,,,,,,,,,,,,,,,,,,,,,,,,,,,,,,,,,,,,,,,,,,,,,,,,,,,,
,,,,597823,001,2023-10-10_24h51.10.815,fluency,2022.2.4,Win32,60.64281383,,,,,,,,,,,,,,,,,,,,,,,,,,,,,,,,,,,,,,,,,,,,,,,,,,,,,,,,,,,,,,,,,,,,,,,,,,,,,,,,,,,,,,,,,,,,,,,,,,,,,,,,,,,,,,,,0,0,0,0,1,,"[""k""]",[0.6807000000476933],2,"[""k""]",[0.6808000000714856],,,,,,,,,,,,,,,,,,,,,,,,,,,,,,,,,,,,,,,,,,,,,,,,,,,,,,,,,,,,,,,,,,,
,,,,597823,001,2023-10-10_24h51.10.815,fluency,2022.2.4,Win32,60.64281383,,,,,,,,,,,,,,,,,,,,,,,9,4,img/B04_09.jpg,BLEND,Press J if the face is a NON-BLEND and K if the face is a BLEND,A blend is a computer-generated image created by combining together multiple photos of real human faces. A non-blend is a regular photo of a human face.,KJ,,,,,,,,,,,,,,,,,,,,,,,,,,,,,,,,,,,,,,,,,,,,,,,,,,,,,,,,,,,,,,2,0.3589,,,,,,,,,,,,,,0,25,25,42,1,,,,,,,,,,,,,space,0.3845,,,,,,,,,,,,,,,,,,,,,,,,,,,,,,,,,,,,,,,,,,,,,,,,,,,,,,,,,,,,,,,,,
,,,,597823,001,2023-10-10_24h51.10.815,fluency,2022.2.4,Win32,60.64281383,,,,,,,,,,,,,,,,,,,,,,,5,3,img/B03_05.jpg,BLEND,Press J if the face is a NON-BLEND and K if the face is a BLEND,A blend is a computer-generated image created by combining together multiple photos of real human faces. A non-blend is a regular photo of a human face.,KJ,,,,,,,,,,,,,,,,,,,,,,,,,,,,,,,,,,,,,,,,,,,,,,,,,,,,,,,,,,,,,,,,,,,,,,,,,,,,348.8347,0,26,26,27,1,109,0,0,0,0,1,98,,,,,,,,,,,,,,,,,,,,,,,,,,,,,,,,,,,,,,,,,,,,,,,,,,,,,,,,,,,,,,,,,,,,,,,,
,,,,597823,001,2023-10-10_24h51.10.815,fluency,2022.2.4,Win32,60.64281383,,,,,,,,,,,,,,,,,,,,,,,,,,,,,,,,,,,,,,,,,,,,,,,,,,,,,,,,,,,,,,,,,,,,,,,,,,,,,,,,,,,,,,,,,,,,,,,,,,,,,,,,,,,,,,,,0,0,0,0,1,,"[""k""]",[0.7610999999046726],2,"[""k""]",[0.7588999999761086],,,,,,,,,,,,,,,,,,,,,,,,,,,,,,,,,,,,,,,,,,,,,,,,,,,,,,,,,,,,,,,,,,,
,,,,597823,001,2023-10-10_24h51.10.815,fluency,2022.2.4,Win32,60.64281383,,,,,,,,,,,,,,,,,,,,,,,5,3,img/B03_05.jpg,BLEND,Press J if the face is a NON-BLEND and K if the face is a BLEND,A blend is a computer-generated image created by combining together multiple photos of real human faces. A non-blend is a regular photo of a human face.,KJ,,,,,,,,,,,,,,,,,,,,,,,,,,,,,,,,,,,,,,,,,,,,,,,,,,,,,,,,,,,,,,4,0.3136,,,,,,,,,,,,,,0,26,26,27,1,,,,,,,,,,,,,space,0.537,,,,,,,,,,,,,,,,,,,,,,,,,,,,,,,,,,,,,,,,,,,,,,,,,,,,,,,,,,,,,,,,,
,,,,597823,001,2023-10-10_24h51.10.815,fluency,2022.2.4,Win32,60.64281383,,,,,,,,,,,,,,,,,,,,,,,10,3,img/B03_10.jpg,BLEND,Press J if the face is a NON-BLEND and K if the face is a BLEND,A blend is a computer-generated image created by combining together multiple photos of real human faces. A non-blend is a regular photo of a human face.,KJ,,,,,,,,,,,,,,,,,,,,,,,,,,,,,,,,,,,,,,,,,,,,,,,,,,,,,,,,,,,,,,,,,,,,,,,,,,,,354.7484,0,27,27,32,1,109,0,0,0,0,1,98,,,,,,,,,,,,,,,,,,,,,,,,,,,,,,,,,,,,,,,,,,,,,,,,,,,,,,,,,,,,,,,,,,,,,,,,
,,,,597823,001,2023-10-10_24h51.10.815,fluency,2022.2.4,Win32,60.64281383,,,,,,,,,,,,,,,,,,,,,,,,,,,,,,,,,,,,,,,,,,,,,,,,,,,,,,,,,,,,,,,,,,,,,,,,,,,,,,,,,,,,,,,,,,,,,,,,,,,,,,,,,,,,,,,,0,0,0,0,1,,"[""k""]",[1.0274000000953833],2,"[""k""]",[1.0275000000000318],,,,,,,,,,,,,,,,,,,,,,,,,,,,,,,,,,,,,,,,,,,,,,,,,,,,,,,,,,,,,,,,,,,
,,,,597823,001,2023-10-10_24h51.10.815,fluency,2022.2.4,Win32,60.64281383,,,,,,,,,,,,,,,,,,,,,,,10,3,img/B03_10.jpg,BLEND,Press J if the face is a NON-BLEND and K if the face is a BLEND,A blend is a computer-generated image created by combining together multiple photos of real human faces. A non-blend is a regular photo of a human face.,KJ,,,,,,,,,,,,,,,,,,,,,,,,,,,,,,,,,,,,,,,,,,,,,,,,,,,,,,,,,,,,,,3,0.7269,,,,,,,,,,,,,,0,27,27,32,1,,,,,,,,,,,,,space,0.4308,,,,,,,,,,,,,,,,,,,,,,,,,,,,,,,,,,,,,,,,,,,,,,,,,,,,,,,,,,,,,,,,,
,,,,597823,001,2023-10-10_24h51.10.815,fluency,2022.2.4,Win32,60.64281383,,,,,,,,,,,,,,,,,,,,,,,10,1,img/B01_10.jpg,BLEND,Press J if the face is a NON-BLEND and K if the face is a BLEND,A blend is a computer-generated image created by combining together multiple photos of real human faces. A non-blend is a regular photo of a human face.,KJ,,,,,,,,,,,,,,,,,,,,,,,,,,,,,,,,,,,,,,,,,,,,,,,,,,,,,,,,,,,,,,,,,,,,,,,,,,,,361.0155,0,28,28,10,1,109,0,0,0,0,1,98,,,,,,,,,,,,,,,,,,,,,,,,,,,,,,,,,,,,,,,,,,,,,,,,,,,,,,,,,,,,,,,,,,,,,,,,
,,,,597823,001,2023-10-10_24h51.10.815,fluency,2022.2.4,Win32,60.64281383,,,,,,,,,,,,,,,,,,,,,,,,,,,,,,,,,,,,,,,,,,,,,,,,,,,,,,,,,,,,,,,,,,,,,,,,,,,,,,,,,,,,,,,,,,,,,,,,,,,,,,,,,,,,,,,,0,0,0,0,1,,"[""k""]",[0.5895000000000437],2,"[""k""]",[0.5895000000000437],,,,,,,,,,,,,,,,,,,,,,,,,,,,,,,,,,,,,,,,,,,,,,,,,,,,,,,,,,,,,,,,,,,
,,,,597823,001,2023-10-10_24h51.10.815,fluency,2022.2.4,Win32,60.64281383,,,,,,,,,,,,,,,,,,,,,,,10,1,img/B01_10.jpg,BLEND,Press J if the face is a NON-BLEND and K if the face is a BLEND,A blend is a computer-generated image created by combining together multiple photos of real human faces. A non-blend is a regular photo of a human face.,KJ,,,,,,,,,,,,,,,,,,,,,,,,,,,,,,,,,,,,,,,,,,,,,,,,,,,,,,,,,,,,,,2,0.3686,,,,,,,,,,,,,,0,28,28,10,1,,,,,,,,,,,,,space,0.1519,,,,,,,,,,,,,,,,,,,,,,,,,,,,,,,,,,,,,,,,,,,,,,,,,,,,,,,,,,,,,,,,,
,,,,597823,001,2023-10-10_24h51.10.815,fluency,2022.2.4,Win32,60.64281383,,,,,,,,,,,,,,,,,,,,,,,1,10,img/B10_01.jpg,BLEND,Press J if the face is a NON-BLEND and K if the face is a BLEND,A blend is a computer-generated image created by combining together multiple photos of real human faces. A non-blend is a regular photo of a human face.,KJ,,,,,,,,,,,,,,,,,,,,,,,,,,,,,,,,,,,,,,,,,,,,,,,,,,,,,,,,,,,,,,,,,,,,,,,,,,,,366.6977,0,29,29,100,1,109,0,0,0,0,1,98,,,,,,,,,,,,,,,,,,,,,,,,,,,,,,,,,,,,,,,,,,,,,,,,,,,,,,,,,,,,,,,,,,,,,,,,
,,,,597823,001,2023-10-10_24h51.10.815,fluency,2022.2.4,Win32,60.64281383,,,,,,,,,,,,,,,,,,,,,,,,,,,,,,,,,,,,,,,,,,,,,,,,,,,,,,,,,,,,,,,,,,,,,,,,,,,,,,,,,,,,,,,,,,,,,,,,,,,,,,,,,,,,,,,,0,0,0,0,1,,"[""j""]",[1.6496999999284299],2,"[""j""]",[1.6496999999284867],,,,,,,,,,,,,,,,,,,,,,,,,,,,,,,,,,,,,,,,,,,,,,,,,,,,,,,,,,,,,,,,,,,
,,,,597823,001,2023-10-10_24h51.10.815,fluency,2022.2.4,Win32,60.64281383,,,,,,,,,,,,,,,,,,,,,,,1,10,img/B10_01.jpg,BLEND,Press J if the face is a NON-BLEND and K if the face is a BLEND,A blend is a computer-generated image created by combining together multiple photos of real human faces. A non-blend is a regular photo of a human face.,KJ,,,,,,,,,,,,,,,,,,,,,,,,,,,,,,,,,,,,,,,,,,,,,,,,,,,,,,,,,,,,,,7,1.5487,,,,,,,,,,,,,,0,29,29,100,1,,,,,,,,,,,,,space,0.4735,,,,,,,,,,,,,,,,,,,,,,,,,,,,,,,,,,,,,,,,,,,,,,,,,,,,,,,,,,,,,,,,,
,,,,597823,001,2023-10-10_24h51.10.815,fluency,2022.2.4,Win32,60.64281383,,,,,,,,,,,,,,,,,,,,,,,6,8,img/B08_06.jpg,BLEND,Press J if the face is a NON-BLEND and K if the face is a BLEND,A blend is a computer-generated image created by combining together multiple photos of real human faces. A non-blend is a regular photo of a human face.,KJ,,,,,,,,,,,,,,,,,,,,,,,,,,,,,,,,,,,,,,,,,,,,,,,,,,,,,,,,,,,,,,,,,,,,,,,,,,,,372.8288,0,30,30,83,1,109,0,0,0,0,1,98,,,,,,,,,,,,,,,,,,,,,,,,,,,,,,,,,,,,,,,,,,,,,,,,,,,,,,,,,,,,,,,,,,,,,,,,
,,,,597823,001,2023-10-10_24h51.10.815,fluency,2022.2.4,Win32,60.64281383,,,,,,,,,,,,,,,,,,,,,,,,,,,,,,,,,,,,,,,,,,,,,,,,,,,,,,,,,,,,,,,,,,,,,,,,,,,,,,,,,,,,,,,,,,,,,,,,,,,,,,,,,,,,,,,,0,0,0,0,1,,"[""k""]",[0.7967000000476787],2,"[""k""]",[0.7966000000238296],,,,,,,,,,,,,,,,,,,,,,,,,,,,,,,,,,,,,,,,,,,,,,,,,,,,,,,,,,,,,,,,,,,
,,,,597823,001,2023-10-10_24h51.10.815,fluency,2022.2.4,Win32,60.64281383,,,,,,,,,,,,,,,,,,,,,,,6,8,img/B08_06.jpg,BLEND,Press J if the face is a NON-BLEND and K if the face is a BLEND,A blend is a computer-generated image created by combining together multiple photos of real human faces. A non-blend is a regular photo of a human face.,KJ,,,,,,,,,,,,,,,,,,,,,,,,,,,,,,,,,,,,,,,,,,,,,,,,,,,,,,,,,,,,,,1,0.3553,,,,,,,,,,,,,,0,30,30,83,1,,,,,,,,,,,,,space,0.2172,,,,,,,,,,,,,,,,,,,,,,,,,,,,,,,,,,,,,,,,,,,,,,,,,,,,,,,,,,,,,,,,,
,,,,597823,001,2023-10-10_24h51.10.815,fluency,2022.2.4,Win32,60.64281383,,,,,,,,,,,,,,,,,,,,,,,4,10,img/B10_04.jpg,BLEND,Press J if the face is a NON-BLEND and K if the face is a BLEND,A blend is a computer-generated image created by combining together multiple photos of real human faces. A non-blend is a regular photo of a human face.,KJ,,,,,,,,,,,,,,,,,,,,,,,,,,,,,,,,,,,,,,,,,,,,,,,,,,,,,,,,,,,,,,,,,,,,,,,,,,,,378.4621,0,31,31,103,1,109,0,0,0,0,1,98,,,,,,,,,,,,,,,,,,,,,,,,,,,,,,,,,,,,,,,,,,,,,,,,,,,,,,,,,,,,,,,,,,,,,,,,
,,,,597823,001,2023-10-10_24h51.10.815,fluency,2022.2.4,Win32,60.64281383,,,,,,,,,,,,,,,,,,,,,,,,,,,,,,,,,,,,,,,,,,,,,,,,,,,,,,,,,,,,,,,,,,,,,,,,,,,,,,,,,,,,,,,,,,,,,,,,,,,,,,,,,,,,,,,,0,0,0,0,1,,"[""k""]",[0.6346000000238519],2,"[""k""]",[0.6346999999284435],,,,,,,,,,,,,,,,,,,,,,,,,,,,,,,,,,,,,,,,,,,,,,,,,,,,,,,,,,,,,,,,,,,
,,,,597823,001,2023-10-10_24h51.10.815,fluency,2022.2.4,Win32,60.64281383,,,,,,,,,,,,,,,,,,,,,,,4,10,img/B10_04.jpg,BLEND,Press J if the face is a NON-BLEND and K if the face is a BLEND,A blend is a computer-generated image created by combining together multiple photos of real human faces. A non-blend is a regular photo of a human face.,KJ,,,,,,,,,,,,,,,,,,,,,,,,,,,,,,,,,,,,,,,,,,,,,,,,,,,,,,,,,,,,,,2,0.3094,,,,,,,,,,,,,,0,31,31,103,1,,,,,,,,,,,,,space,0.184,,,,,,,,,,,,,,,,,,,,,,,,,,,,,,,,,,,,,,,,,,,,,,,,,,,,,,,,,,,,,,,,,
,,,,597823,001,2023-10-10_24h51.10.815,fluency,2022.2.4,Win32,60.64281383,,,,,,,,,,,,,,,,,,,,,,,7,5,img/B05_07.jpg,BLEND,Press J if the face is a NON-BLEND and K if the face is a BLEND,A blend is a computer-generated image created by combining together multiple photos of real human faces. A non-blend is a regular photo of a human face.,KJ,,,,,,,,,,,,,,,,,,,,,,,,,,,,,,,,,,,,,,,,,,,,,,,,,,,,,,,,,,,,,,,,,,,,,,,,,,,,384.0612,0,32,32,51,1,109,0,0,0,0,1,98,,,,,,,,,,,,,,,,,,,,,,,,,,,,,,,,,,,,,,,,,,,,,,,,,,,,,,,,,,,,,,,,,,,,,,,,
,,,,597823,001,2023-10-10_24h51.10.815,fluency,2022.2.4,Win32,60.64281383,,,,,,,,,,,,,,,,,,,,,,,,,,,,,,,,,,,,,,,,,,,,,,,,,,,,,,,,,,,,,,,,,,,,,,,,,,,,,,,,,,,,,,,,,,,,,,,,,,,,,,,,,,,,,,,,0,0,0,0,1,,"[""k""]",[0.9622999999523358],2,"[""k""]",[0.962299999952279],,,,,,,,,,,,,,,,,,,,,,,,,,,,,,,,,,,,,,,,,,,,,,,,,,,,,,,,,,,,,,,,,,,
,,,,597823,001,2023-10-10_24h51.10.815,fluency,2022.2.4,Win32,60.64281383,,,,,,,,,,,,,,,,,,,,,,,7,5,img/B05_07.jpg,BLEND,Press J if the face is a NON-BLEND and K if the face is a BLEND,A blend is a computer-generated image created by combining together multiple photos of real human faces. A non-blend is a regular photo of a human face.,KJ,,,,,,,,,,,,,,,,,,,,,,,,,,,,,,,,,,,,,,,,,,,,,,,,,,,,,,,,,,,,,,2,0.6163,,,,,,,,,,,,,,0,32,32,51,1,,,,,,,,,,,,,space,0.1678,,,,,,,,,,,,,,,,,,,,,,,,,,,,,,,,,,,,,,,,,,,,,,,,,,,,,,,,,,,,,,,,,
,,,,597823,001,2023-10-10_24h51.10.815,fluency,2022.2.4,Win32,60.64281383,,,,,,,,,,,,,,,,,,,,,,,7,10,img/B10_07.jpg,BLEND,Press J if the face is a NON-BLEND and K if the face is a BLEND,A blend is a computer-generated image created by combining together multiple photos of real human faces. A non-blend is a regular photo of a human face.,KJ,,,,,,,,,,,,,,,,,,,,,,,,,,,,,,,,,,,,,,,,,,,,,,,,,,,,,,,,,,,,,,,,,,,,,,,,,,,,389.9762,0,33,33,106,1,109,0,0,0,0,1,98,,,,,,,,,,,,,,,,,,,,,,,,,,,,,,,,,,,,,,,,,,,,,,,,,,,,,,,,,,,,,,,,,,,,,,,,
,,,,597823,001,2023-10-10_24h51.10.815,fluency,2022.2.4,Win32,60.64281383,,,,,,,,,,,,,,,,,,,,,,,,,,,,,,,,,,,,,,,,,,,,,,,,,,,,,,,,,,,,,,,,,,,,,,,,,,,,,,,,,,,,,,,,,,,,,,,,,,,,,,,,,,,,,,,,0,0,0,0,1,,"[""k""]",[0.800599999904648],2,"[""k""]",[0.8004999999999995],,,,,,,,,,,,,,,,,,,,,,,,,,,,,,,,,,,,,,,,,,,,,,,,,,,,,,,,,,,,,,,,,,,
,,,,597823,001,2023-10-10_24h51.10.815,fluency,2022.2.4,Win32,60.64281383,,,,,,,,,,,,,,,,,,,,,,,7,10,img/B10_07.jpg,BLEND,Press J if the face is a NON-BLEND and K if the face is a BLEND,A blend is a computer-generated image created by combining together multiple photos of real human faces. A non-blend is a regular photo of a human face.,KJ,,,,,,,,,,,,,,,,,,,,,,,,,,,,,,,,,,,,,,,,,,,,,,,,,,,,,,,,,,,,,,2,1.09,,,,,,,,,,,,,,0,33,33,106,1,,,,,,,,,,,,,space,0.1846,,,,,,,,,,,,,,,,,,,,,,,,,,,,,,,,,,,,,,,,,,,,,,,,,,,,,,,,,,,,,,,,,
,,,,597823,001,2023-10-10_24h51.10.815,fluency,2022.2.4,Win32,60.64281383,,,,,,,,,,,,,,,,,,,,,,,9,6,img/B06_09.jpg,BLEND,Press J if the face is a NON-BLEND and K if the face is a BLEND,A blend is a computer-generated image created by combining together multiple photos of real human faces. A non-blend is a regular photo of a human face.,KJ,,,,,,,,,,,,,,,,,,,,,,,,,,,,,,,,,,,,,,,,,,,,,,,,,,,,,,,,,,,,,,,,,,,,,,,,,,,,395.4255,0,34,34,64,1,109,0,0,0,0,1,98,,,,,,,,,,,,,,,,,,,,,,,,,,,,,,,,,,,,,,,,,,,,,,,,,,,,,,,,,,,,,,,,,,,,,,,,
,,,,597823,001,2023-10-10_24h51.10.815,fluency,2022.2.4,Win32,60.64281383,,,,,,,,,,,,,,,,,,,,,,,,,,,,,,,,,,,,,,,,,,,,,,,,,,,,,,,,,,,,,,,,,,,,,,,,,,,,,,,,,,,,,,,,,,,,,,,,,,,,,,,,,,,,,,,,0,0,0,0,1,,"[""j""]",[1.2672000000476942],2,"[""j""]",[1.2672000000476942],,,,,,,,,,,,,,,,,,,,,,,,,,,,,,,,,,,,,,,,,,,,,,,,,,,,,,,,,,,,,,,,,,,
,,,,597823,001,2023-10-10_24h51.10.815,fluency,2022.2.4,Win32,60.64281383,,,,,,,,,,,,,,,,,,,,,,,9,6,img/B06_09.jpg,BLEND,Press J if the face is a NON-BLEND and K if the face is a BLEND,A blend is a computer-generated image created by combining together multiple photos of real human faces. A non-blend is a regular photo of a human face.,KJ,,,,,,,,,,,,,,,,,,,,,,,,,,,,,,,,,,,,,,,,,,,,,,,,,,,,,,,,,,,,,,5,1.2899,,,,,,,,,,,,,,0,34,34,64,1,,,,,,,,,,,,,space,0.5581,,,,,,,,,,,,,,,,,,,,,,,,,,,,,,,,,,,,,,,,,,,,,,,,,,,,,,,,,,,,,,,,,
,,,,597823,001,2023-10-10_24h51.10.815,fluency,2022.2.4,Win32,60.64281383,,,,,,,,,,,,,,,,,,,,,,,8,9,img/B09_08.jpg,BLEND,Press J if the face is a NON-BLEND and K if the face is a BLEND,A blend is a computer-generated image created by combining together multiple photos of real human faces. A non-blend is a regular photo of a human face.,KJ,,,,,,,,,,,,,,,,,,,,,,,,,,,,,,,,,,,,,,,,,,,,,,,,,,,,,,,,,,,,,,,,,,,,,,,,,,,,402.4055,0,35,35,96,1,109,0,0,0,0,1,98,,,,,,,,,,,,,,,,,,,,,,,,,,,,,,,,,,,,,,,,,,,,,,,,,,,,,,,,,,,,,,,,,,,,,,,,
,,,,597823,001,2023-10-10_24h51.10.815,fluency,2022.2.4,Win32,60.64281383,,,,,,,,,,,,,,,,,,,,,,,,,,,,,,,,,,,,,,,,,,,,,,,,,,,,,,,,,,,,,,,,,,,,,,,,,,,,,,,,,,,,,,,,,,,,,,,,,,,,,,,,,,,,,,,,0,0,0,0,1,,"[""k""]",[0.7621999999284412],2,"[""k""]",[0.7621000000237927],,,,,,,,,,,,,,,,,,,,,,,,,,,,,,,,,,,,,,,,,,,,,,,,,,,,,,,,,,,,,,,,,,,
,,,,597823,001,2023-10-10_24h51.10.815,fluency,2022.2.4,Win32,60.64281383,,,,,,,,,,,,,,,,,,,,,,,8,9,img/B09_08.jpg,BLEND,Press J if the face is a NON-BLEND and K if the face is a BLEND,A blend is a computer-generated image created by combining together multiple photos of real human faces. A non-blend is a regular photo of a human face.,KJ,,,,,,,,,,,,,,,,,,,,,,,,,,,,,,,,,,,,,,,,,,,,,,,,,,,,,,,,,,,,,,3,0.9716,,,,,,,,,,,,,,0,35,35,96,1,,,,,,,,,,,,,space,0.0703,,,,,,,,,,,,,,,,,,,,,,,,,,,,,,,,,,,,,,,,,,,,,,,,,,,,,,,,,,,,,,,,,
,,,,597823,001,2023-10-10_24h51.10.815,fluency,2022.2.4,Win32,60.64281383,,,,,,,,,,,,,,,,,,,,,,,5,7,img/B07_05.jpg,BLEND,Press J if the face is a NON-BLEND and K if the face is a BLEND,A blend is a computer-generated image created by combining together multiple photos of real human faces. A non-blend is a regular photo of a human face.,KJ,,,,,,,,,,,,,,,,,,,,,,,,,,,,,,,,,,,,,,,,,,,,,,,,,,,,,,,,,,,,,,,,,,,,,,,,,,,,407.5045,0,36,36,71,1,109,0,0,0,0,1,98,,,,,,,,,,,,,,,,,,,,,,,,,,,,,,,,,,,,,,,,,,,,,,,,,,,,,,,,,,,,,,,,,,,,,,,,
,,,,597823,001,2023-10-10_24h51.10.815,fluency,2022.2.4,Win32,60.64281383,,,,,,,,,,,,,,,,,,,,,,,,,,,,,,,,,,,,,,,,,,,,,,,,,,,,,,,,,,,,,,,,,,,,,,,,,,,,,,,,,,,,,,,,,,,,,,,,,,,,,,,,,,,,,,,,0,0,0,0,1,,"[""k""]",[0.7753999999761731],2,"[""k""]",[0.7755000000000223],,,,,,,,,,,,,,,,,,,,,,,,,,,,,,,,,,,,,,,,,,,,,,,,,,,,,,,,,,,,,,,,,,,
,,,,597823,001,2023-10-10_24h51.10.815,fluency,2022.2.4,Win32,60.64281383,,,,,,,,,,,,,,,,,,,,,,,5,7,img/B07_05.jpg,BLEND,Press J if the face is a NON-BLEND and K if the face is a BLEND,A blend is a computer-generated image created by combining together multiple photos of real human faces. A non-blend is a regular photo of a human face.,KJ,,,,,,,,,,,,,,,,,,,,,,,,,,,,,,,,,,,,,,,,,,,,,,,,,,,,,,,,,,,,,,3,0.8014,,,,,,,,,,,,,,0,36,36,71,1,,,,,,,,,,,,,space,0.078,,,,,,,,,,,,,,,,,,,,,,,,,,,,,,,,,,,,,,,,,,,,,,,,,,,,,,,,,,,,,,,,,
,,,,597823,001,2023-10-10_24h51.10.815,fluency,2022.2.4,Win32,60.64281383,,,,,,,,,,,,,,,,,,,,,,,9,2,img/B02_09.jpg,BLEND,Press J if the face is a NON-BLEND and K if the face is a BLEND,A blend is a computer-generated image created by combining together multiple photos of real human faces. A non-blend is a regular photo of a human face.,KJ,,,,,,,,,,,,,,,,,,,,,,,,,,,,,,,,,,,,,,,,,,,,,,,,,,,,,,,,,,,,,,,,,,,,,,,,,,,,413.5548,0,37,37,20,1,109,0,0,0,0,1,98,,,,,,,,,,,,,,,,,,,,,,,,,,,,,,,,,,,,,,,,,,,,,,,,,,,,,,,,,,,,,,,,,,,,,,,,
,,,,597823,001,2023-10-10_24h51.10.815,fluency,2022.2.4,Win32,60.64281383,,,,,,,,,,,,,,,,,,,,,,,,,,,,,,,,,,,,,,,,,,,,,,,,,,,,,,,,,,,,,,,,,,,,,,,,,,,,,,,,,,,,,,,,,,,,,,,,,,,,,,,,,,,,,,,,0,0,0,0,1,,"[""k""]",[0.6666000000238341],2,"[""k""]",[0.6666000000238341],,,,,,,,,,,,,,,,,,,,,,,,,,,,,,,,,,,,,,,,,,,,,,,,,,,,,,,,,,,,,,,,,,,
,,,,597823,001,2023-10-10_24h51.10.815,fluency,2022.2.4,Win32,60.64281383,,,,,,,,,,,,,,,,,,,,,,,9,2,img/B02_09.jpg,BLEND,Press J if the face is a NON-BLEND and K if the face is a BLEND,A blend is a computer-generated image created by combining together multiple photos of real human faces. A non-blend is a regular photo of a human face.,KJ,,,,,,,,,,,,,,,,,,,,,,,,,,,,,,,,,,,,,,,,,,,,,,,,,,,,,,,,,,,,,,2,0.3144,,,,,,,,,,,,,,0,37,37,20,1,,,,,,,,,,,,,space,0.1222,,,,,,,,,,,,,,,,,,,,,,,,,,,,,,,,,,,,,,,,,,,,,,,,,,,,,,,,,,,,,,,,,
,,,,597823,001,2023-10-10_24h51.10.815,fluency,2022.2.4,Win32,60.64281383,,,,,,,,,,,,,,,,,,,,,,,10,8,img/B08_10.jpg,BLEND,Press J if the face is a NON-BLEND and K if the face is a BLEND,A blend is a computer-generated image created by combining together multiple photos of real human faces. A non-blend is a regular photo of a human face.,KJ,,,,,,,,,,,,,,,,,,,,,,,,,,,,,,,,,,,,,,,,,,,,,,,,,,,,,,,,,,,,,,,,,,,,,,,,,,,,419.1874,0,38,38,87,1,109,0,0,0,0,1,98,,,,,,,,,,,,,,,,,,,,,,,,,,,,,,,,,,,,,,,,,,,,,,,,,,,,,,,,,,,,,,,,,,,,,,,,
,,,,597823,001,2023-10-10_24h51.10.815,fluency,2022.2.4,Win32,60.64281383,,,,,,,,,,,,,,,,,,,,,,,,,,,,,,,,,,,,,,,,,,,,,,,,,,,,,,,,,,,,,,,,,,,,,,,,,,,,,,,,,,,,,,,,,,,,,,,,,,,,,,,,,,,,,,,,0,0,0,0,1,,"[""k""]",[0.6299999999999955],2,"[""k""]",[0.6299999999999955],,,,,,,,,,,,,,,,,,,,,,,,,,,,,,,,,,,,,,,,,,,,,,,,,,,,,,,,,,,,,,,,,,,
,,,,597823,001,2023-10-10_24h51.10.815,fluency,2022.2.4,Win32,60.64281383,,,,,,,,,,,,,,,,,,,,,,,10,8,img/B08_10.jpg,BLEND,Press J if the face is a NON-BLEND and K if the face is a BLEND,A blend is a computer-generated image created by combining together multiple photos of real human faces. A non-blend is a regular photo of a human face.,KJ,,,,,,,,,,,,,,,,,,,,,,,,,,,,,,,,,,,,,,,,,,,,,,,,,,,,,,,,,,,,,,2,0.2815,,,,,,,,,,,,,,0,38,38,87,1,,,,,,,,,,,,,space,0.0761,,,,,,,,,,,,,,,,,,,,,,,,,,,,,,,,,,,,,,,,,,,,,,,,,,,,,,,,,,,,,,,,,
,,,,597823,001,2023-10-10_24h51.10.815,fluency,2022.2.4,Win32,60.64281383,,,,,,,,,,,,,,,,,,,,,,,0,5,img/B05_00.jpg,BLEND,Press J if the face is a NON-BLEND and K if the face is a BLEND,A blend is a computer-generated image created by combining together multiple photos of real human faces. A non-blend is a regular photo of a human face.,KJ,,,,,,,,,,,,,,,,,,,,,,,,,,,,,,,,,,,,,,,,,,,,,,,,,,,,,,,,,,,,,,,,,,,,,,,,,,,,423.6518,0,39,39,44,1,109,0,0,0,0,1,98,,,,,,,,,,,,,,,,,,,,,,,,,,,,,,,,,,,,,,,,,,,,,,,,,,,,,,,,,,,,,,,,,,,,,,,,
,,,,597823,001,2023-10-10_24h51.10.815,fluency,2022.2.4,Win32,60.64281383,,,,,,,,,,,,,,,,,,,,,,,,,,,,,,,,,,,,,,,,,,,,,,,,,,,,,,,,,,,,,,,,,,,,,,,,,,,,,,,,,,,,,,,,,,,,,,,,,,,,,,,,,,,,,,,,0,0,0,0,1,,"[""k""]",[1.035799999952303],2,"[""k""]",[1.035799999952303],,,,,,,,,,,,,,,,,,,,,,,,,,,,,,,,,,,,,,,,,,,,,,,,,,,,,,,,,,,,,,,,,,,
,,,,597823,001,2023-10-10_24h51.10.815,fluency,2022.2.4,Win32,60.64281383,,,,,,,,,,,,,,,,,,,,,,,0,5,img/B05_00.jpg,BLEND,Press J if the face is a NON-BLEND and K if the face is a BLEND,A blend is a computer-generated image created by combining together multiple photos of real human faces. A non-blend is a regular photo of a human face.,KJ,,,,,,,,,,,,,,,,,,,,,,,,,,,,,,,,,,,,,,,,,,,,,,,,,,,,,,,,,,,,,,2,0.3488,,,,,,,,,,,,,,0,39,39,44,1,,,,,,,,,,,,,space,0.135,,,,,,,,,,,,,,,,,,,,,,,,,,,,,,,,,,,,,,,,,,,,,,,,,,,,,,,,,,,,,,,,,
,,,,597823,001,2023-10-10_24h51.10.815,fluency,2022.2.4,Win32,60.64281383,,,,,,,,,,,,,,,,,,,,,,,7,1,img/B01_07.jpg,BLEND,Press J if the face is a NON-BLEND and K if the face is a BLEND,A blend is a computer-generated image created by combining together multiple photos of real human faces. A non-blend is a regular photo of a human face.,KJ,,,,,,,,,,,,,,,,,,,,,,,,,,,,,,,,,,,,,,,,,,,,,,,,,,,,,,,,,,,,,,,,,,,,,,,,,,,,429.3355,0,40,40,7,1,109,0,0,0,0,1,98,,,,,,,,,,,,,,,,,,,,,,,,,,,,,,,,,,,,,,,,,,,,,,,,,,,,,,,,,,,,,,,,,,,,,,,,
,,,,597823,001,2023-10-10_24h51.10.815,fluency,2022.2.4,Win32,60.64281383,,,,,,,,,,,,,,,,,,,,,,,,,,,,,,,,,,,,,,,,,,,,,,,,,,,,,,,,,,,,,,,,,,,,,,,,,,,,,,,,,,,,,,,,,,,,,,,,,,,,,,,,,,,,,,,,0,0,0,0,1,,"[""k""]",[0.6117999999523249],2,"[""k""]",[0.6116999999284758],,,,,,,,,,,,,,,,,,,,,,,,,,,,,,,,,,,,,,,,,,,,,,,,,,,,,,,,,,,,,,,,,,,
,,,,597823,001,2023-10-10_24h51.10.815,fluency,2022.2.4,Win32,60.64281383,,,,,,,,,,,,,,,,,,,,,,,7,1,img/B01_07.jpg,BLEND,Press J if the face is a NON-BLEND and K if the face is a BLEND,A blend is a computer-generated image created by combining together multiple photos of real human faces. A non-blend is a regular photo of a human face.,KJ,,,,,,,,,,,,,,,,,,,,,,,,,,,,,,,,,,,,,,,,,,,,,,,,,,,,,,,,,,,,,,3,0.3051,,,,,,,,,,,,,,0,40,40,7,1,,,,,,,,,,,,,space,0.1681,,,,,,,,,,,,,,,,,,,,,,,,,,,,,,,,,,,,,,,,,,,,,,,,,,,,,,,,,,,,,,,,,
,,,,597823,001,2023-10-10_24h51.10.815,fluency,2022.2.4,Win32,60.64281383,,,,,,,,,,,,,,,,,,,,,,,0,4,img/B04_00.jpg,BLEND,Press J if the face is a NON-BLEND and K if the face is a BLEND,A blend is a computer-generated image created by combining together multiple photos of real human faces. A non-blend is a regular photo of a human face.,KJ,,,,,,,,,,,,,,,,,,,,,,,,,,,,,,,,,,,,,,,,,,,,,,,,,,,,,,,,,,,,,,,,,,,,,,,,,,,,434.8825,0,41,41,33,1,109,0,0,0,0,1,98,,,,,,,,,,,,,,,,,,,,,,,,,,,,,,,,,,,,,,,,,,,,,,,,,,,,,,,,,,,,,,,,,,,,,,,,
,,,,597823,001,2023-10-10_24h51.10.815,fluency,2022.2.4,Win32,60.64281383,,,,,,,,,,,,,,,,,,,,,,,,,,,,,,,,,,,,,,,,,,,,,,,,,,,,,,,,,,,,,,,,,,,,,,,,,,,,,,,,,,,,,,,,,,,,,,,,,,,,,,,,,,,,,,,,0,0,0,0,1,,"[""k""]",[1.1312999999523186],2,"[""k""]",[1.1312999999523186],,,,,,,,,,,,,,,,,,,,,,,,,,,,,,,,,,,,,,,,,,,,,,,,,,,,,,,,,,,,,,,,,,,
,,,,597823,001,2023-10-10_24h51.10.815,fluency,2022.2.4,Win32,60.64281383,,,,,,,,,,,,,,,,,,,,,,,0,4,img/B04_00.jpg,BLEND,Press J if the face is a NON-BLEND and K if the face is a BLEND,A blend is a computer-generated image created by combining together multiple photos of real human faces. A non-blend is a regular photo of a human face.,KJ,,,,,,,,,,,,,,,,,,,,,,,,,,,,,,,,,,,,,,,,,,,,,,,,,,,,,,,,,,,,,,5,1.1751,,,,,,,,,,,,,,0,41,41,33,1,,,,,,,,,,,,,space,0.3848,,,,,,,,,,,,,,,,,,,,,,,,,,,,,,,,,,,,,,,,,,,,,,,,,,,,,,,,,,,,,,,,,
,,,,597823,001,2023-10-10_24h51.10.815,fluency,2022.2.4,Win32,60.64281383,,,,,,,,,,,,,,,,,,,,,,,5,2,img/B02_05.jpg,BLEND,Press J if the face is a NON-BLEND and K if the face is a BLEND,A blend is a computer-generated image created by combining together multiple photos of real human faces. A non-blend is a regular photo of a human face.,KJ,,,,,,,,,,,,,,,,,,,,,,,,,,,,,,,,,,,,,,,,,,,,,,,,,,,,,,,,,,,,,,,,,,,,,,,,,,,,441.5498,0,42,42,16,1,109,0,0,0,0,1,98,,,,,,,,,,,,,,,,,,,,,,,,,,,,,,,,,,,,,,,,,,,,,,,,,,,,,,,,,,,,,,,,,,,,,,,,
,,,,597823,001,2023-10-10_24h51.10.815,fluency,2022.2.4,Win32,60.64281383,,,,,,,,,,,,,,,,,,,,,,,,,,,,,,,,,,,,,,,,,,,,,,,,,,,,,,,,,,,,,,,,,,,,,,,,,,,,,,,,,,,,,,,,,,,,,,,,,,,,,,,,,,,,,,,,0,0,0,0,1,,"[""k""]",[0.6891000000238137],2,"[""k""]",[0.6892000000476628],,,,,,,,,,,,,,,,,,,,,,,,,,,,,,,,,,,,,,,,,,,,,,,,,,,,,,,,,,,,,,,,,,,
,,,,597823,001,2023-10-10_24h51.10.815,fluency,2022.2.4,Win32,60.64281383,,,,,,,,,,,,,,,,,,,,,,,5,2,img/B02_05.jpg,BLEND,Press J if the face is a NON-BLEND and K if the face is a BLEND,A blend is a computer-generated image created by combining together multiple photos of real human faces. A non-blend is a regular photo of a human face.,KJ,,,,,,,,,,,,,,,,,,,,,,,,,,,,,,,,,,,,,,,,,,,,,,,,,,,,,,,,,,,,,,2,0.3214,,,,,,,,,,,,,,0,42,42,16,1,,,,,,,,,,,,,space,0.2868,,,,,,,,,,,,,,,,,,,,,,,,,,,,,,,,,,,,,,,,,,,,,,,,,,,,,,,,,,,,,,,,,
,,,,597823,001,2023-10-10_24h51.10.815,fluency,2022.2.4,Win32,60.64281383,,,,,,,,,,,,,,,,,,,,,,,4,6,img/B06_04.jpg,BLEND,Press J if the face is a NON-BLEND and K if the face is a BLEND,A blend is a computer-generated image created by combining together multiple photos of real human faces. A non-blend is a regular photo of a human face.,KJ,,,,,,,,,,,,,,,,,,,,,,,,,,,,,,,,,,,,,,,,,,,,,,,,,,,,,,,,,,,,,,,,,,,,,,,,,,,,446.2658,0,43,43,59,1,109,0,0,0,0,1,98,,,,,,,,,,,,,,,,,,,,,,,,,,,,,,,,,,,,,,,,,,,,,,,,,,,,,,,,,,,,,,,,,,,,,,,,
,,,,597823,001,2023-10-10_24h51.10.815,fluency,2022.2.4,Win32,60.64281383,,,,,,,,,,,,,,,,,,,,,,,,,,,,,,,,,,,,,,,,,,,,,,,,,,,,,,,,,,,,,,,,,,,,,,,,,,,,,,,,,,,,,,,,,,,,,,,,,,,,,,,,,,,,,,,,0,0,0,0,1,,"[""k""]",[0.7848000000715274],2,"[""k""]",[0.7847000000476783],,,,,,,,,,,,,,,,,,,,,,,,,,,,,,,,,,,,,,,,,,,,,,,,,,,,,,,,,,,,,,,,,,,
,,,,597823,001,2023-10-10_24h51.10.815,fluency,2022.2.4,Win32,60.64281383,,,,,,,,,,,,,,,,,,,,,,,4,6,img/B06_04.jpg,BLEND,Press J if the face is a NON-BLEND and K if the face is a BLEND,A blend is a computer-generated image created by combining together multiple photos of real human faces. A non-blend is a regular photo of a human face.,KJ,,,,,,,,,,,,,,,,,,,,,,,,,,,,,,,,,,,,,,,,,,,,,,,,,,,,,,,,,,,,,,4,0.452,,,,,,,,,,,,,,0,43,43,59,1,,,,,,,,,,,,,space,0.2954,,,,,,,,,,,,,,,,,,,,,,,,,,,,,,,,,,,,,,,,,,,,,,,,,,,,,,,,,,,,,,,,,
,,,,597823,001,2023-10-10_24h51.10.815,fluency,2022.2.4,Win32,60.64281383,,,,,,,,,,,,,,,,,,,,,,,6,9,img/B09_06.jpg,BLEND,Press J if the face is a NON-BLEND and K if the face is a BLEND,A blend is a computer-generated image created by combining together multiple photos of real human faces. A non-blend is a regular photo of a human face.,KJ,,,,,,,,,,,,,,,,,,,,,,,,,,,,,,,,,,,,,,,,,,,,,,,,,,,,,,,,,,,,,,,,,,,,,,,,,,,,451.1647,0,44,44,94,1,109,0,0,0,0,1,98,,,,,,,,,,,,,,,,,,,,,,,,,,,,,,,,,,,,,,,,,,,,,,,,,,,,,,,,,,,,,,,,,,,,,,,,
,,,,597823,001,2023-10-10_24h51.10.815,fluency,2022.2.4,Win32,60.64281383,,,,,,,,,,,,,,,,,,,,,,,,,,,,,,,,,,,,,,,,,,,,,,,,,,,,,,,,,,,,,,,,,,,,,,,,,,,,,,,,,,,,,,,,,,,,,,,,,,,,,,,,,,,,,,,,0,0,0,0,1,,"[""k""]",[0.6901000000238469],2,"[""k""]",[0.6901000000238469],,,,,,,,,,,,,,,,,,,,,,,,,,,,,,,,,,,,,,,,,,,,,,,,,,,,,,,,,,,,,,,,,,,
,,,,597823,001,2023-10-10_24h51.10.815,fluency,2022.2.4,Win32,60.64281383,,,,,,,,,,,,,,,,,,,,,,,6,9,img/B09_06.jpg,BLEND,Press J if the face is a NON-BLEND and K if the face is a BLEND,A blend is a computer-generated image created by combining together multiple photos of real human faces. A non-blend is a regular photo of a human face.,KJ,,,,,,,,,,,,,,,,,,,,,,,,,,,,,,,,,,,,,,,,,,,,,,,,,,,,,,,,,,,,,,2,0.2695,,,,,,,,,,,,,,0,44,44,94,1,,,,,,,,,,,,,space,0.3382,,,,,,,,,,,,,,,,,,,,,,,,,,,,,,,,,,,,,,,,,,,,,,,,,,,,,,,,,,,,,,,,,
,,,,597823,001,2023-10-10_24h51.10.815,fluency,2022.2.4,Win32,60.64281383,,,,,,,,,,,,,,,,,,,,,,,8,6,img/B06_08.jpg,BLEND,Press J if the face is a NON-BLEND and K if the face is a BLEND,A blend is a computer-generated image created by combining together multiple photos of real human faces. A non-blend is a regular photo of a human face.,KJ,,,,,,,,,,,,,,,,,,,,,,,,,,,,,,,,,,,,,,,,,,,,,,,,,,,,,,,,,,,,,,,,,,,,,,,,,,,,456.8971,0,45,45,63,1,109,0,0,0,0,1,98,,,,,,,,,,,,,,,,,,,,,,,,,,,,,,,,,,,,,,,,,,,,,,,,,,,,,,,,,,,,,,,,,,,,,,,,
,,,,597823,001,2023-10-10_24h51.10.815,fluency,2022.2.4,Win32,60.64281383,,,,,,,,,,,,,,,,,,,,,,,,,,,,,,,,,,,,,,,,,,,,,,,,,,,,,,,,,,,,,,,,,,,,,,,,,,,,,,,,,,,,,,,,,,,,,,,,,,,,,,,,,,,,,,,,0,0,0,0,1,,"[""j""]",[1.1064999999999827],2,"[""j""]",[1.1063999999761336],,,,,,,,,,,,,,,,,,,,,,,,,,,,,,,,,,,,,,,,,,,,,,,,,,,,,,,,,,,,,,,,,,,
,,,,597823,001,2023-10-10_24h51.10.815,fluency,2022.2.4,Win32,60.64281383,,,,,,,,,,,,,,,,,,,,,,,8,6,img/B06_08.jpg,BLEND,Press J if the face is a NON-BLEND and K if the face is a BLEND,A blend is a computer-generated image created by combining together multiple photos of real human faces. A non-blend is a regular photo of a human face.,KJ,,,,,,,,,,,,,,,,,,,,,,,,,,,,,,,,,,,,,,,,,,,,,,,,,,,,,,,,,,,,,,4,1.038,,,,,,,,,,,,,,0,45,45,63,1,,,,,,,,,,,,,space,0.3937,,,,,,,,,,,,,,,,,,,,,,,,,,,,,,,,,,,,,,,,,,,,,,,,,,,,,,,,,,,,,,,,,
,,,,597823,001,2023-10-10_24h51.10.815,fluency,2022.2.4,Win32,60.64281383,,,,,,,,,,,,,,,,,,,,,,,10,10,img/B10_10.jpg,BLEND,Press J if the face is a NON-BLEND and K if the face is a BLEND,A blend is a computer-generated image created by combining together multiple photos of real human faces. A non-blend is a regular photo of a human face.,KJ,,,,,,,,,,,,,,,,,,,,,,,,,,,,,,,,,,,,,,,,,,,,,,,,,,,,,,,,,,,,,,,,,,,,,,,,,,,,462.4439,0,46,46,109,1,109,0,0,0,0,1,98,,,,,,,,,,,,,,,,,,,,,,,,,,,,,,,,,,,,,,,,,,,,,,,,,,,,,,,,,,,,,,,,,,,,,,,,
,,,,597823,001,2023-10-10_24h51.10.815,fluency,2022.2.4,Win32,60.64281383,,,,,,,,,,,,,,,,,,,,,,,,,,,,,,,,,,,,,,,,,,,,,,,,,,,,,,,,,,,,,,,,,,,,,,,,,,,,,,,,,,,,,,,,,,,,,,,,,,,,,,,,,,,,,,,,0,0,0,0,1,,"[""k""]",[0.818300000071531],2,"[""k""]",[0.8182000000476819],,,,,,,,,,,,,,,,,,,,,,,,,,,,,,,,,,,,,,,,,,,,,,,,,,,,,,,,,,,,,,,,,,,
,,,,597823,001,2023-10-10_24h51.10.815,fluency,2022.2.4,Win32,60.64281383,,,,,,,,,,,,,,,,,,,,,,,10,10,img/B10_10.jpg,BLEND,Press J if the face is a NON-BLEND and K if the face is a BLEND,A blend is a computer-generated image created by combining together multiple photos of real human faces. A non-blend is a regular photo of a human face.,KJ,,,,,,,,,,,,,,,,,,,,,,,,,,,,,,,,,,,,,,,,,,,,,,,,,,,,,,,,,,,,,,2,0.3132,,,,,,,,,,,,,,0,46,46,109,1,,,,,,,,,,,,,space,0.231,,,,,,,,,,,,,,,,,,,,,,,,,,,,,,,,,,,,,,,,,,,,,,,,,,,,,,,,,,,,,,,,,
,,,,597823,001,2023-10-10_24h51.10.815,fluency,2022.2.4,Win32,60.64281383,,,,,,,,,,,,,,,,,,,,,,,2,9,img/B09_02.jpg,BLEND,Press J if the face is a NON-BLEND and K if the face is a BLEND,A blend is a computer-generated image created by combining together multiple photos of real human faces. A non-blend is a regular photo of a human face.,KJ,,,,,,,,,,,,,,,,,,,,,,,,,,,,,,,,,,,,,,,,,,,,,,,,,,,,,,,,,,,,,,,,,,,,,,,,,,,,467.0762,0,47,47,90,1,109,0,0,0,0,1,98,,,,,,,,,,,,,,,,,,,,,,,,,,,,,,,,,,,,,,,,,,,,,,,,,,,,,,,,,,,,,,,,,,,,,,,,
,,,,597823,001,2023-10-10_24h51.10.815,fluency,2022.2.4,Win32,60.64281383,,,,,,,,,,,,,,,,,,,,,,,,,,,,,,,,,,,,,,,,,,,,,,,,,,,,,,,,,,,,,,,,,,,,,,,,,,,,,,,,,,,,,,,,,,,,,,,,,,,,,,,,,,,,,,,,0,0,0,0,1,,"[""k""]",[0.5657000000476842],2,"[""k""]",[0.5656000000238919],,,,,,,,,,,,,,,,,,,,,,,,,,,,,,,,,,,,,,,,,,,,,,,,,,,,,,,,,,,,,,,,,,,
,,,,597823,001,2023-10-10_24h51.10.815,fluency,2022.2.4,Win32,60.64281383,,,,,,,,,,,,,,,,,,,,,,,2,9,img/B09_02.jpg,BLEND,Press J if the face is a NON-BLEND and K if the face is a BLEND,A blend is a computer-generated image created by combining together multiple photos of real human faces. A non-blend is a regular photo of a human face.,KJ,,,,,,,,,,,,,,,,,,,,,,,,,,,,,,,,,,,,,,,,,,,,,,,,,,,,,,,,,,,,,,7,0.4504,,,,,,,,,,,,,,0,47,47,90,1,,,,,,,,,,,,,space,0.2566,,,,,,,,,,,,,,,,,,,,,,,,,,,,,,,,,,,,,,,,,,,,,,,,,,,,,,,,,,,,,,,,,
,,,,597823,001,2023-10-10_24h51.10.815,fluency,2022.2.4,Win32,60.64281383,,,,,,,,,,,,,,,,,,,,,,,3,6,img/B06_03.jpg,BLEND,Press J if the face is a NON-BLEND and K if the face is a BLEND,A blend is a computer-generated image created by combining together multiple photos of real human faces. A non-blend is a regular photo of a human face.,KJ,,,,,,,,,,,,,,,,,,,,,,,,,,,,,,,,,,,,,,,,,,,,,,,,,,,,,,,,,,,,,,,,,,,,,,,,,,,,472.9272,0,48,48,58,1,109,0,0,0,0,1,98,,,,,,,,,,,,,,,,,,,,,,,,,,,,,,,,,,,,,,,,,,,,,,,,,,,,,,,,,,,,,,,,,,,,,,,,
,,,,597823,001,2023-10-10_24h51.10.815,fluency,2022.2.4,Win32,60.64281383,,,,,,,,,,,,,,,,,,,,,,,,,,,,,,,,,,,,,,,,,,,,,,,,,,,,,,,,,,,,,,,,,,,,,,,,,,,,,,,,,,,,,,,,,,,,,,,,,,,,,,,,,,,,,,,,0,0,0,0,1,,"[""k""]",[0.6835000000000377],2,"[""k""]",[0.6834999999999809],,,,,,,,,,,,,,,,,,,,,,,,,,,,,,,,,,,,,,,,,,,,,,,,,,,,,,,,,,,,,,,,,,,
,,,,597823,001,2023-10-10_24h51.10.815,fluency,2022.2.4,Win32,60.64281383,,,,,,,,,,,,,,,,,,,,,,,3,6,img/B06_03.jpg,BLEND,Press J if the face is a NON-BLEND and K if the face is a BLEND,A blend is a computer-generated image created by combining together multiple photos of real human faces. A non-blend is a regular photo of a human face.,KJ,,,,,,,,,,,,,,,,,,,,,,,,,,,,,,,,,,,,,,,,,,,,,,,,,,,,,,,,,,,,,,4,0.5507,,,,,,,,,,,,,,0,48,48,58,1,,,,,,,,,,,,,space,0.3189,,,,,,,,,,,,,,,,,,,,,,,,,,,,,,,,,,,,,,,,,,,,,,,,,,,,,,,,,,,,,,,,,
,,,,597823,001,2023-10-10_24h51.10.815,fluency,2022.2.4,Win32,60.64281383,,,,,,,,,,,,,,,,,,,,,,,3,4,img/B04_03.jpg,BLEND,Press J if the face is a NON-BLEND and K if the face is a BLEND,A blend is a computer-generated image created by combining together multiple photos of real human faces. A non-blend is a regular photo of a human face.,KJ,,,,,,,,,,,,,,,,,,,,,,,,,,,,,,,,,,,,,,,,,,,,,,,,,,,,,,,,,,,,,,,,,,,,,,,,,,,,477.9594,0,49,49,36,1,109,0,0,0,0,1,98,,,,,,,,,,,,,,,,,,,,,,,,,,,,,,,,,,,,,,,,,,,,,,,,,,,,,,,,,,,,,,,,,,,,,,,,
,,,,597823,001,2023-10-10_24h51.10.815,fluency,2022.2.4,Win32,60.64281383,,,,,,,,,,,,,,,,,,,,,,,,,,,,,,,,,,,,,,,,,,,,,,,,,,,,,,,,,,,,,,,,,,,,,,,,,,,,,,,,,,,,,,,,,,,,,,,,,,,,,,,,,,,,,,,,0,0,0,0,1,,"[""k""]",[0.8490999999045812],2,"[""k""]",[0.8489999999999895],,,,,,,,,,,,,,,,,,,,,,,,,,,,,,,,,,,,,,,,,,,,,,,,,,,,,,,,,,,,,,,,,,,
,,,,597823,001,2023-10-10_24h51.10.815,fluency,2022.2.4,Win32,60.64281383,,,,,,,,,,,,,,,,,,,,,,,3,4,img/B04_03.jpg,BLEND,Press J if the face is a NON-BLEND and K if the face is a BLEND,A blend is a computer-generated image created by combining together multiple photos of real human faces. A non-blend is a regular photo of a human face.,KJ,,,,,,,,,,,,,,,,,,,,,,,,,,,,,,,,,,,,,,,,,,,,,,,,,,,,,,,,,,,,,,5,0.2882,,,,,,,,,,,,,,0,49,49,36,1,,,,,,,,,,,,,space,0.2871,,,,,,,,,,,,,,,,,,,,,,,,,,,,,,,,,,,,,,,,,,,,,,,,,,,,,,,,,,,,,,,,,
,,,,597823,001,2023-10-10_24h51.10.815,fluency,2022.2.4,Win32,60.64281383,,,,,,,,,,,,,,,,,,,,,,,1,5,img/B05_01.jpg,BLEND,Press J if the face is a NON-BLEND and K if the face is a BLEND,A blend is a computer-generated image created by combining together multiple photos of real human faces. A non-blend is a regular photo of a human face.,KJ,,,,,,,,,,,,,,,,,,,,,,,,,,,,,,,,,,,,,,,,,,,,,,,,,,,,,,,,,,,,,,,,,,,,,,,,,,,,482.6752,0,50,50,45,1,109,0,0,0,0,1,98,,,,,,,,,,,,,,,,,,,,,,,,,,,,,,,,,,,,,,,,,,,,,,,,,,,,,,,,,,,,,,,,,,,,,,,,
,,,,597823,001,2023-10-10_24h51.10.815,fluency,2022.2.4,Win32,60.64281383,,,,,,,,,,,,,,,,,,,,,,,,,,,,,,,,,,,,,,,,,,,,,,,,,,,,,,,,,,,,,,,,,,,,,,,,,,,,,,,,,,,,,,,,,,,,,,,,,,,,,,,,,,,,,,,,0,0,0,0,1,,"[""k""]",[0.5848000000715388],2,"[""k""]",[0.5847000000476896],,,,,,,,,,,,,,,,,,,,,,,,,,,,,,,,,,,,,,,,,,,,,,,,,,,,,,,,,,,,,,,,,,,
,,,,597823,001,2023-10-10_24h51.10.815,fluency,2022.2.4,Win32,60.64281383,,,,,,,,,,,,,,,,,,,,,,,1,5,img/B05_01.jpg,BLEND,Press J if the face is a NON-BLEND and K if the face is a BLEND,A blend is a computer-generated image created by combining together multiple photos of real human faces. A non-blend is a regular photo of a human face.,KJ,,,,,,,,,,,,,,,,,,,,,,,,,,,,,,,,,,,,,,,,,,,,,,,,,,,,,,,,,,,,,,3,0.2492,,,,,,,,,,,,,,0,50,50,45,1,,,,,,,,,,,,,space,0.0679,,,,,,,,,,,,,,,,,,,,,,,,,,,,,,,,,,,,,,,,,,,,,,,,,,,,,,,,,,,,,,,,,
,,,,597823,001,2023-10-10_24h51.10.815,fluency,2022.2.4,Win32,60.64281383,,,,,,,,,,,,,,,,,,,,,,,5,10,img/B10_05.jpg,BLEND,Press J if the face is a NON-BLEND and K if the face is a BLEND,A blend is a computer-generated image created by combining together multiple photos of real human faces. A non-blend is a regular photo of a human face.,KJ,,,,,,,,,,,,,,,,,,,,,,,,,,,,,,,,,,,,,,,,,,,,,,,,,,,,,,,,,,,,,,,,,,,,,,,,,,,,487.1245,0,51,51,104,1,109,0,0,0,0,1,98,,,,,,,,,,,,,,,,,,,,,,,,,,,,,,,,,,,,,,,,,,,,,,,,,,,,,,,,,,,,,,,,,,,,,,,,
,,,,597823,001,2023-10-10_24h51.10.815,fluency,2022.2.4,Win32,60.64281383,,,,,,,,,,,,,,,,,,,,,,,,,,,,,,,,,,,,,,,,,,,,,,,,,,,,,,,,,,,,,,,,,,,,,,,,,,,,,,,,,,,,,,,,,,,,,,,,,,,,,,,,,,,,,,,,0,0,0,0,1,,"[""k""]",[0.7329000000953556],2,"[""k""]",[0.7327000000476573],,,,,,,,,,,,,,,,,,,,,,,,,,,,,,,,,,,,,,,,,,,,,,,,,,,,,,,,,,,,,,,,,,,
,,,,597823,001,2023-10-10_24h51.10.815,fluency,2022.2.4,Win32,60.64281383,,,,,,,,,,,,,,,,,,,,,,,5,10,img/B10_05.jpg,BLEND,Press J if the face is a NON-BLEND and K if the face is a BLEND,A blend is a computer-generated image created by combining together multiple photos of real human faces. A non-blend is a regular photo of a human face.,KJ,,,,,,,,,,,,,,,,,,,,,,,,,,,,,,,,,,,,,,,,,,,,,,,,,,,,,,,,,,,,,,2,0.3498,,,,,,,,,,,,,,0,51,51,104,1,,,,,,,,,,,,,space,0.0345,,,,,,,,,,,,,,,,,,,,,,,,,,,,,,,,,,,,,,,,,,,,,,,,,,,,,,,,,,,,,,,,,
,,,,597823,001,2023-10-10_24h51.10.815,fluency,2022.2.4,Win32,60.64281383,,,,,,,,,,,,,,,,,,,,,,,5,8,img/B08_05.jpg,BLEND,Press J if the face is a NON-BLEND and K if the face is a BLEND,A blend is a computer-generated image created by combining together multiple photos of real human faces. A non-blend is a regular photo of a human face.,KJ,,,,,,,,,,,,,,,,,,,,,,,,,,,,,,,,,,,,,,,,,,,,,,,,,,,,,,,,,,,,,,,,,,,,,,,,,,,,492.6715,0,52,52,82,1,109,0,0,0,0,1,98,,,,,,,,,,,,,,,,,,,,,,,,,,,,,,,,,,,,,,,,,,,,,,,,,,,,,,,,,,,,,,,,,,,,,,,,
,,,,597823,001,2023-10-10_24h51.10.815,fluency,2022.2.4,Win32,60.64281383,,,,,,,,,,,,,,,,,,,,,,,,,,,,,,,,,,,,,,,,,,,,,,,,,,,,,,,,,,,,,,,,,,,,,,,,,,,,,,,,,,,,,,,,,,,,,,,,,,,,,,,,,,,,,,,,0,0,0,0,1,,"[""k""]",[0.710700000047666],2,"[""k""]",[0.7106000000238168],,,,,,,,,,,,,,,,,,,,,,,,,,,,,,,,,,,,,,,,,,,,,,,,,,,,,,,,,,,,,,,,,,,
,,,,597823,001,2023-10-10_24h51.10.815,fluency,2022.2.4,Win32,60.64281383,,,,,,,,,,,,,,,,,,,,,,,5,8,img/B08_05.jpg,BLEND,Press J if the face is a NON-BLEND and K if the face is a BLEND,A blend is a computer-generated image created by combining together multiple photos of real human faces. A non-blend is a regular photo of a human face.,KJ,,,,,,,,,,,,,,,,,,,,,,,,,,,,,,,,,,,,,,,,,,,,,,,,,,,,,,,,,,,,,,2,0.2408,,,,,,,,,,,,,,0,52,52,82,1,,,,,,,,,,,,,space,0.0526,,,,,,,,,,,,,,,,,,,,,,,,,,,,,,,,,,,,,,,,,,,,,,,,,,,,,,,,,,,,,,,,,
,,,,597823,001,2023-10-10_24h51.10.815,fluency,2022.2.4,Win32,60.64281383,,,,,,,,,,,,,,,,,,,,,,,10,2,img/B02_10.jpg,BLEND,Press J if the face is a NON-BLEND and K if the face is a BLEND,A blend is a computer-generated image created by combining together multiple photos of real human faces. A non-blend is a regular photo of a human face.,KJ,,,,,,,,,,,,,,,,,,,,,,,,,,,,,,,,,,,,,,,,,,,,,,,,,,,,,,,,,,,,,,,,,,,,,,,,,,,,497.037,0,53,53,21,1,109,0,0,0,0,1,98,,,,,,,,,,,,,,,,,,,,,,,,,,,,,,,,,,,,,,,,,,,,,,,,,,,,,,,,,,,,,,,,,,,,,,,,
,,,,597823,001,2023-10-10_24h51.10.815,fluency,2022.2.4,Win32,60.64281383,,,,,,,,,,,,,,,,,,,,,,,,,,,,,,,,,,,,,,,,,,,,,,,,,,,,,,,,,,,,,,,,,,,,,,,,,,,,,,,,,,,,,,,,,,,,,,,,,,,,,,,,,,,,,,,,0,0,0,0,1,,"[""k""]",[0.8391999999284963],2,"[""k""]",[0.8391000000239046],,,,,,,,,,,,,,,,,,,,,,,,,,,,,,,,,,,,,,,,,,,,,,,,,,,,,,,,,,,,,,,,,,,
,,,,597823,001,2023-10-10_24h51.10.815,fluency,2022.2.4,Win32,60.64281383,,,,,,,,,,,,,,,,,,,,,,,10,2,img/B02_10.jpg,BLEND,Press J if the face is a NON-BLEND and K if the face is a BLEND,A blend is a computer-generated image created by combining together multiple photos of real human faces. A non-blend is a regular photo of a human face.,KJ,,,,,,,,,,,,,,,,,,,,,,,,,,,,,,,,,,,,,,,,,,,,,,,,,,,,,,,,,,,,,,2,0.2583,,,,,,,,,,,,,,0,53,53,21,1,,,,,,,,,,,,,space,0.0876,,,,,,,,,,,,,,,,,,,,,,,,,,,,,,,,,,,,,,,,,,,,,,,,,,,,,,,,,,,,,,,,,
,,,,597823,001,2023-10-10_24h51.10.815,fluency,2022.2.4,Win32,60.64281383,,,,,,,,,,,,,,,,,,,,,,,0,7,img/B07_00.jpg,BLEND,Press J if the face is a NON-BLEND and K if the face is a BLEND,A blend is a computer-generated image created by combining together multiple photos of real human faces. A non-blend is a regular photo of a human face.,KJ,,,,,,,,,,,,,,,,,,,,,,,,,,,,,,,,,,,,,,,,,,,,,,,,,,,,,,,,,,,,,,,,,,,,,,,,,,,,501.4864,0,54,54,66,1,109,0,0,0,0,1,98,,,,,,,,,,,,,,,,,,,,,,,,,,,,,,,,,,,,,,,,,,,,,,,,,,,,,,,,,,,,,,,,,,,,,,,,
,,,,597823,001,2023-10-10_24h51.10.815,fluency,2022.2.4,Win32,60.64281383,,,,,,,,,,,,,,,,,,,,,,,,,,,,,,,,,,,,,,,,,,,,,,,,,,,,,,,,,,,,,,,,,,,,,,,,,,,,,,,,,,,,,,,,,,,,,,,,,,,,,,,,,,,,,,,,0,0,0,0,1,,"[""k""]",[1.6202000000477028],2,"[""k""]",[1.620300000071552],,,,,,,,,,,,,,,,,,,,,,,,,,,,,,,,,,,,,,,,,,,,,,,,,,,,,,,,,,,,,,,,,,,
,,,,597823,001,2023-10-10_24h51.10.815,fluency,2022.2.4,Win32,60.64281383,,,,,,,,,,,,,,,,,,,,,,,0,7,img/B07_00.jpg,BLEND,Press J if the face is a NON-BLEND and K if the face is a BLEND,A blend is a computer-generated image created by combining together multiple photos of real human faces. A non-blend is a regular photo of a human face.,KJ,,,,,,,,,,,,,,,,,,,,,,,,,,,,,,,,,,,,,,,,,,,,,,,,,,,,,,,,,,,,,,4,1.4502,,,,,,,,,,,,,,0,54,54,66,1,,,,,,,,,,,,,space,0.0334,,,,,,,,,,,,,,,,,,,,,,,,,,,,,,,,,,,,,,,,,,,,,,,,,,,,,,,,,,,,,,,,,
,,,,597823,001,2023-10-10_24h51.10.815,fluency,2022.2.4,Win32,60.64281383,,,,,,,,,,,,,,,,,,,,,,,3,5,img/B05_03.jpg,BLEND,Press J if the face is a NON-BLEND and K if the face is a BLEND,A blend is a computer-generated image created by combining together multiple photos of real human faces. A non-blend is a regular photo of a human face.,KJ,,,,,,,,,,,,,,,,,,,,,,,,,,,,,,,,,,,,,,,,,,,,,,,,,,,,,,,,,,,,,,,,,,,,,,,,,,,,507.1708,0,55,55,47,1,109,0,0,0,0,1,98,,,,,,,,,,,,,,,,,,,,,,,,,,,,,,,,,,,,,,,,,,,,,,,,,,,,,,,,,,,,,,,,,,,,,,,,
,,,,597823,001,2023-10-10_24h51.10.815,fluency,2022.2.4,Win32,60.64281383,,,,,,,,,,,,,,,,,,,,,,,,,,,,,,,,,,,,,,,,,,,,,,,,,,,,,,,,,,,,,,,,,,,,,,,,,,,,,,,,,,,,,,,,,,,,,,,,,,,,,,,,,,,,,,,,0,0,0,0,1,,"[""k""]",[0.687899999976139],2,"[""k""]",[0.6877000000476983],,,,,,,,,,,,,,,,,,,,,,,,,,,,,,,,,,,,,,,,,,,,,,,,,,,,,,,,,,,,,,,,,,,
,,,,597823,001,2023-10-10_24h51.10.815,fluency,2022.2.4,Win32,60.64281383,,,,,,,,,,,,,,,,,,,,,,,3,5,img/B05_03.jpg,BLEND,Press J if the face is a NON-BLEND and K if the face is a BLEND,A blend is a computer-generated image created by combining together multiple photos of real human faces. A non-blend is a regular photo of a human face.,KJ,,,,,,,,,,,,,,,,,,,,,,,,,,,,,,,,,,,,,,,,,,,,,,,,,,,,,,,,,,,,,,2,0.2528,,,,,,,,,,,,,,0,55,55,47,1,,,,,,,,,,,,,space,0.0683,,,,,,,,,,,,,,,,,,,,,,,,,,,,,,,,,,,,,,,,,,,,,,,,,,,,,,,,,,,,,,,,,
,,,,597823,001,2023-10-10_24h51.10.815,fluency,2022.2.4,Win32,60.64281383,,,,,,,,,,,,,,,,,,,,,,,1,7,img/B07_01.jpg,BLEND,Press J if the face is a NON-BLEND and K if the face is a BLEND,A blend is a computer-generated image created by combining together multiple photos of real human faces. A non-blend is a regular photo of a human face.,KJ,,,,,,,,,,,,,,,,,,,,,,,,,,,,,,,,,,,,,,,,,,,,,,,,,,,,,,,,,,,,,,,,,,,,,,,,,,,,512.6193,0,56,56,67,1,109,0,0,0,0,1,98,,,,,,,,,,,,,,,,,,,,,,,,,,,,,,,,,,,,,,,,,,,,,,,,,,,,,,,,,,,,,,,,,,,,,,,,
,,,,597823,001,2023-10-10_24h51.10.815,fluency,2022.2.4,Win32,60.64281383,,,,,,,,,,,,,,,,,,,,,,,,,,,,,,,,,,,,,,,,,,,,,,,,,,,,,,,,,,,,,,,,,,,,,,,,,,,,,,,,,,,,,,,,,,,,,,,,,,,,,,,,,,,,,,,,0,0,0,0,1,,"[""k""]",[0.5034999999999172],2,"[""k""]",[0.5034000000953256],,,,,,,,,,,,,,,,,,,,,,,,,,,,,,,,,,,,,,,,,,,,,,,,,,,,,,,,,,,,,,,,,,,
,,,,597823,001,2023-10-10_24h51.10.815,fluency,2022.2.4,Win32,60.64281383,,,,,,,,,,,,,,,,,,,,,,,1,7,img/B07_01.jpg,BLEND,Press J if the face is a NON-BLEND and K if the face is a BLEND,A blend is a computer-generated image created by combining together multiple photos of real human faces. A non-blend is a regular photo of a human face.,KJ,,,,,,,,,,,,,,,,,,,,,,,,,,,,,,,,,,,,,,,,,,,,,,,,,,,,,,,,,,,,,,5,0.571,,,,,,,,,,,,,,0,56,56,67,1,,,,,,,,,,,,,space,0.0815,,,,,,,,,,,,,,,,,,,,,,,,,,,,,,,,,,,,,,,,,,,,,,,,,,,,,,,,,,,,,,,,,
,,,,597823,001,2023-10-10_24h51.10.815,fluency,2022.2.4,Win32,60.64281383,,,,,,,,,,,,,,,,,,,,,,,6,7,img/B07_06.jpg,BLEND,Press J if the face is a NON-BLEND and K if the face is a BLEND,A blend is a computer-generated image created by combining together multiple photos of real human faces. A non-blend is a regular photo of a human face.,KJ,,,,,,,,,,,,,,,,,,,,,,,,,,,,,,,,,,,,,,,,,,,,,,,,,,,,,,,,,,,,,,,,,,,,,,,,,,,,518.4017,0,57,57,72,1,109,0,0,0,0,1,98,,,,,,,,,,,,,,,,,,,,,,,,,,,,,,,,,,,,,,,,,,,,,,,,,,,,,,,,,,,,,,,,,,,,,,,,
,,,,597823,001,2023-10-10_24h51.10.815,fluency,2022.2.4,Win32,60.64281383,,,,,,,,,,,,,,,,,,,,,,,,,,,,,,,,,,,,,,,,,,,,,,,,,,,,,,,,,,,,,,,,,,,,,,,,,,,,,,,,,,,,,,,,,,,,,,,,,,,,,,,,,,,,,,,,0,0,0,0,1,,"[""k""]",[0.6406999999284153],2,"[""k""]",[0.6406000000238237],,,,,,,,,,,,,,,,,,,,,,,,,,,,,,,,,,,,,,,,,,,,,,,,,,,,,,,,,,,,,,,,,,,
,,,,597823,001,2023-10-10_24h51.10.815,fluency,2022.2.4,Win32,60.64281383,,,,,,,,,,,,,,,,,,,,,,,6,7,img/B07_06.jpg,BLEND,Press J if the face is a NON-BLEND and K if the face is a BLEND,A blend is a computer-generated image created by combining together multiple photos of real human faces. A non-blend is a regular photo of a human face.,KJ,,,,,,,,,,,,,,,,,,,,,,,,,,,,,,,,,,,,,,,,,,,,,,,,,,,,,,,,,,,,,,4,0.5993,,,,,,,,,,,,,,0,57,57,72,1,,,,,,,,,,,,,space,0.0505,,,,,,,,,,,,,,,,,,,,,,,,,,,,,,,,,,,,,,,,,,,,,,,,,,,,,,,,,,,,,,,,,
,,,,597823,001,2023-10-10_24h51.10.815,fluency,2022.2.4,Win32,60.64281383,,,,,,,,,,,,,,,,,,,,,,,0,8,img/B08_00.jpg,BLEND,Press J if the face is a NON-BLEND and K if the face is a BLEND,A blend is a computer-generated image created by combining together multiple photos of real human faces. A non-blend is a regular photo of a human face.,KJ,,,,,,,,,,,,,,,,,,,,,,,,,,,,,,,,,,,,,,,,,,,,,,,,,,,,,,,,,,,,,,,,,,,,,,,,,,,,524.1654,0,58,58,77,1,109,0,0,0,0,1,98,,,,,,,,,,,,,,,,,,,,,,,,,,,,,,,,,,,,,,,,,,,,,,,,,,,,,,,,,,,,,,,,,,,,,,,,
,,,,597823,001,2023-10-10_24h51.10.815,fluency,2022.2.4,Win32,60.64281383,,,,,,,,,,,,,,,,,,,,,,,,,,,,,,,,,,,,,,,,,,,,,,,,,,,,,,,,,,,,,,,,,,,,,,,,,,,,,,,,,,,,,,,,,,,,,,,,,,,,,,,,,,,,,,,,0,0,0,0,1,,"[""k""]",[0.5676000000238446],2,"[""k""]",[0.5676000000238446],,,,,,,,,,,,,,,,,,,,,,,,,,,,,,,,,,,,,,,,,,,,,,,,,,,,,,,,,,,,,,,,,,,
,,,,597823,001,2023-10-10_24h51.10.815,fluency,2022.2.4,Win32,60.64281383,,,,,,,,,,,,,,,,,,,,,,,0,8,img/B08_00.jpg,BLEND,Press J if the face is a NON-BLEND and K if the face is a BLEND,A blend is a computer-generated image created by combining together multiple photos of real human faces. A non-blend is a regular photo of a human face.,KJ,,,,,,,,,,,,,,,,,,,,,,,,,,,,,,,,,,,,,,,,,,,,,,,,,,,,,,,,,,,,,,1,0.2871,,,,,,,,,,,,,,0,58,58,77,1,,,,,,,,,,,,,space,0.0606,,,,,,,,,,,,,,,,,,,,,,,,,,,,,,,,,,,,,,,,,,,,,,,,,,,,,,,,,,,,,,,,,
,,,,597823,001,2023-10-10_24h51.10.815,fluency,2022.2.4,Win32,60.64281383,,,,,,,,,,,,,,,,,,,,,,,4,5,img/B05_04.jpg,BLEND,Press J if the face is a NON-BLEND and K if the face is a BLEND,A blend is a computer-generated image created by combining together multiple photos of real human faces. A non-blend is a regular photo of a human face.,KJ,,,,,,,,,,,,,,,,,,,,,,,,,,,,,,,,,,,,,,,,,,,,,,,,,,,,,,,,,,,,,,,,,,,,,,,,,,,,529.5493,0,59,59,48,1,109,0,0,0,0,1,98,,,,,,,,,,,,,,,,,,,,,,,,,,,,,,,,,,,,,,,,,,,,,,,,,,,,,,,,,,,,,,,,,,,,,,,,
,,,,597823,001,2023-10-10_24h51.10.815,fluency,2022.2.4,Win32,60.64281383,,,,,,,,,,,,,,,,,,,,,,,,,,,,,,,,,,,,,,,,,,,,,,,,,,,,,,,,,,,,,,,,,,,,,,,,,,,,,,,,,,,,,,,,,,,,,,,,,,,,,,,,,,,,,,,,0,0,0,0,1,,"[""k""]",[0.5983999999762091],2,"[""k""]",[0.5983999999762091],,,,,,,,,,,,,,,,,,,,,,,,,,,,,,,,,,,,,,,,,,,,,,,,,,,,,,,,,,,,,,,,,,,
,,,,597823,001,2023-10-10_24h51.10.815,fluency,2022.2.4,Win32,60.64281383,,,,,,,,,,,,,,,,,,,,,,,4,5,img/B05_04.jpg,BLEND,Press J if the face is a NON-BLEND and K if the face is a BLEND,A blend is a computer-generated image created by combining together multiple photos of real human faces. A non-blend is a regular photo of a human face.,KJ,,,,,,,,,,,,,,,,,,,,,,,,,,,,,,,,,,,,,,,,,,,,,,,,,,,,,,,,,,,,,,1,0.262,,,,,,,,,,,,,,0,59,59,48,1,,,,,,,,,,,,,space,0.0557,,,,,,,,,,,,,,,,,,,,,,,,,,,,,,,,,,,,,,,,,,,,,,,,,,,,,,,,,,,,,,,,,
,,,,597823,001,2023-10-10_24h51.10.815,fluency,2022.2.4,Win32,60.64281383,,,,,,,,,,,,,,,,,,,,,,,0,2,img/B02_00.jpg,BLEND,Press J if the face is a NON-BLEND and K if the face is a BLEND,A blend is a computer-generated image created by combining together multiple photos of real human faces. A non-blend is a regular photo of a human face.,KJ,,,,,,,,,,,,,,,,,,,,,,,,,,,,,,,,,,,,,,,,,,,,,,,,,,,,,,,,,,,,,,,,,,,,,,,,,,,,534.0319,0,60,60,11,1,109,0,0,0,0,1,98,,,,,,,,,,,,,,,,,,,,,,,,,,,,,,,,,,,,,,,,,,,,,,,,,,,,,,,,,,,,,,,,,,,,,,,,
,,,,597823,001,2023-10-10_24h51.10.815,fluency,2022.2.4,Win32,60.64281383,,,,,,,,,,,,,,,,,,,,,,,,,,,,,,,,,,,,,,,,,,,,,,,,,,,,,,,,,,,,,,,,,,,,,,,,,,,,,,,,,,,,,,,,,,,,,,,,,,,,,,,,,,,,,,,,0,0,0,0,1,,"[""k""]",[0.6733000000715492],2,"[""k""]",[0.6665000000000418],,,,,,,,,,,,,,,,,,,,,,,,,,,,,,,,,,,,,,,,,,,,,,,,,,,,,,,,,,,,,,,,,,,
,,,,597823,001,2023-10-10_24h51.10.815,fluency,2022.2.4,Win32,60.64281383,,,,,,,,,,,,,,,,,,,,,,,0,2,img/B02_00.jpg,BLEND,Press J if the face is a NON-BLEND and K if the face is a BLEND,A blend is a computer-generated image created by combining together multiple photos of real human faces. A non-blend is a regular photo of a human face.,KJ,,,,,,,,,,,,,,,,,,,,,,,,,,,,,,,,,,,,,,,,,,,,,,,,,,,,,,,,,,,,,,1,0.2721,,,,,,,,,,,,,,0,60,60,11,1,,,,,,,,,,,,,space,0.0346,,,,,,,,,,,,,,,,,,,,,,,,,,,,,,,,,,,,,,,,,,,,,,,,,,,,,,,,,,,,,,,,,
,,,,597823,001,2023-10-10_24h51.10.815,fluency,2022.2.4,Win32,60.64281383,,,,,,,,,,,,,,,,,,,,,,,1,1,img/B01_01.jpg,BLEND,Press J if the face is a NON-BLEND and K if the face is a BLEND,A blend is a computer-generated image created by combining together multiple photos of real human faces. A non-blend is a regular photo of a human face.,KJ,,,,,,,,,,,,,,,,,,,,,,,,,,,,,,,,,,,,,,,,,,,,,,,,,,,,,,,,,,,,,,,,,,,,,,,,,,,,539.4978,0,61,61,1,1,109,0,0,0,0,1,98,,,,,,,,,,,,,,,,,,,,,,,,,,,,,,,,,,,,,,,,,,,,,,,,,,,,,,,,,,,,,,,,,,,,,,,,
,,,,597823,001,2023-10-10_24h51.10.815,fluency,2022.2.4,Win32,60.64281383,,,,,,,,,,,,,,,,,,,,,,,,,,,,,,,,,,,,,,,,,,,,,,,,,,,,,,,,,,,,,,,,,,,,,,,,,,,,,,,,,,,,,,,,,,,,,,,,,,,,,,,,,,,,,,,,0,0,0,0,1,,"[""k""]",[0.7095000000000482],2,"[""k""]",[0.7095000000000482],,,,,,,,,,,,,,,,,,,,,,,,,,,,,,,,,,,,,,,,,,,,,,,,,,,,,,,,,,,,,,,,,,,
,,,,597823,001,2023-10-10_24h51.10.815,fluency,2022.2.4,Win32,60.64281383,,,,,,,,,,,,,,,,,,,,,,,1,1,img/B01_01.jpg,BLEND,Press J if the face is a NON-BLEND and K if the face is a BLEND,A blend is a computer-generated image created by combining together multiple photos of real human faces. A non-blend is a regular photo of a human face.,KJ,,,,,,,,,,,,,,,,,,,,,,,,,,,,,,,,,,,,,,,,,,,,,,,,,,,,,,,,,,,,,,3,0.3822,,,,,,,,,,,,,,0,61,61,1,1,,,,,,,,,,,,,space,0.0404,,,,,,,,,,,,,,,,,,,,,,,,,,,,,,,,,,,,,,,,,,,,,,,,,,,,,,,,,,,,,,,,,
,,,,597823,001,2023-10-10_24h51.10.815,fluency,2022.2.4,Win32,60.64281383,,,,,,,,,,,,,,,,,,,,,,,9,9,img/B09_09.jpg,BLEND,Press J if the face is a NON-BLEND and K if the face is a BLEND,A blend is a computer-generated image created by combining together multiple photos of real human faces. A non-blend is a regular photo of a human face.,KJ,,,,,,,,,,,,,,,,,,,,,,,,,,,,,,,,,,,,,,,,,,,,,,,,,,,,,,,,,,,,,,,,,,,,,,,,,,,,544.0649,0,62,62,97,1,109,0,0,0,0,1,98,,,,,,,,,,,,,,,,,,,,,,,,,,,,,,,,,,,,,,,,,,,,,,,,,,,,,,,,,,,,,,,,,,,,,,,,
,,,,597823,001,2023-10-10_24h51.10.815,fluency,2022.2.4,Win32,60.64281383,,,,,,,,,,,,,,,,,,,,,,,,,,,,,,,,,,,,,,,,,,,,,,,,,,,,,,,,,,,,,,,,,,,,,,,,,,,,,,,,,,,,,,,,,,,,,,,,,,,,,,,,,,,,,,,,0,0,0,0,1,,"[""k""]",[0.62110000002383],2,"[""k""]",[0.6208999999762455],,,,,,,,,,,,,,,,,,,,,,,,,,,,,,,,,,,,,,,,,,,,,,,,,,,,,,,,,,,,,,,,,,,
,,,,597823,001,2023-10-10_24h51.10.815,fluency,2022.2.4,Win32,60.64281383,,,,,,,,,,,,,,,,,,,,,,,9,9,img/B09_09.jpg,BLEND,Press J if the face is a NON-BLEND and K if the face is a BLEND,A blend is a computer-generated image created by combining together multiple photos of real human faces. A non-blend is a regular photo of a human face.,KJ,,,,,,,,,,,,,,,,,,,,,,,,,,,,,,,,,,,,,,,,,,,,,,,,,,,,,,,,,,,,,,2,0.2908,,,,,,,,,,,,,,0,62,62,97,1,,,,,,,,,,,,,space,0.0857,,,,,,,,,,,,,,,,,,,,,,,,,,,,,,,,,,,,,,,,,,,,,,,,,,,,,,,,,,,,,,,,,
,,,,597823,001,2023-10-10_24h51.10.815,fluency,2022.2.4,Win32,60.64281383,,,,,,,,,,,,,,,,,,,,,,,3,1,img/B01_03.jpg,BLEND,Press J if the face is a NON-BLEND and K if the face is a BLEND,A blend is a computer-generated image created by combining together multiple photos of real human faces. A non-blend is a regular photo of a human face.,KJ,,,,,,,,,,,,,,,,,,,,,,,,,,,,,,,,,,,,,,,,,,,,,,,,,,,,,,,,,,,,,,,,,,,,,,,,,,,,549.5622,0,63,63,3,1,109,0,0,0,0,1,98,,,,,,,,,,,,,,,,,,,,,,,,,,,,,,,,,,,,,,,,,,,,,,,,,,,,,,,,,,,,,,,,,,,,,,,,
,,,,597823,001,2023-10-10_24h51.10.815,fluency,2022.2.4,Win32,60.64281383,,,,,,,,,,,,,,,,,,,,,,,,,,,,,,,,,,,,,,,,,,,,,,,,,,,,,,,,,,,,,,,,,,,,,,,,,,,,,,,,,,,,,,,,,,,,,,,,,,,,,,,,,,,,,,,,0,0,0,0,1,,"[""k""]",[0.5960000000000036],2,"[""k""]",[0.5958999999761545],,,,,,,,,,,,,,,,,,,,,,,,,,,,,,,,,,,,,,,,,,,,,,,,,,,,,,,,,,,,,,,,,,,
,,,,597823,001,2023-10-10_24h51.10.815,fluency,2022.2.4,Win32,60.64281383,,,,,,,,,,,,,,,,,,,,,,,3,1,img/B01_03.jpg,BLEND,Press J if the face is a NON-BLEND and K if the face is a BLEND,A blend is a computer-generated image created by combining together multiple photos of real human faces. A non-blend is a regular photo of a human face.,KJ,,,,,,,,,,,,,,,,,,,,,,,,,,,,,,,,,,,,,,,,,,,,,,,,,,,,,,,,,,,,,,2,0.3122,,,,,,,,,,,,,,0,63,63,3,1,,,,,,,,,,,,,space,0.0502,,,,,,,,,,,,,,,,,,,,,,,,,,,,,,,,,,,,,,,,,,,,,,,,,,,,,,,,,,,,,,,,,
,,,,597823,001,2023-10-10_24h51.10.815,fluency,2022.2.4,Win32,60.64281383,,,,,,,,,,,,,,,,,,,,,,,3,7,img/B07_03.jpg,BLEND,Press J if the face is a NON-BLEND and K if the face is a BLEND,A blend is a computer-generated image created by combining together multiple photos of real human faces. A non-blend is a regular photo of a human face.,KJ,,,,,,,,,,,,,,,,,,,,,,,,,,,,,,,,,,,,,,,,,,,,,,,,,,,,,,,,,,,,,,,,,,,,,,,,,,,,553.9759,0,64,64,69,1,109,0,0,0,0,1,98,,,,,,,,,,,,,,,,,,,,,,,,,,,,,,,,,,,,,,,,,,,,,,,,,,,,,,,,,,,,,,,,,,,,,,,,
,,,,597823,001,2023-10-10_24h51.10.815,fluency,2022.2.4,Win32,60.64281383,,,,,,,,,,,,,,,,,,,,,,,,,,,,,,,,,,,,,,,,,,,,,,,,,,,,,,,,,,,,,,,,,,,,,,,,,,,,,,,,,,,,,,,,,,,,,,,,,,,,,,,,,,,,,,,,0,0,0,0,1,,"[""k""]",[0.6593999999761309],2,"[""k""]",[0.6592999999522817],,,,,,,,,,,,,,,,,,,,,,,,,,,,,,,,,,,,,,,,,,,,,,,,,,,,,,,,,,,,,,,,,,,
