idTextbox.text,welcomeDone.numClicks,welcomeDone.timesOn,welcomeDone.timesOff,participant,session,date,expName,psychopyVersion,OS,frameRate,consent_advance.keys,consent_advance.rt,consent_advance_2.keys,consent_advance_2.rt,consentClick.x,consentClick.y,consentClick.leftButton,consentClick.midButton,consentClick.rightButton,consentClick.time,consentClick.clicked_name,instr_advance_3.keys,instr_advance_3.rt,spec_instr_adv.keys,spec_instr_adv.rt,spec_instr_adv2.keys,spec_instr_adv2.rt,instrLoop.thisRepN,instrLoop.thisTrialN,instrLoop.thisN,instrLoop.thisIndex,instrLoop.ran,steps,fams,face_file,cond,instr,term,key_map,attnKeyResp1.keys,attnKeyResp1.rt,q1.thisRepN,q1.thisTrialN,q1.thisN,q1.thisIndex,q1.ran,attnKeyResp2.keys,attnKeyResp2.rt,q2.thisRepN,q2.thisTrialN,q2.thisN,q2.thisIndex,q2.ran,attnKeyResp3.keys,attnKeyResp3.rt,q3.thisRepN,q3.thisTrialN,q3.thisN,q3.thisIndex,q3.ran,practiceStart.keys,practiceStart.rt,practiceResp.keys,practiceResp.rt,timesRedone,practiceRepeat.thisRepN,practiceRepeat.thisTrialN,practiceRepeat.thisN,practiceRepeat.thisIndex,practiceRepeat.ran,attrRating.keys,attrRating.rt,practiceTrial.thisRepN,practiceTrial.thisTrialN,practiceTrial.thisN,practiceTrial.thisIndex,practiceTrial.ran,key_resp_3.keys,key_resp_3.rt,attnChecker.thisRepN,attnChecker.thisTrialN,attnChecker.thisN,attnChecker.thisIndex,attnChecker.ran,faceOnsetTime,trials.thisRepN,trials.thisTrialN,trials.thisN,trials.thisIndex,trials.ran,trials.order,repeat_loop.thisRepN,repeat_loop.thisTrialN,repeat_loop.thisN,repeat_loop.thisIndex,repeat_loop.ran,repeat_loop.order,catResp.keys,catResp.rt,globalTimesRedone,catAllKeys.keys,catAllKeys.rt,contResp.keys,contResp.rt,contResp_2.keys,contResp_2.rt,respQ1.response,respQ1.rt,respQ2.response,respQ2.rt,respQ3.response,respQ3.rt,respQ4.response,respQ4.rt,surveyContinue1.numClicks,surveyContinue1.timesOn,surveyContinue1.timesOff,respQ5.response,respQ5.rt,respQ6.response,respQ6.rt,respQ7.response,respQ7.rt,respQ8.response,respQ8.rt,surveyContinue2.numClicks,surveyContinue2.timesOn,surveyContinue2.timesOff,respQ9.response,respQ9.rt,respQ10.response,respQ10.rt,respQ11.response,respQ11.rt,respQ12.response,respQ12.rt,surveyContinue3.numClicks,surveyContinue3.timesOn,surveyContinue3.timesOff,respQ13.response,respQ13.rt,respQ14.response,respQ14.rt,respQ15.response,respQ15.rt,surveyContinue4.numClicks,surveyContinue4.timesOn,surveyContinue4.timesOff,respAge.response,respAge.rt,genderResp1.response,genderResp1.rt,genderResp2.text,demogexitClick.numClicks,demogexitClick.timesOn,demogexitClick.timesOff,textbox.text,openAnswerClick.numClicks,openAnswerClick.timesOn,openAnswerClick.timesOff,debriefEnd.keys,debriefEnd.rt,exitKey.keys,exitKey.rt
612520bd6605794b27e6a0fd,1,[29.926199999809267],[29.92639999985695],177540,001,2023-11-09_19h41.47.209,fluency,2022.2.4,Win32,60.10337781,,,,,,,,,,,,,,,,,,,,,,,,,,,,,,,,,,,,,,,,,,,,,,,,,,,,,,,,,,,,,,,,,,,,,,,,,,,,,,,,,,,,,,,,,,,,,,,,,,,,,,,,,,,,,,,,,,,,,,,,,,,,,,,,,,,,,,,,,,,,,,,,,,,,,,,,,,
,,,,177540,001,2023-11-09_19h41.47.209,fluency,2022.2.4,Win32,60.10337781,space,82.2014,,,,,,,,,,,,,,,,,,,,,,,,,,,,,,,,,,,,,,,,,,,,,,,,,,,,,,,,,,,,,,,,,,,,,,,,,,,,,,,,,,,,,,,,,,,,,,,,,,,,,,,,,,,,,,,,,,,,,,,,,,,,,,,,,,,,,,,,,,,,,,,,,,,,,,,,
,,,,177540,001,2023-11-09_19h41.47.209,fluency,2022.2.4,Win32,60.10337781,,,space,46.0905,,,,,,,,,,,,,,,,,,,,,,,,,,,,,,,,,,,,,,,,,,,,,,,,,,,,,,,,,,,,,,,,,,,,,,,,,,,,,,,,,,,,,,,,,,,,,,,,,,,,,,,,,,,,,,,,,,,,,,,,,,,,,,,,,,,,,,,,,,,,,,,,,,,,,,
,,,,177540,001,2023-11-09_19h41.47.209,fluency,2022.2.4,Win32,60.10337781,,,,,0.305833333,-0.335833333,1,0,0,24.0826,iAgree,,,,,,,,,,,,,,,,,,,,,,,,,,,,,,,,,,,,,,,,,,,,,,,,,,,,,,,,,,,,,,,,,,,,,,,,,,,,,,,,,,,,,,,,,,,,,,,,,,,,,,,,,,,,,,,,,,,,,,,,,,,,,,,,,,,,,,,,,,,,,,,
,,,,177540,001,2023-11-09_19h41.47.209,fluency,2022.2.4,Win32,60.10337781,,,,,,,,,,,,space,26.8546,,,,,,,,,,,,,,,,,,,,,,,,,,,,,,,,,,,,,,,,,,,,,,,,,,,,,,,,,,,,,,,,,,,,,,,,,,,,,,,,,,,,,,,,,,,,,,,,,,,,,,,,,,,,,,,,,,,,,,,,,,,,,,,,,,,,,,,,,,,,,
,,,,177540,001,2023-11-09_19h41.47.209,fluency,2022.2.4,Win32,60.10337781,,,,,,,,,,,,,,space,26.9852,space,16.6972,0,0,0,20,1,9,2,img/B02_09.jpg,CONTROL,Press K as soon as you see a face, ,KJ,,,,,,,,,,,,,,,,,,,,,,,,,,,,,,,,,,,,,,,,,,,,,,,,,,,,,,,,,,,,,,,,,,,,,,,,,,,,,,,,,,,,,,,,,,,,,,,,,,,,,,,,,,,,,,,,,,,,,,,,,,,,,
,,,,177540,001,2023-11-09_19h41.47.209,fluency,2022.2.4,Win32,60.10337781,,,,,,,,,,,,,,,,,,,,,,,,,,,,,,c,11.9065,0,0,0,0,1,,,,,,,,,,,,,,,,,,,,,,,,,,,,,,,,,,,,,,,,,,,,,,,,,,,,,,,,,,,,,,,,,,,,,,,,,,,,,,,,,,,,,,,,,,,,,,,,,,,,,,,,,,,,,,,,,,,,,,
,,,,177540,001,2023-11-09_19h41.47.209,fluency,2022.2.4,Win32,60.10337781,,,,,,,,,,,,,,,,,,,,,,,,,,,,,,,,,,,,,a,12.9809,0,0,0,0,1,,,,,,,,,,,,,,,,,,,,,,,,,,,,,,,,,,,,,,,,,,,,,,,,,,,,,,,,,,,,,,,,,,,,,,,,,,,,,,,,,,,,,,,,,,,,,,,,,,,,,,,,,,,,,,,
,,,,177540,001,2023-11-09_19h41.47.209,fluency,2022.2.4,Win32,60.10337781,,,,,,,,,,,,,,,,,,,,,,,,,,,,,,,,,,,,,,,,,,,,c,20.3494,0,0,0,0,1,,,,,,,,,,,,,,,,,,,,,,,,,,,,,,,,,,,,,,,,,,,,,,,,,,,,,,,,,,,,,,,,,,,,,,,,,,,,,,,,,,,,,,,,,,,,,,,,,,,,,,,,
,,,,177540,001,2023-11-09_19h41.47.209,fluency,2022.2.4,Win32,60.10337781,,,,,,,,,,,,,,,,,,,,,,,,,,,,,,,,,,,,,,,,,,,,,,,,,,,space,8.4572,k,0.3881,0,0,0,0,0,1,,,,,,,,,,,,,,,,,,,,,,,,,,,,,,,,,,,,,,,,,,,,,,,,,,,,,,,,,,,,,,,,,,,,,,,,,,,,,,,,,,,,,,,,,,,,,,
,,,,177540,001,2023-11-09_19h41.47.209,fluency,2022.2.4,Win32,60.10337781,,,,,,,,,,,,,,,,,,,,,,,,,,,,,,,,,,,,,,,,,,,,,,,,,,,,,,,,,,,,,6,10.3337,0,0,0,0,1,,,,,,,,,,,,,,,,,,,,,,,,,,,,,,,,,,,,,,,,,,,,,,,,,,,,,,,,,,,,,,,,,,,,,,,,,,,,,,,,,,,,,,,
,,,,177540,001,2023-11-09_19h41.47.209,fluency,2022.2.4,Win32,60.10337781,,,,,,,,,,,,,,,,,,,,,,,,,,,,,,,,,,,,,,,,,,,,,,,,,,,,,,,,,,,,,,,,,,,,space,30.7888,0,0,0,0,1,,,,,,,,,,,,,,,,,,,,,,,,,,,,,,,,,,,,,,,,,,,,,,,,,,,,,,,,,,,,,,,,,,,,,,,,,,,,,,,,
,,,,177540,001,2023-11-09_19h41.47.209,fluency,2022.2.4,Win32,60.10337781,,,,,,,,,,,,,,,,,,,,,,,6,5,img/B05_06.jpg,CONTROL,Press K as soon as you see a face, ,KJ,,,,,,,,,,,,,,,,,,,,,,,,,,,,,,,,,,,,,,,,,,,,,,373.2226,0,0,0,50,1,109,0,0,0,0,1,98,,,,,,,,,,,,,,,,,,,,,,,,,,,,,,,,,,,,,,,,,,,,,,,,,,,,,,,,,,,,,,,,,,,
,,,,177540,001,2023-11-09_19h41.47.209,fluency,2022.2.4,Win32,60.10337781,,,,,,,,,,,,,,,,,,,,,,,,,,,,,,,,,,,,,,,,,,,,,,,,,,,,,,,,,,,,,,,,,,,,,,,,,,,,,,,,,,0,0,0,0,1,,"[""k"",""k""]","[0.33119999980931425,0.44339999985697887]",0,"[""k"",""k""]","[0.33109999990466576,0.4432999999523304]",,,,,,,,,,,,,,,,,,,,,,,,,,,,,,,,,,,,,,,,,,,,,,,,,,,,,,,,,,,,,,
,,,,177540,001,2023-11-09_19h41.47.209,fluency,2022.2.4,Win32,60.10337781,,,,,,,,,,,,,,,,,,,,,,,6,5,img/B05_06.jpg,CONTROL,Press K as soon as you see a face, ,KJ,,,,,,,,,,,,,,,,,,,,,,,,,,,,,,,,7,5.9576,,,,,,,,,,,,,,0,0,0,50,1,,,,,,,,,,,,,space,4.8859,,,,,,,,,,,,,,,,,,,,,,,,,,,,,,,,,,,,,,,,,,,,,,,,,,,,,,,,,,,,
,,,,177540,001,2023-11-09_19h41.47.209,fluency,2022.2.4,Win32,60.10337781,,,,,,,,,,,,,,,,,,,,,,,2,4,img/B04_02.jpg,CONTROL,Press K as soon as you see a face, ,KJ,,,,,,,,,,,,,,,,,,,,,,,,,,,,,,,,,,,,,,,,,,,,,,389.1195,0,1,1,35,1,109,0,0,0,0,1,98,,,,,,,,,,,,,,,,,,,,,,,,,,,,,,,,,,,,,,,,,,,,,,,,,,,,,,,,,,,,,,,,,,,
,,,,177540,001,2023-11-09_19h41.47.209,fluency,2022.2.4,Win32,60.10337781,,,,,,,,,,,,,,,,,,,,,,,,,,,,,,,,,,,,,,,,,,,,,,,,,,,,,,,,,,,,,,,,,,,,,,,,,,,,,,,,,,0,0,0,0,1,,"[""k""]",[0.4995000000000118],0,"[""k""]",[0.4995000000000118],,,,,,,,,,,,,,,,,,,,,,,,,,,,,,,,,,,,,,,,,,,,,,,,,,,,,,,,,,,,,,
,,,,177540,001,2023-11-09_19h41.47.209,fluency,2022.2.4,Win32,60.10337781,,,,,,,,,,,,,,,,,,,,,,,2,4,img/B04_02.jpg,CONTROL,Press K as soon as you see a face, ,KJ,,,,,,,,,,,,,,,,,,,,,,,,,,,,,,,,8,5.5361,,,,,,,,,,,,,,0,1,1,35,1,,,,,,,,,,,,,space,1.8853,,,,,,,,,,,,,,,,,,,,,,,,,,,,,,,,,,,,,,,,,,,,,,,,,,,,,,,,,,,,
,,,,177540,001,2023-11-09_19h41.47.209,fluency,2022.2.4,Win32,60.10337781,,,,,,,,,,,,,,,,,,,,,,,4,10,img/B10_04.jpg,CONTROL,Press K as soon as you see a face, ,KJ,,,,,,,,,,,,,,,,,,,,,,,,,,,,,,,,,,,,,,,,,,,,,,400.5961,0,2,2,103,1,109,0,0,0,0,1,98,,,,,,,,,,,,,,,,,,,,,,,,,,,,,,,,,,,,,,,,,,,,,,,,,,,,,,,,,,,,,,,,,,,
,,,,177540,001,2023-11-09_19h41.47.209,fluency,2022.2.4,Win32,60.10337781,,,,,,,,,,,,,,,,,,,,,,,,,,,,,,,,,,,,,,,,,,,,,,,,,,,,,,,,,,,,,,,,,,,,,,,,,,,,,,,,,,0,0,0,0,1,,"[""k""]",[0.6315000000000168],0,"[""k""]",[0.631399999856967],,,,,,,,,,,,,,,,,,,,,,,,,,,,,,,,,,,,,,,,,,,,,,,,,,,,,,,,,,,,,,
,,,,177540,001,2023-11-09_19h41.47.209,fluency,2022.2.4,Win32,60.10337781,,,,,,,,,,,,,,,,,,,,,,,4,10,img/B10_04.jpg,CONTROL,Press K as soon as you see a face, ,KJ,,,,,,,,,,,,,,,,,,,,,,,,,,,,,,,,6,2.4549,,,,,,,,,,,,,,0,2,2,103,1,,,,,,,,,,,,,space,2.2859,,,,,,,,,,,,,,,,,,,,,,,,,,,,,,,,,,,,,,,,,,,,,,,,,,,,,,,,,,,,
,,,,177540,001,2023-11-09_19h41.47.209,fluency,2022.2.4,Win32,60.10337781,,,,,,,,,,,,,,,,,,,,,,,0,8,img/B08_00.jpg,CONTROL,Press K as soon as you see a face, ,KJ,,,,,,,,,,,,,,,,,,,,,,,,,,,,,,,,,,,,,,,,,,,,,,409.387,0,3,3,77,1,109,0,0,0,0,1,98,,,,,,,,,,,,,,,,,,,,,,,,,,,,,,,,,,,,,,,,,,,,,,,,,,,,,,,,,,,,,,,,,,,
,,,,177540,001,2023-11-09_19h41.47.209,fluency,2022.2.4,Win32,60.10337781,,,,,,,,,,,,,,,,,,,,,,,,,,,,,,,,,,,,,,,,,,,,,,,,,,,,,,,,,,,,,,,,,,,,,,,,,,,,,,,,,,0,0,0,0,1,,"[""k""]",[0.38450000000000273],0,"[""k""]",[0.3837999999523163],,,,,,,,,,,,,,,,,,,,,,,,,,,,,,,,,,,,,,,,,,,,,,,,,,,,,,,,,,,,,,
,,,,177540,001,2023-11-09_19h41.47.209,fluency,2022.2.4,Win32,60.10337781,,,,,,,,,,,,,,,,,,,,,,,0,8,img/B08_00.jpg,CONTROL,Press K as soon as you see a face, ,KJ,,,,,,,,,,,,,,,,,,,,,,,,,,,,,,,,5,2.8283,,,,,,,,,,,,,,0,3,3,77,1,,,,,,,,,,,,,space,1.3025,,,,,,,,,,,,,,,,,,,,,,,,,,,,,,,,,,,,,,,,,,,,,,,,,,,,,,,,,,,,
,,,,177540,001,2023-11-09_19h41.47.209,fluency,2022.2.4,Win32,60.10337781,,,,,,,,,,,,,,,,,,,,,,,3,9,img/B09_03.jpg,CONTROL,Press K as soon as you see a face, ,KJ,,,,,,,,,,,,,,,,,,,,,,,,,,,,,,,,,,,,,,,,,,,,,,418.5616,0,4,4,91,1,109,0,0,0,0,1,98,,,,,,,,,,,,,,,,,,,,,,,,,,,,,,,,,,,,,,,,,,,,,,,,,,,,,,,,,,,,,,,,,,,
,,,,177540,001,2023-11-09_19h41.47.209,fluency,2022.2.4,Win32,60.10337781,,,,,,,,,,,,,,,,,,,,,,,,,,,,,,,,,,,,,,,,,,,,,,,,,,,,,,,,,,,,,,,,,,,,,,,,,,,,,,,,,,0,0,0,0,1,,"[""k""]",[0.3452000000476687],0,"[""k""]",[0.3451000001430202],,,,,,,,,,,,,,,,,,,,,,,,,,,,,,,,,,,,,,,,,,,,,,,,,,,,,,,,,,,,,,
,,,,177540,001,2023-11-09_19h41.47.209,fluency,2022.2.4,Win32,60.10337781,,,,,,,,,,,,,,,,,,,,,,,3,9,img/B09_03.jpg,CONTROL,Press K as soon as you see a face, ,KJ,,,,,,,,,,,,,,,,,,,,,,,,,,,,,,,,7,4.7894,,,,,,,,,,,,,,0,4,4,91,1,,,,,,,,,,,,,space,4.0875,,,,,,,,,,,,,,,,,,,,,,,,,,,,,,,,,,,,,,,,,,,,,,,,,,,,,,,,,,,,
,,,,177540,001,2023-11-09_19h41.47.209,fluency,2022.2.4,Win32,60.10337781,,,,,,,,,,,,,,,,,,,,,,,6,3,img/B03_06.jpg,CONTROL,Press K as soon as you see a face, ,KJ,,,,,,,,,,,,,,,,,,,,,,,,,,,,,,,,,,,,,,,,,,,,,,432.4901,0,5,5,28,1,109,0,0,0,0,1,98,,,,,,,,,,,,,,,,,,,,,,,,,,,,,,,,,,,,,,,,,,,,,,,,,,,,,,,,,,,,,,,,,,,
,,,,177540,001,2023-11-09_19h41.47.209,fluency,2022.2.4,Win32,60.10337781,,,,,,,,,,,,,,,,,,,,,,,,,,,,,,,,,,,,,,,,,,,,,,,,,,,,,,,,,,,,,,,,,,,,,,,,,,,,,,,,,,0,0,0,0,1,,"[""k""]",[0.36920000004772646],0,"[""k""]",[0.36920000004772646],,,,,,,,,,,,,,,,,,,,,,,,,,,,,,,,,,,,,,,,,,,,,,,,,,,,,,,,,,,,,,
,,,,177540,001,2023-11-09_19h41.47.209,fluency,2022.2.4,Win32,60.10337781,,,,,,,,,,,,,,,,,,,,,,,6,3,img/B03_06.jpg,CONTROL,Press K as soon as you see a face, ,KJ,,,,,,,,,,,,,,,,,,,,,,,,,,,,,,,,6,2.6541,,,,,,,,,,,,,,0,5,5,28,1,,,,,,,,,,,,,space,2.3526,,,,,,,,,,,,,,,,,,,,,,,,,,,,,,,,,,,,,,,,,,,,,,,,,,,,,,,,,,,,
,,,,177540,001,2023-11-09_19h41.47.209,fluency,2022.2.4,Win32,60.10337781,,,,,,,,,,,,,,,,,,,,,,,10,5,img/B05_10.jpg,CONTROL,Press K as soon as you see a face, ,KJ,,,,,,,,,,,,,,,,,,,,,,,,,,,,,,,,,,,,,,,,,,,,,,442.5489,0,6,6,54,1,109,0,0,0,0,1,98,,,,,,,,,,,,,,,,,,,,,,,,,,,,,,,,,,,,,,,,,,,,,,,,,,,,,,,,,,,,,,,,,,,
,,,,177540,001,2023-11-09_19h41.47.209,fluency,2022.2.4,Win32,60.10337781,,,,,,,,,,,,,,,,,,,,,,,,,,,,,,,,,,,,,,,,,,,,,,,,,,,,,,,,,,,,,,,,,,,,,,,,,,,,,,,,,,0,0,0,0,1,,"[""k""]",[0.42890000009532514],0,"[""k""]",[0.4288000001907335],,,,,,,,,,,,,,,,,,,,,,,,,,,,,,,,,,,,,,,,,,,,,,,,,,,,,,,,,,,,,,
,,,,177540,001,2023-11-09_19h41.47.209,fluency,2022.2.4,Win32,60.10337781,,,,,,,,,,,,,,,,,,,,,,,10,5,img/B05_10.jpg,CONTROL,Press K as soon as you see a face, ,KJ,,,,,,,,,,,,,,,,,,,,,,,,,,,,,,,,7,4.1924,,,,,,,,,,,,,,0,6,6,54,1,,,,,,,,,,,,,space,1.118,,,,,,,,,,,,,,,,,,,,,,,,,,,,,,,,,,,,,,,,,,,,,,,,,,,,,,,,,,,,
,,,,177540,001,2023-11-09_19h41.47.209,fluency,2022.2.4,Win32,60.10337781,,,,,,,,,,,,,,,,,,,,,,,0,9,img/B09_00.jpg,CONTROL,Press K as soon as you see a face, ,KJ,,,,,,,,,,,,,,,,,,,,,,,,,,,,,,,,,,,,,,,,,,,,,,451.9071,0,7,7,88,1,109,0,0,0,0,1,98,,,,,,,,,,,,,,,,,,,,,,,,,,,,,,,,,,,,,,,,,,,,,,,,,,,,,,,,,,,,,,,,,,,
,,,,177540,001,2023-11-09_19h41.47.209,fluency,2022.2.4,Win32,60.10337781,,,,,,,,,,,,,,,,,,,,,,,,,,,,,,,,,,,,,,,,,,,,,,,,,,,,,,,,,,,,,,,,,,,,,,,,,,,,,,,,,,0,0,0,0,1,,"[""k""]",[0.5834000000953665],0,"[""k""]",[0.5834000000953665],,,,,,,,,,,,,,,,,,,,,,,,,,,,,,,,,,,,,,,,,,,,,,,,,,,,,,,,,,,,,,
,,,,177540,001,2023-11-09_19h41.47.209,fluency,2022.2.4,Win32,60.10337781,,,,,,,,,,,,,,,,,,,,,,,0,9,img/B09_00.jpg,CONTROL,Press K as soon as you see a face, ,KJ,,,,,,,,,,,,,,,,,,,,,,,,,,,,,,,,6,6.7274,,,,,,,,,,,,,,0,7,7,88,1,,,,,,,,,,,,,space,1.175,,,,,,,,,,,,,,,,,,,,,,,,,,,,,,,,,,,,,,,,,,,,,,,,,,,,,,,,,,,,
,,,,177540,001,2023-11-09_19h41.47.209,fluency,2022.2.4,Win32,60.10337781,,,,,,,,,,,,,,,,,,,,,,,3,2,img/B02_03.jpg,CONTROL,Press K as soon as you see a face, ,KJ,,,,,,,,,,,,,,,,,,,,,,,,,,,,,,,,,,,,,,,,,,,,,,463.8509,0,8,8,14,1,109,0,0,0,0,1,98,,,,,,,,,,,,,,,,,,,,,,,,,,,,,,,,,,,,,,,,,,,,,,,,,,,,,,,,,,,,,,,,,,,
,,,,177540,001,2023-11-09_19h41.47.209,fluency,2022.2.4,Win32,60.10337781,,,,,,,,,,,,,,,,,,,,,,,,,,,,,,,,,,,,,,,,,,,,,,,,,,,,,,,,,,,,,,,,,,,,,,,,,,,,,,,,,,0,0,0,0,1,,"[""k""]",[0.46350000000001046],0,"[""k""]",[0.46350000000001046],,,,,,,,,,,,,,,,,,,,,,,,,,,,,,,,,,,,,,,,,,,,,,,,,,,,,,,,,,,,,,
,,,,177540,001,2023-11-09_19h41.47.209,fluency,2022.2.4,Win32,60.10337781,,,,,,,,,,,,,,,,,,,,,,,3,2,img/B02_03.jpg,CONTROL,Press K as soon as you see a face, ,KJ,,,,,,,,,,,,,,,,,,,,,,,,,,,,,,,,7,2.7905,,,,,,,,,,,,,,0,8,8,14,1,,,,,,,,,,,,,space,1.3677,,,,,,,,,,,,,,,,,,,,,,,,,,,,,,,,,,,,,,,,,,,,,,,,,,,,,,,,,,,,
,,,,177540,001,2023-11-09_19h41.47.209,fluency,2022.2.4,Win32,60.10337781,,,,,,,,,,,,,,,,,,,,,,,5,7,img/B07_05.jpg,CONTROL,Press K as soon as you see a face, ,KJ,,,,,,,,,,,,,,,,,,,,,,,,,,,,,,,,,,,,,,,,,,,,,,473.0588,0,9,9,71,1,109,0,0,0,0,1,98,,,,,,,,,,,,,,,,,,,,,,,,,,,,,,,,,,,,,,,,,,,,,,,,,,,,,,,,,,,,,,,,,,,
,,,,177540,001,2023-11-09_19h41.47.209,fluency,2022.2.4,Win32,60.10337781,,,,,,,,,,,,,,,,,,,,,,,,,,,,,,,,,,,,,,,,,,,,,,,,,,,,,,,,,,,,,,,,,,,,,,,,,,,,,,,,,,0,0,0,0,1,,"[""k""]",[0.3352999999523263],0,"[""k""]",[0.3352999999523263],,,,,,,,,,,,,,,,,,,,,,,,,,,,,,,,,,,,,,,,,,,,,,,,,,,,,,,,,,,,,,
,,,,177540,001,2023-11-09_19h41.47.209,fluency,2022.2.4,Win32,60.10337781,,,,,,,,,,,,,,,,,,,,,,,5,7,img/B07_05.jpg,CONTROL,Press K as soon as you see a face, ,KJ,,,,,,,,,,,,,,,,,,,,,,,,,,,,,,,,5,5.7383,,,,,,,,,,,,,,0,9,9,71,1,,,,,,,,,,,,,space,1.3186,,,,,,,,,,,,,,,,,,,,,,,,,,,,,,,,,,,,,,,,,,,,,,,,,,,,,,,,,,,,
,,,,177540,001,2023-11-09_19h41.47.209,fluency,2022.2.4,Win32,60.10337781,,,,,,,,,,,,,,,,,,,,,,,4,8,img/B08_04.jpg,CONTROL,Press K as soon as you see a face, ,KJ,,,,,,,,,,,,,,,,,,,,,,,,,,,,,,,,,,,,,,,,,,,,,,485.1692,0,10,10,81,1,109,0,0,0,0,1,98,,,,,,,,,,,,,,,,,,,,,,,,,,,,,,,,,,,,,,,,,,,,,,,,,,,,,,,,,,,,,,,,,,,
,,,,177540,001,2023-11-09_19h41.47.209,fluency,2022.2.4,Win32,60.10337781,,,,,,,,,,,,,,,,,,,,,,,,,,,,,,,,,,,,,,,,,,,,,,,,,,,,,,,,,,,,,,,,,,,,,,,,,,,,,,,,,,0,0,0,0,1,,"[""k""]",[0.44530000019074123],0,"[""k""]",[0.44530000019074123],,,,,,,,,,,,,,,,,,,,,,,,,,,,,,,,,,,,,,,,,,,,,,,,,,,,,,,,,,,,,,
,,,,177540,001,2023-11-09_19h41.47.209,fluency,2022.2.4,Win32,60.10337781,,,,,,,,,,,,,,,,,,,,,,,4,8,img/B08_04.jpg,CONTROL,Press K as soon as you see a face, ,KJ,,,,,,,,,,,,,,,,,,,,,,,,,,,,,,,,4,5.4885,,,,,,,,,,,,,,0,10,10,81,1,,,,,,,,,,,,,space,1.0912,,,,,,,,,,,,,,,,,,,,,,,,,,,,,,,,,,,,,,,,,,,,,,,,,,,,,,,,,,,,
,,,,177540,001,2023-11-09_19h41.47.209,fluency,2022.2.4,Win32,60.10337781,,,,,,,,,,,,,,,,,,,,,,,2,6,img/B06_02.jpg,CONTROL,Press K as soon as you see a face, ,KJ,,,,,,,,,,,,,,,,,,,,,,,,,,,,,,,,,,,,,,,,,,,,,,496.796,0,11,11,57,1,109,0,0,0,0,1,98,,,,,,,,,,,,,,,,,,,,,,,,,,,,,,,,,,,,,,,,,,,,,,,,,,,,,,,,,,,,,,,,,,,
,,,,177540,001,2023-11-09_19h41.47.209,fluency,2022.2.4,Win32,60.10337781,,,,,,,,,,,,,,,,,,,,,,,,,,,,,,,,,,,,,,,,,,,,,,,,,,,,,,,,,,,,,,,,,,,,,,,,,,,,,,,,,,0,0,0,0,1,,"[""k""]",[0.4789000000953365],0,"[""k""]",[0.4789000000953365],,,,,,,,,,,,,,,,,,,,,,,,,,,,,,,,,,,,,,,,,,,,,,,,,,,,,,,,,,,,,,
,,,,177540,001,2023-11-09_19h41.47.209,fluency,2022.2.4,Win32,60.10337781,,,,,,,,,,,,,,,,,,,,,,,2,6,img/B06_02.jpg,CONTROL,Press K as soon as you see a face, ,KJ,,,,,,,,,,,,,,,,,,,,,,,,,,,,,,,,4,5.0078,,,,,,,,,,,,,,0,11,11,57,1,,,,,,,,,,,,,space,1.5232,,,,,,,,,,,,,,,,,,,,,,,,,,,,,,,,,,,,,,,,,,,,,,,,,,,,,,,,,,,,
,,,,177540,001,2023-11-09_19h41.47.209,fluency,2022.2.4,Win32,60.10337781,,,,,,,,,,,,,,,,,,,,,,,5,3,img/B03_05.jpg,CONTROL,Press K as soon as you see a face, ,KJ,,,,,,,,,,,,,,,,,,,,,,,,,,,,,,,,,,,,,,,,,,,,,,507.3719,0,12,12,27,1,109,0,0,0,0,1,98,,,,,,,,,,,,,,,,,,,,,,,,,,,,,,,,,,,,,,,,,,,,,,,,,,,,,,,,,,,,,,,,,,,
,,,,177540,001,2023-11-09_19h41.47.209,fluency,2022.2.4,Win32,60.10337781,,,,,,,,,,,,,,,,,,,,,,,,,,,,,,,,,,,,,,,,,,,,,,,,,,,,,,,,,,,,,,,,,,,,,,,,,,,,,,,,,,0,0,0,0,1,,"[""k""]",[0.5983000001907612],0,"[""k""]",[0.5983000001907612],,,,,,,,,,,,,,,,,,,,,,,,,,,,,,,,,,,,,,,,,,,,,,,,,,,,,,,,,,,,,,
,,,,177540,001,2023-11-09_19h41.47.209,fluency,2022.2.4,Win32,60.10337781,,,,,,,,,,,,,,,,,,,,,,,5,3,img/B03_05.jpg,CONTROL,Press K as soon as you see a face, ,KJ,,,,,,,,,,,,,,,,,,,,,,,,,,,,,,,,5,3.1253,,,,,,,,,,,,,,0,12,12,27,1,,,,,,,,,,,,,space,1.1521,,,,,,,,,,,,,,,,,,,,,,,,,,,,,,,,,,,,,,,,,,,,,,,,,,,,,,,,,,,,
,,,,177540,001,2023-11-09_19h41.47.209,fluency,2022.2.4,Win32,60.10337781,,,,,,,,,,,,,,,,,,,,,,,6,10,img/B10_06.jpg,CONTROL,Press K as soon as you see a face, ,KJ,,,,,,,,,,,,,,,,,,,,,,,,,,,,,,,,,,,,,,,,,,,,,,516.6966,0,13,13,105,1,109,0,0,0,0,1,98,,,,,,,,,,,,,,,,,,,,,,,,,,,,,,,,,,,,,,,,,,,,,,,,,,,,,,,,,,,,,,,,,,,
,,,,177540,001,2023-11-09_19h41.47.209,fluency,2022.2.4,Win32,60.10337781,,,,,,,,,,,,,,,,,,,,,,,,,,,,,,,,,,,,,,,,,,,,,,,,,,,,,,,,,,,,,,,,,,,,,,,,,,,,,,,,,,0,0,0,0,1,,"[""k""]",[0.36199999999996635],0,"[""k""]",[0.3619000000953747],,,,,,,,,,,,,,,,,,,,,,,,,,,,,,,,,,,,,,,,,,,,,,,,,,,,,,,,,,,,,,
,,,,177540,001,2023-11-09_19h41.47.209,fluency,2022.2.4,Win32,60.10337781,,,,,,,,,,,,,,,,,,,,,,,6,10,img/B10_06.jpg,CONTROL,Press K as soon as you see a face, ,KJ,,,,,,,,,,,,,,,,,,,,,,,,,,,,,,,,6,2.1712,,,,,,,,,,,,,,0,13,13,105,1,,,,,,,,,,,,,space,1.0677,,,,,,,,,,,,,,,,,,,,,,,,,,,,,,,,,,,,,,,,,,,,,,,,,,,,,,,,,,,,
,,,,177540,001,2023-11-09_19h41.47.209,fluency,2022.2.4,Win32,60.10337781,,,,,,,,,,,,,,,,,,,,,,,9,10,img/B10_09.jpg,CONTROL,Press K as soon as you see a face, ,KJ,,,,,,,,,,,,,,,,,,,,,,,,,,,,,,,,,,,,,,,,,,,,,,523.9861,0,14,14,108,1,109,0,0,0,0,1,98,,,,,,,,,,,,,,,,,,,,,,,,,,,,,,,,,,,,,,,,,,,,,,,,,,,,,,,,,,,,,,,,,,,
,,,,177540,001,2023-11-09_19h41.47.209,fluency,2022.2.4,Win32,60.10337781,,,,,,,,,,,,,,,,,,,,,,,,,,,,,,,,,,,,,,,,,,,,,,,,,,,,,,,,,,,,,,,,,,,,,,,,,,,,,,,,,,0,0,0,0,1,,"[""k""]",[0.4321000001430093],0,"[""k""]",[0.4321000001430093],,,,,,,,,,,,,,,,,,,,,,,,,,,,,,,,,,,,,,,,,,,,,,,,,,,,,,,,,,,,,,
,,,,177540,001,2023-11-09_19h41.47.209,fluency,2022.2.4,Win32,60.10337781,,,,,,,,,,,,,,,,,,,,,,,9,10,img/B10_09.jpg,CONTROL,Press K as soon as you see a face, ,KJ,,,,,,,,,,,,,,,,,,,,,,,,,,,,,,,,6,2.1431,,,,,,,,,,,,,,0,14,14,108,1,,,,,,,,,,,,,space,1.6354,,,,,,,,,,,,,,,,,,,,,,,,,,,,,,,,,,,,,,,,,,,,,,,,,,,,,,,,,,,,
,,,,177540,001,2023-11-09_19h41.47.209,fluency,2022.2.4,Win32,60.10337781,,,,,,,,,,,,,,,,,,,,,,,6,8,img/B08_06.jpg,CONTROL,Press K as soon as you see a face, ,KJ,,,,,,,,,,,,,,,,,,,,,,,,,,,,,,,,,,,,,,,,,,,,,,532.8106,0,15,15,83,1,109,0,0,0,0,1,98,,,,,,,,,,,,,,,,,,,,,,,,,,,,,,,,,,,,,,,,,,,,,,,,,,,,,,,,,,,,,,,,,,,
,,,,177540,001,2023-11-09_19h41.47.209,fluency,2022.2.4,Win32,60.10337781,,,,,,,,,,,,,,,,,,,,,,,,,,,,,,,,,,,,,,,,,,,,,,,,,,,,,,,,,,,,,,,,,,,,,,,,,,,,,,,,,,0,0,0,0,1,,"[""k""]",[0.47840000009534833],0,"[""k""]",[0.47840000009534833],,,,,,,,,,,,,,,,,,,,,,,,,,,,,,,,,,,,,,,,,,,,,,,,,,,,,,,,,,,,,,
,,,,177540,001,2023-11-09_19h41.47.209,fluency,2022.2.4,Win32,60.10337781,,,,,,,,,,,,,,,,,,,,,,,6,8,img/B08_06.jpg,CONTROL,Press K as soon as you see a face, ,KJ,,,,,,,,,,,,,,,,,,,,,,,,,,,,,,,,3,2.034,,,,,,,,,,,,,,0,15,15,83,1,,,,,,,,,,,,,space,1.0383,,,,,,,,,,,,,,,,,,,,,,,,,,,,,,,,,,,,,,,,,,,,,,,,,,,,,,,,,,,,
,,,,177540,001,2023-11-09_19h41.47.209,fluency,2022.2.4,Win32,60.10337781,,,,,,,,,,,,,,,,,,,,,,,4,7,img/B07_04.jpg,CONTROL,Press K as soon as you see a face, ,KJ,,,,,,,,,,,,,,,,,,,,,,,,,,,,,,,,,,,,,,,,,,,,,,539.9333,0,16,16,70,1,109,0,0,0,0,1,98,,,,,,,,,,,,,,,,,,,,,,,,,,,,,,,,,,,,,,,,,,,,,,,,,,,,,,,,,,,,,,,,,,,
,,,,177540,001,2023-11-09_19h41.47.209,fluency,2022.2.4,Win32,60.10337781,,,,,,,,,,,,,,,,,,,,,,,,,,,,,,,,,,,,,,,,,,,,,,,,,,,,,,,,,,,,,,,,,,,,,,,,,,,,,,,,,,0,0,0,0,1,,"[""k""]",[0.39659999990465167],0,"[""k""]",[0.39649999999994634],,,,,,,,,,,,,,,,,,,,,,,,,,,,,,,,,,,,,,,,,,,,,,,,,,,,,,,,,,,,,,
,,,,177540,001,2023-11-09_19h41.47.209,fluency,2022.2.4,Win32,60.10337781,,,,,,,,,,,,,,,,,,,,,,,4,7,img/B07_04.jpg,CONTROL,Press K as soon as you see a face, ,KJ,,,,,,,,,,,,,,,,,,,,,,,,,,,,,,,,3,1.7746,,,,,,,,,,,,,,0,16,16,70,1,,,,,,,,,,,,,space,1.006,,,,,,,,,,,,,,,,,,,,,,,,,,,,,,,,,,,,,,,,,,,,,,,,,,,,,,,,,,,,
,,,,177540,001,2023-11-09_19h41.47.209,fluency,2022.2.4,Win32,60.10337781,,,,,,,,,,,,,,,,,,,,,,,9,8,img/B08_09.jpg,CONTROL,Press K as soon as you see a face, ,KJ,,,,,,,,,,,,,,,,,,,,,,,,,,,,,,,,,,,,,,,,,,,,,,546.7559,0,17,17,86,1,109,0,0,0,0,1,98,,,,,,,,,,,,,,,,,,,,,,,,,,,,,,,,,,,,,,,,,,,,,,,,,,,,,,,,,,,,,,,,,,,
,,,,177540,001,2023-11-09_19h41.47.209,fluency,2022.2.4,Win32,60.10337781,,,,,,,,,,,,,,,,,,,,,,,,,,,,,,,,,,,,,,,,,,,,,,,,,,,,,,,,,,,,,,,,,,,,,,,,,,,,,,,,,,0,0,0,0,1,,"[""k""]",[0.4288999998569807],0,"[""k""]",[0.42879999995227536],,,,,,,,,,,,,,,,,,,,,,,,,,,,,,,,,,,,,,,,,,,,,,,,,,,,,,,,,,,,,,
,,,,177540,001,2023-11-09_19h41.47.209,fluency,2022.2.4,Win32,60.10337781,,,,,,,,,,,,,,,,,,,,,,,9,8,img/B08_09.jpg,CONTROL,Press K as soon as you see a face, ,KJ,,,,,,,,,,,,,,,,,,,,,,,,,,,,,,,,3,4.7765,,,,,,,,,,,,,,0,17,17,86,1,,,,,,,,,,,,,space,0.8529,,,,,,,,,,,,,,,,,,,,,,,,,,,,,,,,,,,,,,,,,,,,,,,,,,,,,,,,,,,,
,,,,177540,001,2023-11-09_19h41.47.209,fluency,2022.2.4,Win32,60.10337781,,,,,,,,,,,,,,,,,,,,,,,1,10,img/B10_01.jpg,CONTROL,Press K as soon as you see a face, ,KJ,,,,,,,,,,,,,,,,,,,,,,,,,,,,,,,,,,,,,,,,,,,,,,556.4307,0,18,18,100,1,109,0,0,0,0,1,98,,,,,,,,,,,,,,,,,,,,,,,,,,,,,,,,,,,,,,,,,,,,,,,,,,,,,,,,,,,,,,,,,,,
,,,,177540,001,2023-11-09_19h41.47.209,fluency,2022.2.4,Win32,60.10337781,,,,,,,,,,,,,,,,,,,,,,,,,,,,,,,,,,,,,,,,,,,,,,,,,,,,,,,,,,,,,,,,,,,,,,,,,,,,,,,,,,0,0,0,0,1,,"[""k""]",[0.5630999999045798],0,"[""k""]",[0.5630999999045798],,,,,,,,,,,,,,,,,,,,,,,,,,,,,,,,,,,,,,,,,,,,,,,,,,,,,,,,,,,,,,
,,,,177540,001,2023-11-09_19h41.47.209,fluency,2022.2.4,Win32,60.10337781,,,,,,,,,,,,,,,,,,,,,,,1,10,img/B10_01.jpg,CONTROL,Press K as soon as you see a face, ,KJ,,,,,,,,,,,,,,,,,,,,,,,,,,,,,,,,5,3.1895,,,,,,,,,,,,,,0,18,18,100,1,,,,,,,,,,,,,space,0.835,,,,,,,,,,,,,,,,,,,,,,,,,,,,,,,,,,,,,,,,,,,,,,,,,,,,,,,,,,,,
,,,,177540,001,2023-11-09_19h41.47.209,fluency,2022.2.4,Win32,60.10337781,,,,,,,,,,,,,,,,,,,,,,,5,10,img/B10_05.jpg,CONTROL,Press K as soon as you see a face, ,KJ,,,,,,,,,,,,,,,,,,,,,,,,,,,,,,,,,,,,,,,,,,,,,,564.5045,0,19,19,104,1,109,0,0,0,0,1,98,,,,,,,,,,,,,,,,,,,,,,,,,,,,,,,,,,,,,,,,,,,,,,,,,,,,,,,,,,,,,,,,,,,
,,,,177540,001,2023-11-09_19h41.47.209,fluency,2022.2.4,Win32,60.10337781,,,,,,,,,,,,,,,,,,,,,,,,,,,,,,,,,,,,,,,,,,,,,,,,,,,,,,,,,,,,,,,,,,,,,,,,,,,,,,,,,,0,0,0,0,1,,"[""k""]",[0.5461999998092324],0,"[""k""]",[0.546299999952339],,,,,,,,,,,,,,,,,,,,,,,,,,,,,,,,,,,,,,,,,,,,,,,,,,,,,,,,,,,,,,
,,,,177540,001,2023-11-09_19h41.47.209,fluency,2022.2.4,Win32,60.10337781,,,,,,,,,,,,,,,,,,,,,,,5,10,img/B10_05.jpg,CONTROL,Press K as soon as you see a face, ,KJ,,,,,,,,,,,,,,,,,,,,,,,,,,,,,,,,5,4.9384,,,,,,,,,,,,,,0,19,19,104,1,,,,,,,,,,,,,space,1.0352,,,,,,,,,,,,,,,,,,,,,,,,,,,,,,,,,,,,,,,,,,,,,,,,,,,,,,,,,,,,
,,,,177540,001,2023-11-09_19h41.47.209,fluency,2022.2.4,Win32,60.10337781,,,,,,,,,,,,,,,,,,,,,,,8,9,img/B09_08.jpg,CONTROL,Press K as soon as you see a face, ,KJ,,,,,,,,,,,,,,,,,,,,,,,,,,,,,,,,,,,,,,,,,,,,,,575.5309,0,20,20,96,1,109,0,0,0,0,1,98,,,,,,,,,,,,,,,,,,,,,,,,,,,,,,,,,,,,,,,,,,,,,,,,,,,,,,,,,,,,,,,,,,,
,,,,177540,001,2023-11-09_19h41.47.209,fluency,2022.2.4,Win32,60.10337781,,,,,,,,,,,,,,,,,,,,,,,,,,,,,,,,,,,,,,,,,,,,,,,,,,,,,,,,,,,,,,,,,,,,,,,,,,,,,,,,,,0,0,0,0,1,,"[""k""]",[0.42790000009540563],0,"[""k""]",[0.42790000009540563],,,,,,,,,,,,,,,,,,,,,,,,,,,,,,,,,,,,,,,,,,,,,,,,,,,,,,,,,,,,,,
,,,,177540,001,2023-11-09_19h41.47.209,fluency,2022.2.4,Win32,60.10337781,,,,,,,,,,,,,,,,,,,,,,,8,9,img/B09_08.jpg,CONTROL,Press K as soon as you see a face, ,KJ,,,,,,,,,,,,,,,,,,,,,,,,,,,,,,,,6,5.8613,,,,,,,,,,,,,,0,20,20,96,1,,,,,,,,,,,,,space,0.7541,,,,,,,,,,,,,,,,,,,,,,,,,,,,,,,,,,,,,,,,,,,,,,,,,,,,,,,,,,,,
,,,,177540,001,2023-11-09_19h41.47.209,fluency,2022.2.4,Win32,60.10337781,,,,,,,,,,,,,,,,,,,,,,,2,1,img/B01_02.jpg,CONTROL,Press K as soon as you see a face, ,KJ,,,,,,,,,,,,,,,,,,,,,,,,,,,,,,,,,,,,,,,,,,,,,,586.19,0,21,21,2,1,109,0,0,0,0,1,98,,,,,,,,,,,,,,,,,,,,,,,,,,,,,,,,,,,,,,,,,,,,,,,,,,,,,,,,,,,,,,,,,,,
,,,,177540,001,2023-11-09_19h41.47.209,fluency,2022.2.4,Win32,60.10337781,,,,,,,,,,,,,,,,,,,,,,,,,,,,,,,,,,,,,,,,,,,,,,,,,,,,,,,,,,,,,,,,,,,,,,,,,,,,,,,,,,0,0,0,0,1,,"[""k""]",[0.5450999999045507],0,"[""k""]",[0.5450999999045507],,,,,,,,,,,,,,,,,,,,,,,,,,,,,,,,,,,,,,,,,,,,,,,,,,,,,,,,,,,,,,
,,,,177540,001,2023-11-09_19h41.47.209,fluency,2022.2.4,Win32,60.10337781,,,,,,,,,,,,,,,,,,,,,,,2,1,img/B01_02.jpg,CONTROL,Press K as soon as you see a face, ,KJ,,,,,,,,,,,,,,,,,,,,,,,,,,,,,,,,2,2.2296,,,,,,,,,,,,,,0,21,21,2,1,,,,,,,,,,,,,space,3.0588,,,,,,,,,,,,,,,,,,,,,,,,,,,,,,,,,,,,,,,,,,,,,,,,,,,,,,,,,,,,
,,,,177540,001,2023-11-09_19h41.47.209,fluency,2022.2.4,Win32,60.10337781,,,,,,,,,,,,,,,,,,,,,,,4,4,img/B04_04.jpg,CONTROL,Press K as soon as you see a face, ,KJ,,,,,,,,,,,,,,,,,,,,,,,,,,,,,,,,,,,,,,,,,,,,,,596.5157,0,22,22,37,1,109,0,0,0,0,1,98,,,,,,,,,,,,,,,,,,,,,,,,,,,,,,,,,,,,,,,,,,,,,,,,,,,,,,,,,,,,,,,,,,,
,,,,177540,001,2023-11-09_19h41.47.209,fluency,2022.2.4,Win32,60.10337781,,,,,,,,,,,,,,,,,,,,,,,,,,,,,,,,,,,,,,,,,,,,,,,,,,,,,,,,,,,,,,,,,,,,,,,,,,,,,,,,,,0,0,0,0,1,,"[""k""]",[0.4455000000000382],0,"[""k""]",[0.4455000000000382],,,,,,,,,,,,,,,,,,,,,,,,,,,,,,,,,,,,,,,,,,,,,,,,,,,,,,,,,,,,,,
,,,,177540,001,2023-11-09_19h41.47.209,fluency,2022.2.4,Win32,60.10337781,,,,,,,,,,,,,,,,,,,,,,,4,4,img/B04_04.jpg,CONTROL,Press K as soon as you see a face, ,KJ,,,,,,,,,,,,,,,,,,,,,,,,,,,,,,,,7,3.0551,,,,,,,,,,,,,,0,22,22,37,1,,,,,,,,,,,,,space,1.5226,,,,,,,,,,,,,,,,,,,,,,,,,,,,,,,,,,,,,,,,,,,,,,,,,,,,,,,,,,,,
,,,,177540,001,2023-11-09_19h41.47.209,fluency,2022.2.4,Win32,60.10337781,,,,,,,,,,,,,,,,,,,,,,,6,2,img/B02_06.jpg,CONTROL,Press K as soon as you see a face, ,KJ,,,,,,,,,,,,,,,,,,,,,,,,,,,,,,,,,,,,,,,,,,,,,,606.1404,0,23,23,17,1,109,0,0,0,0,1,98,,,,,,,,,,,,,,,,,,,,,,,,,,,,,,,,,,,,,,,,,,,,,,,,,,,,,,,,,,,,,,,,,,,
,,,,177540,001,2023-11-09_19h41.47.209,fluency,2022.2.4,Win32,60.10337781,,,,,,,,,,,,,,,,,,,,,,,,,,,,,,,,,,,,,,,,,,,,,,,,,,,,,,,,,,,,,,,,,,,,,,,,,,,,,,,,,,0,0,0,0,1,,"[""k""]",[0.44530000019074123],0,"[""k""]",[0.44530000019074123],,,,,,,,,,,,,,,,,,,,,,,,,,,,,,,,,,,,,,,,,,,,,,,,,,,,,,,,,,,,,,
,,,,177540,001,2023-11-09_19h41.47.209,fluency,2022.2.4,Win32,60.10337781,,,,,,,,,,,,,,,,,,,,,,,6,2,img/B02_06.jpg,CONTROL,Press K as soon as you see a face, ,KJ,,,,,,,,,,,,,,,,,,,,,,,,,,,,,,,,5,2.0895,,,,,,,,,,,,,,0,23,23,17,1,,,,,,,,,,,,,space,1.568,,,,,,,,,,,,,,,,,,,,,,,,,,,,,,,,,,,,,,,,,,,,,,,,,,,,,,,,,,,,
,,,,177540,001,2023-11-09_19h41.47.209,fluency,2022.2.4,Win32,60.10337781,,,,,,,,,,,,,,,,,,,,,,,1,7,img/B07_01.jpg,CONTROL,Press K as soon as you see a face, ,KJ,,,,,,,,,,,,,,,,,,,,,,,,,,,,,,,,,,,,,,,,,,,,,,613.8472,0,24,24,67,1,109,0,0,0,0,1,98,,,,,,,,,,,,,,,,,,,,,,,,,,,,,,,,,,,,,,,,,,,,,,,,,,,,,,,,,,,,,,,,,,,
,,,,177540,001,2023-11-09_19h41.47.209,fluency,2022.2.4,Win32,60.10337781,,,,,,,,,,,,,,,,,,,,,,,,,,,,,,,,,,,,,,,,,,,,,,,,,,,,,,,,,,,,,,,,,,,,,,,,,,,,,,,,,,0,0,0,0,1,,"[""k""]",[0.5619000000954202],0,"[""k""]",[0.5619000000954202],,,,,,,,,,,,,,,,,,,,,,,,,,,,,,,,,,,,,,,,,,,,,,,,,,,,,,,,,,,,,,
,,,,177540,001,2023-11-09_19h41.47.209,fluency,2022.2.4,Win32,60.10337781,,,,,,,,,,,,,,,,,,,,,,,1,7,img/B07_01.jpg,CONTROL,Press K as soon as you see a face, ,KJ,,,,,,,,,,,,,,,,,,,,,,,,,,,,,,,,4,2.4098,,,,,,,,,,,,,,0,24,24,67,1,,,,,,,,,,,,,space,0.7005,,,,,,,,,,,,,,,,,,,,,,,,,,,,,,,,,,,,,,,,,,,,,,,,,,,,,,,,,,,,
,,,,177540,001,2023-11-09_19h41.47.209,fluency,2022.2.4,Win32,60.10337781,,,,,,,,,,,,,,,,,,,,,,,6,7,img/B07_06.jpg,CONTROL,Press K as soon as you see a face, ,KJ,,,,,,,,,,,,,,,,,,,,,,,,,,,,,,,,,,,,,,,,,,,,,,621.0034,0,25,25,72,1,109,0,0,0,0,1,98,,,,,,,,,,,,,,,,,,,,,,,,,,,,,,,,,,,,,,,,,,,,,,,,,,,,,,,,,,,,,,,,,,,
,,,,177540,001,2023-11-09_19h41.47.209,fluency,2022.2.4,Win32,60.10337781,,,,,,,,,,,,,,,,,,,,,,,,,,,,,,,,,,,,,,,,,,,,,,,,,,,,,,,,,,,,,,,,,,,,,,,,,,,,,,,,,,0,0,0,0,1,,"[""k""]",[0.7121000001430957],0,"[""k""]",[0.7119999999999891],,,,,,,,,,,,,,,,,,,,,,,,,,,,,,,,,,,,,,,,,,,,,,,,,,,,,,,,,,,,,,
,,,,177540,001,2023-11-09_19h41.47.209,fluency,2022.2.4,Win32,60.10337781,,,,,,,,,,,,,,,,,,,,,,,6,7,img/B07_06.jpg,CONTROL,Press K as soon as you see a face, ,KJ,,,,,,,,,,,,,,,,,,,,,,,,,,,,,,,,4,2.334,,,,,,,,,,,,,,0,25,25,72,1,,,,,,,,,,,,,space,0.9046,,,,,,,,,,,,,,,,,,,,,,,,,,,,,,,,,,,,,,,,,,,,,,,,,,,,,,,,,,,,
,,,,177540,001,2023-11-09_19h41.47.209,fluency,2022.2.4,Win32,60.10337781,,,,,,,,,,,,,,,,,,,,,,,0,3,img/B03_00.jpg,CONTROL,Press K as soon as you see a face, ,KJ,,,,,,,,,,,,,,,,,,,,,,,,,,,,,,,,,,,,,,,,,,,,,,629.2939,0,26,26,22,1,109,0,0,0,0,1,98,,,,,,,,,,,,,,,,,,,,,,,,,,,,,,,,,,,,,,,,,,,,,,,,,,,,,,,,,,,,,,,,,,,
,,,,177540,001,2023-11-09_19h41.47.209,fluency,2022.2.4,Win32,60.10337781,,,,,,,,,,,,,,,,,,,,,,,,,,,,,,,,,,,,,,,,,,,,,,,,,,,,,,,,,,,,,,,,,,,,,,,,,,,,,,,,,,0,0,0,0,1,,"[""k""]",[0.5783000001906657],0,"[""k""]",[0.5783000001906657],,,,,,,,,,,,,,,,,,,,,,,,,,,,,,,,,,,,,,,,,,,,,,,,,,,,,,,,,,,,,,
,,,,177540,001,2023-11-09_19h41.47.209,fluency,2022.2.4,Win32,60.10337781,,,,,,,,,,,,,,,,,,,,,,,0,3,img/B03_00.jpg,CONTROL,Press K as soon as you see a face, ,KJ,,,,,,,,,,,,,,,,,,,,,,,,,,,,,,,,3,1.9181,,,,,,,,,,,,,,0,26,26,22,1,,,,,,,,,,,,,space,1.4189,,,,,,,,,,,,,,,,,,,,,,,,,,,,,,,,,,,,,,,,,,,,,,,,,,,,,,,,,,,,
,,,,177540,001,2023-11-09_19h41.47.209,fluency,2022.2.4,Win32,60.10337781,,,,,,,,,,,,,,,,,,,,,,,9,7,img/B07_09.jpg,CONTROL,Press K as soon as you see a face, ,KJ,,,,,,,,,,,,,,,,,,,,,,,,,,,,,,,,,,,,,,,,,,,,,,636.6837,0,27,27,75,1,109,0,0,0,0,1,98,,,,,,,,,,,,,,,,,,,,,,,,,,,,,,,,,,,,,,,,,,,,,,,,,,,,,,,,,,,,,,,,,,,
,,,,177540,001,2023-11-09_19h41.47.209,fluency,2022.2.4,Win32,60.10337781,,,,,,,,,,,,,,,,,,,,,,,,,,,,,,,,,,,,,,,,,,,,,,,,,,,,,,,,,,,,,,,,,,,,,,,,,,,,,,,,,,0,0,0,0,1,,"[""k""]",[0.5823999998569889],0,"[""k""]",[0.5823999998569889],,,,,,,,,,,,,,,,,,,,,,,,,,,,,,,,,,,,,,,,,,,,,,,,,,,,,,,,,,,,,,
,,,,177540,001,2023-11-09_19h41.47.209,fluency,2022.2.4,Win32,60.10337781,,,,,,,,,,,,,,,,,,,,,,,9,7,img/B07_09.jpg,CONTROL,Press K as soon as you see a face, ,KJ,,,,,,,,,,,,,,,,,,,,,,,,,,,,,,,,4,2.3848,,,,,,,,,,,,,,0,27,27,75,1,,,,,,,,,,,,,space,0.6677,,,,,,,,,,,,,,,,,,,,,,,,,,,,,,,,,,,,,,,,,,,,,,,,,,,,,,,,,,,,
,,,,177540,001,2023-11-09_19h41.47.209,fluency,2022.2.4,Win32,60.10337781,,,,,,,,,,,,,,,,,,,,,,,8,8,img/B08_08.jpg,CONTROL,Press K as soon as you see a face, ,KJ,,,,,,,,,,,,,,,,,,,,,,,,,,,,,,,,,,,,,,,,,,,,,,644.7907,0,28,28,85,1,109,0,0,0,0,1,98,,,,,,,,,,,,,,,,,,,,,,,,,,,,,,,,,,,,,,,,,,,,,,,,,,,,,,,,,,,,,,,,,,,
,,,,177540,001,2023-11-09_19h41.47.209,fluency,2022.2.4,Win32,60.10337781,,,,,,,,,,,,,,,,,,,,,,,,,,,,,,,,,,,,,,,,,,,,,,,,,,,,,,,,,,,,,,,,,,,,,,,,,,,,,,,,,,0,0,0,0,1,,"[""k""]",[0.47849999999994],0,"[""k""]",[0.47840000009534833],,,,,,,,,,,,,,,,,,,,,,,,,,,,,,,,,,,,,,,,,,,,,,,,,,,,,,,,,,,,,,
,,,,177540,001,2023-11-09_19h41.47.209,fluency,2022.2.4,Win32,60.10337781,,,,,,,,,,,,,,,,,,,,,,,8,8,img/B08_08.jpg,CONTROL,Press K as soon as you see a face, ,KJ,,,,,,,,,,,,,,,,,,,,,,,,,,,,,,,,3,2.3702,,,,,,,,,,,,,,0,28,28,85,1,,,,,,,,,,,,,space,1.5845,,,,,,,,,,,,,,,,,,,,,,,,,,,,,,,,,,,,,,,,,,,,,,,,,,,,,,,,,,,,
,,,,177540,001,2023-11-09_19h41.47.209,fluency,2022.2.4,Win32,60.10337781,,,,,,,,,,,,,,,,,,,,,,,1,3,img/B03_01.jpg,CONTROL,Press K as soon as you see a face, ,KJ,,,,,,,,,,,,,,,,,,,,,,,,,,,,,,,,,,,,,,,,,,,,,,653.7984,0,29,29,23,1,109,0,0,0,0,1,98,,,,,,,,,,,,,,,,,,,,,,,,,,,,,,,,,,,,,,,,,,,,,,,,,,,,,,,,,,,,,,,,,,,
,,,,177540,001,2023-11-09_19h41.47.209,fluency,2022.2.4,Win32,60.10337781,,,,,,,,,,,,,,,,,,,,,,,,,,,,,,,,,,,,,,,,,,,,,,,,,,,,,,,,,,,,,,,,,,,,,,,,,,,,,,,,,,0,0,0,0,1,,"[""k""]",[0.44570000004773647],0,"[""k""]",[0.44570000004773647],,,,,,,,,,,,,,,,,,,,,,,,,,,,,,,,,,,,,,,,,,,,,,,,,,,,,,,,,,,,,,
,,,,177540,001,2023-11-09_19h41.47.209,fluency,2022.2.4,Win32,60.10337781,,,,,,,,,,,,,,,,,,,,,,,1,3,img/B03_01.jpg,CONTROL,Press K as soon as you see a face, ,KJ,,,,,,,,,,,,,,,,,,,,,,,,,,,,,,,,4,2.0739,,,,,,,,,,,,,,0,29,29,23,1,,,,,,,,,,,,,space,1.2848,,,,,,,,,,,,,,,,,,,,,,,,,,,,,,,,,,,,,,,,,,,,,,,,,,,,,,,,,,,,
,,,,177540,001,2023-11-09_19h41.47.209,fluency,2022.2.4,Win32,60.10337781,,,,,,,,,,,,,,,,,,,,,,,3,7,img/B07_03.jpg,CONTROL,Press K as soon as you see a face, ,KJ,,,,,,,,,,,,,,,,,,,,,,,,,,,,,,,,,,,,,,,,,,,,,,662.2058,0,30,30,69,1,109,0,0,0,0,1,98,,,,,,,,,,,,,,,,,,,,,,,,,,,,,,,,,,,,,,,,,,,,,,,,,,,,,,,,,,,,,,,,,,,
,,,,177540,001,2023-11-09_19h41.47.209,fluency,2022.2.4,Win32,60.10337781,,,,,,,,,,,,,,,,,,,,,,,,,,,,,,,,,,,,,,,,,,,,,,,,,,,,,,,,,,,,,,,,,,,,,,,,,,,,,,,,,,0,0,0,0,1,,"[""k""]",[0.4512000000477201],0,"[""k""]",[0.45129999995231174],,,,,,,,,,,,,,,,,,,,,,,,,,,,,,,,,,,,,,,,,,,,,,,,,,,,,,,,,,,,,,
,,,,177540,001,2023-11-09_19h41.47.209,fluency,2022.2.4,Win32,60.10337781,,,,,,,,,,,,,,,,,,,,,,,3,7,img/B07_03.jpg,CONTROL,Press K as soon as you see a face, ,KJ,,,,,,,,,,,,,,,,,,,,,,,,,,,,,,,,4,4.0419,,,,,,,,,,,,,,0,30,30,69,1,,,,,,,,,,,,,space,1.3048,,,,,,,,,,,,,,,,,,,,,,,,,,,,,,,,,,,,,,,,,,,,,,,,,,,,,,,,,,,,
,,,,177540,001,2023-11-09_19h41.47.209,fluency,2022.2.4,Win32,60.10337781,,,,,,,,,,,,,,,,,,,,,,,7,1,img/B01_07.jpg,CONTROL,Press K as soon as you see a face, ,KJ,,,,,,,,,,,,,,,,,,,,,,,,,,,,,,,,,,,,,,,,,,,,,,671.5972,0,31,31,7,1,109,0,0,0,0,1,98,,,,,,,,,,,,,,,,,,,,,,,,,,,,,,,,,,,,,,,,,,,,,,,,,,,,,,,,,,,,,,,,,,,
,,,,177540,001,2023-11-09_19h41.47.209,fluency,2022.2.4,Win32,60.10337781,,,,,,,,,,,,,,,,,,,,,,,,,,,,,,,,,,,,,,,,,,,,,,,,,,,,,,,,,,,,,,,,,,,,,,,,,,,,,,,,,,0,0,0,0,1,,"[""k""]",[0.6682999999522963],0,"[""k""]",[0.6682999999522963],,,,,,,,,,,,,,,,,,,,,,,,,,,,,,,,,,,,,,,,,,,,,,,,,,,,,,,,,,,,,,
,,,,177540,001,2023-11-09_19h41.47.209,fluency,2022.2.4,Win32,60.10337781,,,,,,,,,,,,,,,,,,,,,,,7,1,img/B01_07.jpg,CONTROL,Press K as soon as you see a face, ,KJ,,,,,,,,,,,,,,,,,,,,,,,,,,,,,,,,4,2.0269,,,,,,,,,,,,,,0,31,31,7,1,,,,,,,,,,,,,space,0.8006,,,,,,,,,,,,,,,,,,,,,,,,,,,,,,,,,,,,,,,,,,,,,,,,,,,,,,,,,,,,
,,,,177540,001,2023-11-09_19h41.47.209,fluency,2022.2.4,Win32,60.10337781,,,,,,,,,,,,,,,,,,,,,,,4,5,img/B05_04.jpg,CONTROL,Press K as soon as you see a face, ,KJ,,,,,,,,,,,,,,,,,,,,,,,,,,,,,,,,,,,,,,,,,,,,,,679.4708,0,32,32,48,1,109,0,0,0,0,1,98,,,,,,,,,,,,,,,,,,,,,,,,,,,,,,,,,,,,,,,,,,,,,,,,,,,,,,,,,,,,,,,,,,,
,,,,177540,001,2023-11-09_19h41.47.209,fluency,2022.2.4,Win32,60.10337781,,,,,,,,,,,,,,,,,,,,,,,,,,,,,,,,,,,,,,,,,,,,,,,,,,,,,,,,,,,,,,,,,,,,,,,,,,,,,,,,,,0,0,0,0,1,,"[""k""]",[0.39540000009537835],0,"[""k""]",[0.3952999999522717],,,,,,,,,,,,,,,,,,,,,,,,,,,,,,,,,,,,,,,,,,,,,,,,,,,,,,,,,,,,,,
,,,,177540,001,2023-11-09_19h41.47.209,fluency,2022.2.4,Win32,60.10337781,,,,,,,,,,,,,,,,,,,,,,,4,5,img/B05_04.jpg,CONTROL,Press K as soon as you see a face, ,KJ,,,,,,,,,,,,,,,,,,,,,,,,,,,,,,,,5,1.8732,,,,,,,,,,,,,,0,32,32,48,1,,,,,,,,,,,,,space,1.8859,,,,,,,,,,,,,,,,,,,,,,,,,,,,,,,,,,,,,,,,,,,,,,,,,,,,,,,,,,,,
,,,,177540,001,2023-11-09_19h41.47.209,fluency,2022.2.4,Win32,60.10337781,,,,,,,,,,,,,,,,,,,,,,,9,4,img/B04_09.jpg,CONTROL,Press K as soon as you see a face, ,KJ,,,,,,,,,,,,,,,,,,,,,,,,,,,,,,,,,,,,,,,,,,,,,,688.2782,0,33,33,42,1,109,0,0,0,0,1,98,,,,,,,,,,,,,,,,,,,,,,,,,,,,,,,,,,,,,,,,,,,,,,,,,,,,,,,,,,,,,,,,,,,
,,,,177540,001,2023-11-09_19h41.47.209,fluency,2022.2.4,Win32,60.10337781,,,,,,,,,,,,,,,,,,,,,,,,,,,,,,,,,,,,,,,,,,,,,,,,,,,,,,,,,,,,,,,,,,,,,,,,,,,,,,,,,,0,0,0,0,1,,"[""k""]",[0.5632000000476864],0,"[""k""]",[0.5631000001429811],,,,,,,,,,,,,,,,,,,,,,,,,,,,,,,,,,,,,,,,,,,,,,,,,,,,,,,,,,,,,,
,,,,177540,001,2023-11-09_19h41.47.209,fluency,2022.2.4,Win32,60.10337781,,,,,,,,,,,,,,,,,,,,,,,9,4,img/B04_09.jpg,CONTROL,Press K as soon as you see a face, ,KJ,,,,,,,,,,,,,,,,,,,,,,,,,,,,,,,,4,3.545,,,,,,,,,,,,,,0,33,33,42,1,,,,,,,,,,,,,space,3.2372,,,,,,,,,,,,,,,,,,,,,,,,,,,,,,,,,,,,,,,,,,,,,,,,,,,,,,,,,,,,
,,,,177540,001,2023-11-09_19h41.47.209,fluency,2022.2.4,Win32,60.10337781,,,,,,,,,,,,,,,,,,,,,,,0,7,img/B07_00.jpg,CONTROL,Press K as soon as you see a face, ,KJ,,,,,,,,,,,,,,,,,,,,,,,,,,,,,,,,,,,,,,,,,,,,,,699.1044,0,34,34,66,1,109,0,0,0,0,1,98,,,,,,,,,,,,,,,,,,,,,,,,,,,,,,,,,,,,,,,,,,,,,,,,,,,,,,,,,,,,,,,,,,,
,,,,177540,001,2023-11-09_19h41.47.209,fluency,2022.2.4,Win32,60.10337781,,,,,,,,,,,,,,,,,,,,,,,,,,,,,,,,,,,,,,,,,,,,,,,,,,,,,,,,,,,,,,,,,,,,,,,,,,,,,,,,,,0,0,0,0,1,,"[""k""]",[0.3620999999046717],0,"[""k""]",[0.3620999999046717],,,,,,,,,,,,,,,,,,,,,,,,,,,,,,,,,,,,,,,,,,,,,,,,,,,,,,,,,,,,,,
,,,,177540,001,2023-11-09_19h41.47.209,fluency,2022.2.4,Win32,60.10337781,,,,,,,,,,,,,,,,,,,,,,,0,7,img/B07_00.jpg,CONTROL,Press K as soon as you see a face, ,KJ,,,,,,,,,,,,,,,,,,,,,,,,,,,,,,,,4,2.4894,,,,,,,,,,,,,,0,34,34,66,1,,,,,,,,,,,,,space,0.9845,,,,,,,,,,,,,,,,,,,,,,,,,,,,,,,,,,,,,,,,,,,,,,,,,,,,,,,,,,,,
,,,,177540,001,2023-11-09_19h41.47.209,fluency,2022.2.4,Win32,60.10337781,,,,,,,,,,,,,,,,,,,,,,,9,9,img/B09_09.jpg,CONTROL,Press K as soon as you see a face, ,KJ,,,,,,,,,,,,,,,,,,,,,,,,,,,,,,,,,,,,,,,,,,,,,,707.6283,0,35,35,97,1,109,0,0,0,0,1,98,,,,,,,,,,,,,,,,,,,,,,,,,,,,,,,,,,,,,,,,,,,,,,,,,,,,,,,,,,,,,,,,,,,
,,,,177540,001,2023-11-09_19h41.47.209,fluency,2022.2.4,Win32,60.10337781,,,,,,,,,,,,,,,,,,,,,,,,,,,,,,,,,,,,,,,,,,,,,,,,,,,,,,,,,,,,,,,,,,,,,,,,,,,,,,,,,,0,0,0,0,1,,"[""k""]",[0.34749999999996817],0,"[""k""]",[0.3474000000953765],,,,,,,,,,,,,,,,,,,,,,,,,,,,,,,,,,,,,,,,,,,,,,,,,,,,,,,,,,,,,,
,,,,177540,001,2023-11-09_19h41.47.209,fluency,2022.2.4,Win32,60.10337781,,,,,,,,,,,,,,,,,,,,,,,9,9,img/B09_09.jpg,CONTROL,Press K as soon as you see a face, ,KJ,,,,,,,,,,,,,,,,,,,,,,,,,,,,,,,,5,1.962,,,,,,,,,,,,,,0,35,35,97,1,,,,,,,,,,,,,space,0.9179,,,,,,,,,,,,,,,,,,,,,,,,,,,,,,,,,,,,,,,,,,,,,,,,,,,,,,,,,,,,
,,,,177540,001,2023-11-09_19h41.47.209,fluency,2022.2.4,Win32,60.10337781,,,,,,,,,,,,,,,,,,,,,,,1,6,img/B06_01.jpg,CONTROL,Press K as soon as you see a face, ,KJ,,,,,,,,,,,,,,,,,,,,,,,,,,,,,,,,,,,,,,,,,,,,,,714.551,0,36,36,56,1,109,0,0,0,0,1,98,,,,,,,,,,,,,,,,,,,,,,,,,,,,,,,,,,,,,,,,,,,,,,,,,,,,,,,,,,,,,,,,,,,
,,,,177540,001,2023-11-09_19h41.47.209,fluency,2022.2.4,Win32,60.10337781,,,,,,,,,,,,,,,,,,,,,,,,,,,,,,,,,,,,,,,,,,,,,,,,,,,,,,,,,,,,,,,,,,,,,,,,,,,,,,,,,,0,0,0,0,1,,"[""k""]",[0.5790999999046562],0,"[""k""]",[0.5790999999046562],,,,,,,,,,,,,,,,,,,,,,,,,,,,,,,,,,,,,,,,,,,,,,,,,,,,,,,,,,,,,,
,,,,177540,001,2023-11-09_19h41.47.209,fluency,2022.2.4,Win32,60.10337781,,,,,,,,,,,,,,,,,,,,,,,1,6,img/B06_01.jpg,CONTROL,Press K as soon as you see a face, ,KJ,,,,,,,,,,,,,,,,,,,,,,,,,,,,,,,,3,1.7691,,,,,,,,,,,,,,0,36,36,56,1,,,,,,,,,,,,,space,1.3354,,,,,,,,,,,,,,,,,,,,,,,,,,,,,,,,,,,,,,,,,,,,,,,,,,,,,,,,,,,,
,,,,177540,001,2023-11-09_19h41.47.209,fluency,2022.2.4,Win32,60.10337781,,,,,,,,,,,,,,,,,,,,,,,4,2,img/B02_04.jpg,CONTROL,Press K as soon as you see a face, ,KJ,,,,,,,,,,,,,,,,,,,,,,,,,,,,,,,,,,,,,,,,,,,,,,721.7073,0,37,37,15,1,109,0,0,0,0,1,98,,,,,,,,,,,,,,,,,,,,,,,,,,,,,,,,,,,,,,,,,,,,,,,,,,,,,,,,,,,,,,,,,,,
,,,,177540,001,2023-11-09_19h41.47.209,fluency,2022.2.4,Win32,60.10337781,,,,,,,,,,,,,,,,,,,,,,,,,,,,,,,,,,,,,,,,,,,,,,,,,,,,,,,,,,,,,,,,,,,,,,,,,,,,,,,,,,0,0,0,0,1,,"[""k""]",[0.5493999998569734],0,"[""k""]",[0.5492999999522681],,,,,,,,,,,,,,,,,,,,,,,,,,,,,,,,,,,,,,,,,,,,,,,,,,,,,,,,,,,,,,
,,,,177540,001,2023-11-09_19h41.47.209,fluency,2022.2.4,Win32,60.10337781,,,,,,,,,,,,,,,,,,,,,,,4,2,img/B02_04.jpg,CONTROL,Press K as soon as you see a face, ,KJ,,,,,,,,,,,,,,,,,,,,,,,,,,,,,,,,5,2.9743,,,,,,,,,,,,,,0,37,37,15,1,,,,,,,,,,,,,space,0.974,,,,,,,,,,,,,,,,,,,,,,,,,,,,,,,,,,,,,,,,,,,,,,,,,,,,,,,,,,,,
,,,,177540,001,2023-11-09_19h41.47.209,fluency,2022.2.4,Win32,60.10337781,,,,,,,,,,,,,,,,,,,,,,,8,10,img/B10_08.jpg,CONTROL,Press K as soon as you see a face, ,KJ,,,,,,,,,,,,,,,,,,,,,,,,,,,,,,,,,,,,,,,,,,,,,,730.6984,0,38,38,107,1,109,0,0,0,0,1,98,,,,,,,,,,,,,,,,,,,,,,,,,,,,,,,,,,,,,,,,,,,,,,,,,,,,,,,,,,,,,,,,,,,
,,,,177540,001,2023-11-09_19h41.47.209,fluency,2022.2.4,Win32,60.10337781,,,,,,,,,,,,,,,,,,,,,,,,,,,,,,,,,,,,,,,,,,,,,,,,,,,,,,,,,,,,,,,,,,,,,,,,,,,,,,,,,,0,0,0,0,1,,"[""k""]",[0.3781999998093397],0,"[""k""]",[0.3781999998093397],,,,,,,,,,,,,,,,,,,,,,,,,,,,,,,,,,,,,,,,,,,,,,,,,,,,,,,,,,,,,,
,,,,177540,001,2023-11-09_19h41.47.209,fluency,2022.2.4,Win32,60.10337781,,,,,,,,,,,,,,,,,,,,,,,8,10,img/B10_08.jpg,CONTROL,Press K as soon as you see a face, ,KJ,,,,,,,,,,,,,,,,,,,,,,,,,,,,,,,,6,1.9181,,,,,,,,,,,,,,0,38,38,107,1,,,,,,,,,,,,,space,2.0253,,,,,,,,,,,,,,,,,,,,,,,,,,,,,,,,,,,,,,,,,,,,,,,,,,,,,,,,,,,,
,,,,177540,001,2023-11-09_19h41.47.209,fluency,2022.2.4,Win32,60.10337781,,,,,,,,,,,,,,,,,,,,,,,7,10,img/B10_07.jpg,CONTROL,Press K as soon as you see a face, ,KJ,,,,,,,,,,,,,,,,,,,,,,,,,,,,,,,,,,,,,,,,,,,,,,739.6896,0,39,39,106,1,109,0,0,0,0,1,98,,,,,,,,,,,,,,,,,,,,,,,,,,,,,,,,,,,,,,,,,,,,,,,,,,,,,,,,,,,,,,,,,,,
,,,,177540,001,2023-11-09_19h41.47.209,fluency,2022.2.4,Win32,60.10337781,,,,,,,,,,,,,,,,,,,,,,,,,,,,,,,,,,,,,,,,,,,,,,,,,,,,,,,,,,,,,,,,,,,,,,,,,,,,,,,,,,0,0,0,0,1,,"[""k""]",[0.5794000000953474],0,"[""k""]",[0.5792999999522408],,,,,,,,,,,,,,,,,,,,,,,,,,,,,,,,,,,,,,,,,,,,,,,,,,,,,,,,,,,,,,
,,,,177540,001,2023-11-09_19h41.47.209,fluency,2022.2.4,Win32,60.10337781,,,,,,,,,,,,,,,,,,,,,,,7,10,img/B10_07.jpg,CONTROL,Press K as soon as you see a face, ,KJ,,,,,,,,,,,,,,,,,,,,,,,,,,,,,,,,6,2.0631,,,,,,,,,,,,,,0,39,39,106,1,,,,,,,,,,,,,space,1.6688,,,,,,,,,,,,,,,,,,,,,,,,,,,,,,,,,,,,,,,,,,,,,,,,,,,,,,,,,,,,
,,,,177540,001,2023-11-09_19h41.47.209,fluency,2022.2.4,Win32,60.10337781,,,,,,,,,,,,,,,,,,,,,,,1,8,img/B08_01.jpg,CONTROL,Press K as soon as you see a face, ,KJ,,,,,,,,,,,,,,,,,,,,,,,,,,,,,,,,,,,,,,,,,,,,,,748.4636,0,40,40,78,1,109,0,0,0,0,1,98,,,,,,,,,,,,,,,,,,,,,,,,,,,,,,,,,,,,,,,,,,,,,,,,,,,,,,,,,,,,,,,,,,,
,,,,177540,001,2023-11-09_19h41.47.209,fluency,2022.2.4,Win32,60.10337781,,,,,,,,,,,,,,,,,,,,,,,,,,,,,,,,,,,,,,,,,,,,,,,,,,,,,,,,,,,,,,,,,,,,,,,,,,,,,,,,,,0,0,0,0,1,,"[""k""]",[0.4790999999046335],0,"[""k""]",[0.47900000000004184],,,,,,,,,,,,,,,,,,,,,,,,,,,,,,,,,,,,,,,,,,,,,,,,,,,,,,,,,,,,,,
,,,,177540,001,2023-11-09_19h41.47.209,fluency,2022.2.4,Win32,60.10337781,,,,,,,,,,,,,,,,,,,,,,,1,8,img/B08_01.jpg,CONTROL,Press K as soon as you see a face, ,KJ,,,,,,,,,,,,,,,,,,,,,,,,,,,,,,,,4,1.4632,,,,,,,,,,,,,,0,40,40,78,1,,,,,,,,,,,,,space,1.0013,,,,,,,,,,,,,,,,,,,,,,,,,,,,,,,,,,,,,,,,,,,,,,,,,,,,,,,,,,,,
,,,,177540,001,2023-11-09_19h41.47.209,fluency,2022.2.4,Win32,60.10337781,,,,,,,,,,,,,,,,,,,,,,,6,1,img/B01_06.jpg,CONTROL,Press K as soon as you see a face, ,KJ,,,,,,,,,,,,,,,,,,,,,,,,,,,,,,,,,,,,,,,,,,,,,,755.9703,0,41,41,6,1,109,0,0,0,0,1,98,,,,,,,,,,,,,,,,,,,,,,,,,,,,,,,,,,,,,,,,,,,,,,,,,,,,,,,,,,,,,,,,,,,
,,,,177540,001,2023-11-09_19h41.47.209,fluency,2022.2.4,Win32,60.10337781,,,,,,,,,,,,,,,,,,,,,,,,,,,,,,,,,,,,,,,,,,,,,,,,,,,,,,,,,,,,,,,,,,,,,,,,,,,,,,,,,,0,0,0,0,1,,"[""k""]",[0.5994000000953292],0,"[""k""]",[0.5994000000953292],,,,,,,,,,,,,,,,,,,,,,,,,,,,,,,,,,,,,,,,,,,,,,,,,,,,,,,,,,,,,,
,,,,177540,001,2023-11-09_19h41.47.209,fluency,2022.2.4,Win32,60.10337781,,,,,,,,,,,,,,,,,,,,,,,6,1,img/B01_06.jpg,CONTROL,Press K as soon as you see a face, ,KJ,,,,,,,,,,,,,,,,,,,,,,,,,,,,,,,,4,5.8675,,,,,,,,,,,,,,0,41,41,6,1,,,,,,,,,,,,,space,1.3201,,,,,,,,,,,,,,,,,,,,,,,,,,,,,,,,,,,,,,,,,,,,,,,,,,,,,,,,,,,,
,,,,177540,001,2023-11-09_19h41.47.209,fluency,2022.2.4,Win32,60.10337781,,,,,,,,,,,,,,,,,,,,,,,0,10,img/B10_00.jpg,CONTROL,Press K as soon as you see a face, ,KJ,,,,,,,,,,,,,,,,,,,,,,,,,,,,,,,,,,,,,,,,,,,,,,768.1975,0,42,42,99,1,109,0,0,0,0,1,98,,,,,,,,,,,,,,,,,,,,,,,,,,,,,,,,,,,,,,,,,,,,,,,,,,,,,,,,,,,,,,,,,,,
,,,,177540,001,2023-11-09_19h41.47.209,fluency,2022.2.4,Win32,60.10337781,,,,,,,,,,,,,,,,,,,,,,,,,,,,,,,,,,,,,,,,,,,,,,,,,,,,,,,,,,,,,,,,,,,,,,,,,,,,,,,,,,0,0,0,0,1,,"[""k""]",[0.7467999999523727],0,"[""k""]",[0.7467999999523727],,,,,,,,,,,,,,,,,,,,,,,,,,,,,,,,,,,,,,,,,,,,,,,,,,,,,,,,,,,,,,
,,,,177540,001,2023-11-09_19h41.47.209,fluency,2022.2.4,Win32,60.10337781,,,,,,,,,,,,,,,,,,,,,,,0,10,img/B10_00.jpg,CONTROL,Press K as soon as you see a face, ,KJ,,,,,,,,,,,,,,,,,,,,,,,,,,,,,,,,4,4.698,,,,,,,,,,,,,,0,42,42,99,1,,,,,,,,,,,,,space,1.1019,,,,,,,,,,,,,,,,,,,,,,,,,,,,,,,,,,,,,,,,,,,,,,,,,,,,,,,,,,,,
,,,,177540,001,2023-11-09_19h41.47.209,fluency,2022.2.4,Win32,60.10337781,,,,,,,,,,,,,,,,,,,,,,,5,8,img/B08_05.jpg,CONTROL,Press K as soon as you see a face, ,KJ,,,,,,,,,,,,,,,,,,,,,,,,,,,,,,,,,,,,,,,,,,,,,,779.0401,0,43,43,82,1,109,0,0,0,0,1,98,,,,,,,,,,,,,,,,,,,,,,,,,,,,,,,,,,,,,,,,,,,,,,,,,,,,,,,,,,,,,,,,,,,
,,,,177540,001,2023-11-09_19h41.47.209,fluency,2022.2.4,Win32,60.10337781,,,,,,,,,,,,,,,,,,,,,,,,,,,,,,,,,,,,,,,,,,,,,,,,,,,,,,,,,,,,,,,,,,,,,,,,,,,,,,,,,,0,0,0,0,1,,"[""k""]",[0.3779000000953374],0,"[""k""]",[0.3777999999522308],,,,,,,,,,,,,,,,,,,,,,,,,,,,,,,,,,,,,,,,,,,,,,,,,,,,,,,,,,,,,,
,,,,177540,001,2023-11-09_19h41.47.209,fluency,2022.2.4,Win32,60.10337781,,,,,,,,,,,,,,,,,,,,,,,5,8,img/B08_05.jpg,CONTROL,Press K as soon as you see a face, ,KJ,,,,,,,,,,,,,,,,,,,,,,,,,,,,,,,,4,1.6757,,,,,,,,,,,,,,0,43,43,82,1,,,,,,,,,,,,,space,0.9429,,,,,,,,,,,,,,,,,,,,,,,,,,,,,,,,,,,,,,,,,,,,,,,,,,,,,,,,,,,,
,,,,177540,001,2023-11-09_19h41.47.209,fluency,2022.2.4,Win32,60.10337781,,,,,,,,,,,,,,,,,,,,,,,5,5,img/B05_05.jpg,CONTROL,Press K as soon as you see a face, ,KJ,,,,,,,,,,,,,,,,,,,,,,,,,,,,,,,,,,,,,,,,,,,,,,786.6966,0,44,44,49,1,109,0,0,0,0,1,98,,,,,,,,,,,,,,,,,,,,,,,,,,,,,,,,,,,,,,,,,,,,,,,,,,,,,,,,,,,,,,,,,,,
,,,,177540,001,2023-11-09_19h41.47.209,fluency,2022.2.4,Win32,60.10337781,,,,,,,,,,,,,,,,,,,,,,,,,,,,,,,,,,,,,,,,,,,,,,,,,,,,,,,,,,,,,,,,,,,,,,,,,,,,,,,,,,0,0,0,0,1,,"[""k""]",[0.3632999999523463],0,"[""k""]",[0.3632999999523463],,,,,,,,,,,,,,,,,,,,,,,,,,,,,,,,,,,,,,,,,,,,,,,,,,,,,,,,,,,,,,
,,,,177540,001,2023-11-09_19h41.47.209,fluency,2022.2.4,Win32,60.10337781,,,,,,,,,,,,,,,,,,,,,,,5,5,img/B05_05.jpg,CONTROL,Press K as soon as you see a face, ,KJ,,,,,,,,,,,,,,,,,,,,,,,,,,,,,,,,5,4.3039,,,,,,,,,,,,,,0,44,44,49,1,,,,,,,,,,,,,space,2.0688,,,,,,,,,,,,,,,,,,,,,,,,,,,,,,,,,,,,,,,,,,,,,,,,,,,,,,,,,,,,
,,,,177540,001,2023-11-09_19h41.47.209,fluency,2022.2.4,Win32,60.10337781,,,,,,,,,,,,,,,,,,,,,,,0,6,img/B06_00.jpg,CONTROL,Press K as soon as you see a face, ,KJ,,,,,,,,,,,,,,,,,,,,,,,,,,,,,,,,,,,,,,,,,,,,,,798.1234,0,45,45,55,1,109,0,0,0,0,1,98,,,,,,,,,,,,,,,,,,,,,,,,,,,,,,,,,,,,,,,,,,,,,,,,,,,,,,,,,,,,,,,,,,,
,,,,177540,001,2023-11-09_19h41.47.209,fluency,2022.2.4,Win32,60.10337781,,,,,,,,,,,,,,,,,,,,,,,,,,,,,,,,,,,,,,,,,,,,,,,,,,,,,,,,,,,,,,,,,,,,,,,,,,,,,,,,,,0,0,0,0,1,,"[""k""]",[0.31550000000004275],0,"[""k""]",[0.31550000000004275],,,,,,,,,,,,,,,,,,,,,,,,,,,,,,,,,,,,,,,,,,,,,,,,,,,,,,,,,,,,,,
,,,,177540,001,2023-11-09_19h41.47.209,fluency,2022.2.4,Win32,60.10337781,,,,,,,,,,,,,,,,,,,,,,,0,6,img/B06_00.jpg,CONTROL,Press K as soon as you see a face, ,KJ,,,,,,,,,,,,,,,,,,,,,,,,,,,,,,,,3,1.5208,,,,,,,,,,,,,,0,45,45,55,1,,,,,,,,,,,,,space,0.717,,,,,,,,,,,,,,,,,,,,,,,,,,,,,,,,,,,,,,,,,,,,,,,,,,,,,,,,,,,,
,,,,177540,001,2023-11-09_19h41.47.209,fluency,2022.2.4,Win32,60.10337781,,,,,,,,,,,,,,,,,,,,,,,10,1,img/B01_10.jpg,CONTROL,Press K as soon as you see a face, ,KJ,,,,,,,,,,,,,,,,,,,,,,,,,,,,,,,,,,,,,,,,,,,,,,804.4121,0,46,46,10,1,109,0,0,0,0,1,98,,,,,,,,,,,,,,,,,,,,,,,,,,,,,,,,,,,,,,,,,,,,,,,,,,,,,,,,,,,,,,,,,,,
,,,,177540,001,2023-11-09_19h41.47.209,fluency,2022.2.4,Win32,60.10337781,,,,,,,,,,,,,,,,,,,,,,,,,,,,,,,,,,,,,,,,,,,,,,,,,,,,,,,,,,,,,,,,,,,,,,,,,,,,,,,,,,0,0,0,0,1,,"[""k""]",[0.5965999999045835],0,"[""k""]",[0.5965999999045835],,,,,,,,,,,,,,,,,,,,,,,,,,,,,,,,,,,,,,,,,,,,,,,,,,,,,,,,,,,,,,
,,,,177540,001,2023-11-09_19h41.47.209,fluency,2022.2.4,Win32,60.10337781,,,,,,,,,,,,,,,,,,,,,,,10,1,img/B01_10.jpg,CONTROL,Press K as soon as you see a face, ,KJ,,,,,,,,,,,,,,,,,,,,,,,,,,,,,,,,5,2.0623,,,,,,,,,,,,,,0,46,46,10,1,,,,,,,,,,,,,space,1.2183,,,,,,,,,,,,,,,,,,,,,,,,,,,,,,,,,,,,,,,,,,,,,,,,,,,,,,,,,,,,
,,,,177540,001,2023-11-09_19h41.47.209,fluency,2022.2.4,Win32,60.10337781,,,,,,,,,,,,,,,,,,,,,,,2,10,img/B10_02.jpg,CONTROL,Press K as soon as you see a face, ,KJ,,,,,,,,,,,,,,,,,,,,,,,,,,,,,,,,,,,,,,,,,,,,,,812.7362,0,47,47,101,1,109,0,0,0,0,1,98,,,,,,,,,,,,,,,,,,,,,,,,,,,,,,,,,,,,,,,,,,,,,,,,,,,,,,,,,,,,,,,,,,,
,,,,177540,001,2023-11-09_19h41.47.209,fluency,2022.2.4,Win32,60.10337781,,,,,,,,,,,,,,,,,,,,,,,,,,,,,,,,,,,,,,,,,,,,,,,,,,,,,,,,,,,,,,,,,,,,,,,,,,,,,,,,,,0,0,0,0,1,,"[""k""]",[0.4315000000000282],0,"[""k""]",[0.4315000000000282],,,,,,,,,,,,,,,,,,,,,,,,,,,,,,,,,,,,,,,,,,,,,,,,,,,,,,,,,,,,,,
,,,,177540,001,2023-11-09_19h41.47.209,fluency,2022.2.4,Win32,60.10337781,,,,,,,,,,,,,,,,,,,,,,,2,10,img/B10_02.jpg,CONTROL,Press K as soon as you see a face, ,KJ,,,,,,,,,,,,,,,,,,,,,,,,,,,,,,,,4,1.3853,,,,,,,,,,,,,,0,47,47,101,1,,,,,,,,,,,,,space,0.856,,,,,,,,,,,,,,,,,,,,,,,,,,,,,,,,,,,,,,,,,,,,,,,,,,,,,,,,,,,,
,,,,177540,001,2023-11-09_19h41.47.209,fluency,2022.2.4,Win32,60.10337781,,,,,,,,,,,,,,,,,,,,,,,4,3,img/B03_04.jpg,CONTROL,Press K as soon as you see a face, ,KJ,,,,,,,,,,,,,,,,,,,,,,,,,,,,,,,,,,,,,,,,,,,,,,819.0248,0,48,48,26,1,109,0,0,0,0,1,98,,,,,,,,,,,,,,,,,,,,,,,,,,,,,,,,,,,,,,,,,,,,,,,,,,,,,,,,,,,,,,,,,,,
,,,,177540,001,2023-11-09_19h41.47.209,fluency,2022.2.4,Win32,60.10337781,,,,,,,,,,,,,,,,,,,,,,,,,,,,,,,,,,,,,,,,,,,,,,,,,,,,,,,,,,,,,,,,,,,,,,,,,,,,,,,,,,0,0,0,0,1,,"[""k""]",[0.7191000001430439],0,"[""k""]",[0.7191000001430439],,,,,,,,,,,,,,,,,,,,,,,,,,,,,,,,,,,,,,,,,,,,,,,,,,,,,,,,,,,,,,
,,,,177540,001,2023-11-09_19h41.47.209,fluency,2022.2.4,Win32,60.10337781,,,,,,,,,,,,,,,,,,,,,,,4,3,img/B03_04.jpg,CONTROL,Press K as soon as you see a face, ,KJ,,,,,,,,,,,,,,,,,,,,,,,,,,,,,,,,3,1.2422,,,,,,,,,,,,,,0,48,48,26,1,,,,,,,,,,,,,space,11.1442,,,,,,,,,,,,,,,,,,,,,,,,,,,,,,,,,,,,,,,,,,,,,,,,,,,,,,,,,,,,
,,,,177540,001,2023-11-09_19h41.47.209,fluency,2022.2.4,Win32,60.10337781,,,,,,,,,,,,,,,,,,,,,,,0,4,img/B04_00.jpg,CONTROL,Press K as soon as you see a face, ,KJ,,,,,,,,,,,,,,,,,,,,,,,,,,,,,,,,,,,,,,,,,,,,,,835.4558,0,49,49,33,1,109,0,0,0,0,1,98,,,,,,,,,,,,,,,,,,,,,,,,,,,,,,,,,,,,,,,,,,,,,,,,,,,,,,,,,,,,,,,,,,,
,,,,177540,001,2023-11-09_19h41.47.209,fluency,2022.2.4,Win32,60.10337781,,,,,,,,,,,,,,,,,,,,,,,,,,,,,,,,,,,,,,,,,,,,,,,,,,,,,,,,,,,,,,,,,,,,,,,,,,,,,,,,,,0,0,0,0,1,,"[""k""]",[0.72950000000003],0,"[""k""]",[0.72950000000003],,,,,,,,,,,,,,,,,,,,,,,,,,,,,,,,,,,,,,,,,,,,,,,,,,,,,,,,,,,,,,
,,,,177540,001,2023-11-09_19h41.47.209,fluency,2022.2.4,Win32,60.10337781,,,,,,,,,,,,,,,,,,,,,,,0,4,img/B04_00.jpg,CONTROL,Press K as soon as you see a face, ,KJ,,,,,,,,,,,,,,,,,,,,,,,,,,,,,,,,6,4.1118,,,,,,,,,,,,,,0,49,49,33,1,,,,,,,,,,,,,space,0.7854,,,,,,,,,,,,,,,,,,,,,,,,,,,,,,,,,,,,,,,,,,,,,,,,,,,,,,,,,,,,
,,,,177540,001,2023-11-09_19h41.47.209,fluency,2022.2.4,Win32,60.10337781,,,,,,,,,,,,,,,,,,,,,,,1,9,img/B09_01.jpg,CONTROL,Press K as soon as you see a face, ,KJ,,,,,,,,,,,,,,,,,,,,,,,,,,,,,,,,,,,,,,,,,,,,,,844.3968,0,50,50,89,1,109,0,0,0,0,1,98,,,,,,,,,,,,,,,,,,,,,,,,,,,,,,,,,,,,,,,,,,,,,,,,,,,,,,,,,,,,,,,,,,,
,,,,177540,001,2023-11-09_19h41.47.209,fluency,2022.2.4,Win32,60.10337781,,,,,,,,,,,,,,,,,,,,,,,,,,,,,,,,,,,,,,,,,,,,,,,,,,,,,,,,,,,,,,,,,,,,,,,,,,,,,,,,,,0,0,0,0,1,,"[""k""]",[0.529099999904588],0,"[""k""]",[0.529099999904588],,,,,,,,,,,,,,,,,,,,,,,,,,,,,,,,,,,,,,,,,,,,,,,,,,,,,,,,,,,,,,
,,,,177540,001,2023-11-09_19h41.47.209,fluency,2022.2.4,Win32,60.10337781,,,,,,,,,,,,,,,,,,,,,,,1,9,img/B09_01.jpg,CONTROL,Press K as soon as you see a face, ,KJ,,,,,,,,,,,,,,,,,,,,,,,,,,,,,,,,6,1.6536,,,,,,,,,,,,,,0,50,50,89,1,,,,,,,,,,,,,space,0.8845,,,,,,,,,,,,,,,,,,,,,,,,,,,,,,,,,,,,,,,,,,,,,,,,,,,,,,,,,,,,
,,,,177540,001,2023-11-09_19h41.47.209,fluency,2022.2.4,Win32,60.10337781,,,,,,,,,,,,,,,,,,,,,,,10,4,img/B04_10.jpg,CONTROL,Press K as soon as you see a face, ,KJ,,,,,,,,,,,,,,,,,,,,,,,,,,,,,,,,,,,,,,,,,,,,,,851.9864,0,51,51,43,1,109,0,0,0,0,1,98,,,,,,,,,,,,,,,,,,,,,,,,,,,,,,,,,,,,,,,,,,,,,,,,,,,,,,,,,,,,,,,,,,,
,,,,177540,001,2023-11-09_19h41.47.209,fluency,2022.2.4,Win32,60.10337781,,,,,,,,,,,,,,,,,,,,,,,,,,,,,,,,,,,,,,,,,,,,,,,,,,,,,,,,,,,,,,,,,,,,,,,,,,,,,,,,,,0,0,0,0,1,,"[""k""]",[0.36510000014300203],0,"[""k""]",[0.3650000000000091],,,,,,,,,,,,,,,,,,,,,,,,,,,,,,,,,,,,,,,,,,,,,,,,,,,,,,,,,,,,,,
,,,,177540,001,2023-11-09_19h41.47.209,fluency,2022.2.4,Win32,60.10337781,,,,,,,,,,,,,,,,,,,,,,,10,4,img/B04_10.jpg,CONTROL,Press K as soon as you see a face, ,KJ,,,,,,,,,,,,,,,,,,,,,,,,,,,,,,,,5,6.1749,,,,,,,,,,,,,,0,51,51,43,1,,,,,,,,,,,,,space,1.0186,,,,,,,,,,,,,,,,,,,,,,,,,,,,,,,,,,,,,,,,,,,,,,,,,,,,,,,,,,,,
,,,,177540,001,2023-11-09_19h41.47.209,fluency,2022.2.4,Win32,60.10337781,,,,,,,,,,,,,,,,,,,,,,,9,6,img/B06_09.jpg,CONTROL,Press K as soon as you see a face, ,KJ,,,,,,,,,,,,,,,,,,,,,,,,,,,,,,,,,,,,,,,,,,,,,,863.2296,0,52,52,64,1,109,0,0,0,0,1,98,,,,,,,,,,,,,,,,,,,,,,,,,,,,,,,,,,,,,,,,,,,,,,,,,,,,,,,,,,,,,,,,,,,
,,,,177540,001,2023-11-09_19h41.47.209,fluency,2022.2.4,Win32,60.10337781,,,,,,,,,,,,,,,,,,,,,,,,,,,,,,,,,,,,,,,,,,,,,,,,,,,,,,,,,,,,,,,,,,,,,,,,,,,,,,,,,,0,0,0,0,1,,"[""k""]",[0.4329000000954011],0,"[""k""]",[0.4329000000954011],,,,,,,,,,,,,,,,,,,,,,,,,,,,,,,,,,,,,,,,,,,,,,,,,,,,,,,,,,,,,,
,,,,177540,001,2023-11-09_19h41.47.209,fluency,2022.2.4,Win32,60.10337781,,,,,,,,,,,,,,,,,,,,,,,9,6,img/B06_09.jpg,CONTROL,Press K as soon as you see a face, ,KJ,,,,,,,,,,,,,,,,,,,,,,,,,,,,,,,,6,2.5127,,,,,,,,,,,,,,0,52,52,64,1,,,,,,,,,,,,,space,1.1246,,,,,,,,,,,,,,,,,,,,,,,,,,,,,,,,,,,,,,,,,,,,,,,,,,,,,,,,,,,,
,,,,177540,001,2023-11-09_19h41.47.209,fluency,2022.2.4,Win32,60.10337781,,,,,,,,,,,,,,,,,,,,,,,0,5,img/B05_00.jpg,CONTROL,Press K as soon as you see a face, ,KJ,,,,,,,,,,,,,,,,,,,,,,,,,,,,,,,,,,,,,,,,,,,,,,870.9032,0,53,53,44,1,109,0,0,0,0,1,98,,,,,,,,,,,,,,,,,,,,,,,,,,,,,,,,,,,,,,,,,,,,,,,,,,,,,,,,,,,,,,,,,,,
,,,,177540,001,2023-11-09_19h41.47.209,fluency,2022.2.4,Win32,60.10337781,,,,,,,,,,,,,,,,,,,,,,,,,,,,,,,,,,,,,,,,,,,,,,,,,,,,,,,,,,,,,,,,,,,,,,,,,,,,,,,,,,0,0,0,0,1,,"[""k""]",[0.4126000001430157],0,"[""k""]",[0.4126000001430157],,,,,,,,,,,,,,,,,,,,,,,,,,,,,,,,,,,,,,,,,,,,,,,,,,,,,,,,,,,,,,
,,,,177540,001,2023-11-09_19h41.47.209,fluency,2022.2.4,Win32,60.10337781,,,,,,,,,,,,,,,,,,,,,,,0,5,img/B05_00.jpg,CONTROL,Press K as soon as you see a face, ,KJ,,,,,,,,,,,,,,,,,,,,,,,,,,,,,,,,4,1.6789,,,,,,,,,,,,,,0,53,53,44,1,,,,,,,,,,,,,space,0.9417,,,,,,,,,,,,,,,,,,,,,,,,,,,,,,,,,,,,,,,,,,,,,,,,,,,,,,,,,,,,
,,,,177540,001,2023-11-09_19h41.47.209,fluency,2022.2.4,Win32,60.10337781,,,,,,,,,,,,,,,,,,,,,,,8,7,img/B07_08.jpg,CONTROL,Press K as soon as you see a face, ,KJ,,,,,,,,,,,,,,,,,,,,,,,,,,,,,,,,,,,,,,,,,,,,,,878.5596,0,54,54,74,1,109,0,0,0,0,1,98,,,,,,,,,,,,,,,,,,,,,,,,,,,,,,,,,,,,,,,,,,,,,,,,,,,,,,,,,,,,,,,,,,,
,,,,177540,001,2023-11-09_19h41.47.209,fluency,2022.2.4,Win32,60.10337781,,,,,,,,,,,,,,,,,,,,,,,,,,,,,,,,,,,,,,,,,,,,,,,,,,,,,,,,,,,,,,,,,,,,,,,,,,,,,,,,,,0,0,0,0,1,,"[""k""]",[0.31260000014299294],0,"[""k""]",[0.31260000014299294],,,,,,,,,,,,,,,,,,,,,,,,,,,,,,,,,,,,,,,,,,,,,,,,,,,,,,,,,,,,,,
,,,,177540,001,2023-11-09_19h41.47.209,fluency,2022.2.4,Win32,60.10337781,,,,,,,,,,,,,,,,,,,,,,,8,7,img/B07_08.jpg,CONTROL,Press K as soon as you see a face, ,KJ,,,,,,,,,,,,,,,,,,,,,,,,,,,,,,,,6,4.5401,,,,,,,,,,,,,,0,54,54,74,1,,,,,,,,,,,,,space,1.6556,,,,,,,,,,,,,,,,,,,,,,,,,,,,,,,,,,,,,,,,,,,,,,,,,,,,,,,,,,,,
,,,,177540,001,2023-11-09_19h41.47.209,fluency,2022.2.4,Win32,60.10337781,,,,,,,,,,,,,,,,,,,,,,,7,5,img/B05_07.jpg,CONTROL,Press K as soon as you see a face, ,KJ,,,,,,,,,,,,,,,,,,,,,,,,,,,,,,,,,,,,,,,,,,,,,,889.8027,0,55,55,51,1,109,0,0,0,0,1,98,,,,,,,,,,,,,,,,,,,,,,,,,,,,,,,,,,,,,,,,,,,,,,,,,,,,,,,,,,,,,,,,,,,
,,,,177540,001,2023-11-09_19h41.47.209,fluency,2022.2.4,Win32,60.10337781,,,,,,,,,,,,,,,,,,,,,,,,,,,,,,,,,,,,,,,,,,,,,,,,,,,,,,,,,,,,,,,,,,,,,,,,,,,,,,,,,,0,0,0,0,1,,"[""k""]",[0.5004000000952828],0,"[""k""]",[0.5004000000952828],,,,,,,,,,,,,,,,,,,,,,,,,,,,,,,,,,,,,,,,,,,,,,,,,,,,,,,,,,,,,,
,,,,177540,001,2023-11-09_19h41.47.209,fluency,2022.2.4,Win32,60.10337781,,,,,,,,,,,,,,,,,,,,,,,7,5,img/B05_07.jpg,CONTROL,Press K as soon as you see a face, ,KJ,,,,,,,,,,,,,,,,,,,,,,,,,,,,,,,,6,1.8384,,,,,,,,,,,,,,0,55,55,51,1,,,,,,,,,,,,,space,0.918,,,,,,,,,,,,,,,,,,,,,,,,,,,,,,,,,,,,,,,,,,,,,,,,,,,,,,,,,,,,
,,,,177540,001,2023-11-09_19h41.47.209,fluency,2022.2.4,Win32,60.10337781,,,,,,,,,,,,,,,,,,,,,,,8,1,img/B01_08.jpg,CONTROL,Press K as soon as you see a face, ,KJ,,,,,,,,,,,,,,,,,,,,,,,,,,,,,,,,,,,,,,,,,,,,,,897.6094,0,56,56,8,1,109,0,0,0,0,1,98,,,,,,,,,,,,,,,,,,,,,,,,,,,,,,,,,,,,,,,,,,,,,,,,,,,,,,,,,,,,,,,,,,,
,,,,177540,001,2023-11-09_19h41.47.209,fluency,2022.2.4,Win32,60.10337781,,,,,,,,,,,,,,,,,,,,,,,,,,,,,,,,,,,,,,,,,,,,,,,,,,,,,,,,,,,,,,,,,,,,,,,,,,,,,,,,,,0,0,0,0,1,,"[""k""]",[0.5177000000477392],0,"[""k""]",[0.5177999999523308],,,,,,,,,,,,,,,,,,,,,,,,,,,,,,,,,,,,,,,,,,,,,,,,,,,,,,,,,,,,,,
,,,,177540,001,2023-11-09_19h41.47.209,fluency,2022.2.4,Win32,60.10337781,,,,,,,,,,,,,,,,,,,,,,,8,1,img/B01_08.jpg,CONTROL,Press K as soon as you see a face, ,KJ,,,,,,,,,,,,,,,,,,,,,,,,,,,,,,,,6,2.1017,,,,,,,,,,,,,,0,56,56,8,1,,,,,,,,,,,,,space,0.8173,,,,,,,,,,,,,,,,,,,,,,,,,,,,,,,,,,,,,,,,,,,,,,,,,,,,,,,,,,,,
,,,,177540,001,2023-11-09_19h41.47.209,fluency,2022.2.4,Win32,60.10337781,,,,,,,,,,,,,,,,,,,,,,,9,1,img/B01_09.jpg,CONTROL,Press K as soon as you see a face, ,KJ,,,,,,,,,,,,,,,,,,,,,,,,,,,,,,,,,,,,,,,,,,,,,,905.5831,0,57,57,9,1,109,0,0,0,0,1,98,,,,,,,,,,,,,,,,,,,,,,,,,,,,,,,,,,,,,,,,,,,,,,,,,,,,,,,,,,,,,,,,,,,
,,,,177540,001,2023-11-09_19h41.47.209,fluency,2022.2.4,Win32,60.10337781,,,,,,,,,,,,,,,,,,,,,,,,,,,,,,,,,,,,,,,,,,,,,,,,,,,,,,,,,,,,,,,,,,,,,,,,,,,,,,,,,,0,0,0,0,1,,"[""k""]",[0.40049999999996544],0,"[""k""]",[0.4003999998569725],,,,,,,,,,,,,,,,,,,,,,,,,,,,,,,,,,,,,,,,,,,,,,,,,,,,,,,,,,,,,,
,,,,177540,001,2023-11-09_19h41.47.209,fluency,2022.2.4,Win32,60.10337781,,,,,,,,,,,,,,,,,,,,,,,9,1,img/B01_09.jpg,CONTROL,Press K as soon as you see a face, ,KJ,,,,,,,,,,,,,,,,,,,,,,,,,,,,,,,,6,1.9017,,,,,,,,,,,,,,0,57,57,9,1,,,,,,,,,,,,,space,1.0846,,,,,,,,,,,,,,,,,,,,,,,,,,,,,,,,,,,,,,,,,,,,,,,,,,,,,,,,,,,,
,,,,177540,001,2023-11-09_19h41.47.209,fluency,2022.2.4,Win32,60.10337781,,,,,,,,,,,,,,,,,,,,,,,10,7,img/B07_10.jpg,CONTROL,Press K as soon as you see a face, ,KJ,,,,,,,,,,,,,,,,,,,,,,,,,,,,,,,,,,,,,,,,,,,,,,912.6224,0,58,58,76,1,109,0,0,0,0,1,98,,,,,,,,,,,,,,,,,,,,,,,,,,,,,,,,,,,,,,,,,,,,,,,,,,,,,,,,,,,,,,,,,,,
,,,,177540,001,2023-11-09_19h41.47.209,fluency,2022.2.4,Win32,60.10337781,,,,,,,,,,,,,,,,,,,,,,,,,,,,,,,,,,,,,,,,,,,,,,,,,,,,,,,,,,,,,,,,,,,,,,,,,,,,,,,,,,0,0,0,0,1,,"[""k""]",[0.7839000000954002],0,"[""k""]",[0.7839000000954002],,,,,,,,,,,,,,,,,,,,,,,,,,,,,,,,,,,,,,,,,,,,,,,,,,,,,,,,,,,,,,
,,,,177540,001,2023-11-09_19h41.47.209,fluency,2022.2.4,Win32,60.10337781,,,,,,,,,,,,,,,,,,,,,,,10,7,img/B07_10.jpg,CONTROL,Press K as soon as you see a face, ,KJ,,,,,,,,,,,,,,,,,,,,,,,,,,,,,,,,6,1.8648,,,,,,,,,,,,,,0,58,58,76,1,,,,,,,,,,,,,space,0.8345,,,,,,,,,,,,,,,,,,,,,,,,,,,,,,,,,,,,,,,,,,,,,,,,,,,,,,,,,,,,
,,,,177540,001,2023-11-09_19h41.47.209,fluency,2022.2.4,Win32,60.10337781,,,,,,,,,,,,,,,,,,,,,,,1,5,img/B05_01.jpg,CONTROL,Press K as soon as you see a face, ,KJ,,,,,,,,,,,,,,,,,,,,,,,,,,,,,,,,,,,,,,,,,,,,,,919.3616,0,59,59,45,1,109,0,0,0,0,1,98,,,,,,,,,,,,,,,,,,,,,,,,,,,,,,,,,,,,,,,,,,,,,,,,,,,,,,,,,,,,,,,,,,,
,,,,177540,001,2023-11-09_19h41.47.209,fluency,2022.2.4,Win32,60.10337781,,,,,,,,,,,,,,,,,,,,,,,,,,,,,,,,,,,,,,,,,,,,,,,,,,,,,,,,,,,,,,,,,,,,,,,,,,,,,,,,,,0,0,0,0,1,,"[""k""]",[0.5167999999522408],0,"[""k""]",[0.5167999999522408],,,,,,,,,,,,,,,,,,,,,,,,,,,,,,,,,,,,,,,,,,,,,,,,,,,,,,,,,,,,,,
,,,,177540,001,2023-11-09_19h41.47.209,fluency,2022.2.4,Win32,60.10337781,,,,,,,,,,,,,,,,,,,,,,,1,5,img/B05_01.jpg,CONTROL,Press K as soon as you see a face, ,KJ,,,,,,,,,,,,,,,,,,,,,,,,,,,,,,,,4,1.4618,,,,,,,,,,,,,,0,59,59,45,1,,,,,,,,,,,,,space,1.0178,,,,,,,,,,,,,,,,,,,,,,,,,,,,,,,,,,,,,,,,,,,,,,,,,,,,,,,,,,,,
,,,,177540,001,2023-11-09_19h41.47.209,fluency,2022.2.4,Win32,60.10337781,,,,,,,,,,,,,,,,,,,,,,,10,8,img/B08_10.jpg,CONTROL,Press K as soon as you see a face, ,KJ,,,,,,,,,,,,,,,,,,,,,,,,,,,,,,,,,,,,,,,,,,,,,,926.8849,0,60,60,87,1,109,0,0,0,0,1,98,,,,,,,,,,,,,,,,,,,,,,,,,,,,,,,,,,,,,,,,,,,,,,,,,,,,,,,,,,,,,,,,,,,
,,,,177540,001,2023-11-09_19h41.47.209,fluency,2022.2.4,Win32,60.10337781,,,,,,,,,,,,,,,,,,,,,,,,,,,,,,,,,,,,,,,,,,,,,,,,,,,,,,,,,,,,,,,,,,,,,,,,,,,,,,,,,,0,0,0,0,1,,"[""k""]",[0.36259999990465985],0,"[""k""]",[0.36259999990465985],,,,,,,,,,,,,,,,,,,,,,,,,,,,,,,,,,,,,,,,,,,,,,,,,,,,,,,,,,,,,,
,,,,177540,001,2023-11-09_19h41.47.209,fluency,2022.2.4,Win32,60.10337781,,,,,,,,,,,,,,,,,,,,,,,10,8,img/B08_10.jpg,CONTROL,Press K as soon as you see a face, ,KJ,,,,,,,,,,,,,,,,,,,,,,,,,,,,,,,,3,2.0855,,,,,,,,,,,,,,0,60,60,87,1,,,,,,,,,,,,,space,1.3187,,,,,,,,,,,,,,,,,,,,,,,,,,,,,,,,,,,,,,,,,,,,,,,,,,,,,,,,,,,,
,,,,177540,001,2023-11-09_19h41.47.209,fluency,2022.2.4,Win32,60.10337781,,,,,,,,,,,,,,,,,,,,,,,9,3,img/B03_09.jpg,CONTROL,Press K as soon as you see a face, ,KJ,,,,,,,,,,,,,,,,,,,,,,,,,,,,,,,,,,,,,,,,,,,,,,935.3255,0,61,61,31,1,109,0,0,0,0,1,98,,,,,,,,,,,,,,,,,,,,,,,,,,,,,,,,,,,,,,,,,,,,,,,,,,,,,,,,,,,,,,,,,,,
,,,,177540,001,2023-11-09_19h41.47.209,fluency,2022.2.4,Win32,60.10337781,,,,,,,,,,,,,,,,,,,,,,,,,,,,,,,,,,,,,,,,,,,,,,,,,,,,,,,,,,,,,,,,,,,,,,,,,,,,,,,,,,0,0,0,0,1,,"[""k""]",[0.3132999999522781],0,"[""k""]",[0.3132999999522781],,,,,,,,,,,,,,,,,,,,,,,,,,,,,,,,,,,,,,,,,,,,,,,,,,,,,,,,,,,,,,
,,,,177540,001,2023-11-09_19h41.47.209,fluency,2022.2.4,Win32,60.10337781,,,,,,,,,,,,,,,,,,,,,,,9,3,img/B03_09.jpg,CONTROL,Press K as soon as you see a face, ,KJ,,,,,,,,,,,,,,,,,,,,,,,,,,,,,,,,6,1.9771,,,,,,,,,,,,,,0,61,61,31,1,,,,,,,,,,,,,space,1.0748,,,,,,,,,,,,,,,,,,,,,,,,,,,,,,,,,,,,,,,,,,,,,,,,,,,,,,,,,,,,
,,,,177540,001,2023-11-09_19h41.47.209,fluency,2022.2.4,Win32,60.10337781,,,,,,,,,,,,,,,,,,,,,,,3,1,img/B01_03.jpg,CONTROL,Press K as soon as you see a face, ,KJ,,,,,,,,,,,,,,,,,,,,,,,,,,,,,,,,,,,,,,,,,,,,,,942.4149,0,62,62,3,1,109,0,0,0,0,1,98,,,,,,,,,,,,,,,,,,,,,,,,,,,,,,,,,,,,,,,,,,,,,,,,,,,,,,,,,,,,,,,,,,,
,,,,177540,001,2023-11-09_19h41.47.209,fluency,2022.2.4,Win32,60.10337781,,,,,,,,,,,,,,,,,,,,,,,,,,,,,,,,,,,,,,,,,,,,,,,,,,,,,,,,,,,,,,,,,,,,,,,,,,,,,,,,,,0,0,0,0,1,,"[""k""]",[0.47959999990473534],0,"[""k""]",[0.47959999990473534],,,,,,,,,,,,,,,,,,,,,,,,,,,,,,,,,,,,,,,,,,,,,,,,,,,,,,,,,,,,,,
,,,,177540,001,2023-11-09_19h41.47.209,fluency,2022.2.4,Win32,60.10337781,,,,,,,,,,,,,,,,,,,,,,,3,1,img/B01_03.jpg,CONTROL,Press K as soon as you see a face, ,KJ,,,,,,,,,,,,,,,,,,,,,,,,,,,,,,,,3,2.8538,,,,,,,,,,,,,,0,62,62,3,1,,,,,,,,,,,,,space,1.1181,,,,,,,,,,,,,,,,,,,,,,,,,,,,,,,,,,,,,,,,,,,,,,,,,,,,,,,,,,,,
,,,,177540,001,2023-11-09_19h41.47.209,fluency,2022.2.4,Win32,60.10337781,,,,,,,,,,,,,,,,,,,,,,,2,2,img/B02_02.jpg,CONTROL,Press K as soon as you see a face, ,KJ,,,,,,,,,,,,,,,,,,,,,,,,,,,,,,,,,,,,,,,,,,,,,,951.4395,0,63,63,13,1,109,0,0,0,0,1,98,,,,,,,,,,,,,,,,,,,,,,,,,,,,,,,,,,,,,,,,,,,,,,,,,,,,,,,,,,,,,,,,,,,
,,,,177540,001,2023-11-09_19h41.47.209,fluency,2022.2.4,Win32,60.10337781,,,,,,,,,,,,,,,,,,,,,,,,,,,,,,,,,,,,,,,,,,,,,,,,,,,,,,,,,,,,,,,,,,,,,,,,,,,,,,,,,,0,0,0,0,1,,"[""k""]",[0.3284999999999627],0,"[""k""]",[0.3284999999999627],,,,,,,,,,,,,,,,,,,,,,,,,,,,,,,,,,,,,,,,,,,,,,,,,,,,,,,,,,,,,,
,,,,177540,001,2023-11-09_19h41.47.209,fluency,2022.2.4,Win32,60.10337781,,,,,,,,,,,,,,,,,,,,,,,2,2,img/B02_02.jpg,CONTROL,Press K as soon as you see a face, ,KJ,,,,,,,,,,,,,,,,,,,,,,,,,,,,,,,,6,2.2927,,,,,,,,,,,,,,0,63,63,13,1,,,,,,,,,,,,,space,0.6843,,,,,,,,,,,,,,,,,,,,,,,,,,,,,,,,,,,,,,,,,,,,,,,,,,,,,,,,,,,,
,,,,177540,001,2023-11-09_19h41.47.209,fluency,2022.2.4,Win32,60.10337781,,,,,,,,,,,,,,,,,,,,,,,0,2,img/B02_00.jpg,CONTROL,Press K as soon as you see a face, ,KJ,,,,,,,,,,,,,,,,,,,,,,,,,,,,,,,,,,,,,,,,,,,,,,959.463,0,64,64,11,1,109,0,0,0,0,1,98,,,,,,,,,,,,,,,,,,,,,,,,,,,,,,,,,,,,,,,,,,,,,,,,,,,,,,,,,,,,,,,,,,,
,,,,177540,001,2023-11-09_19h41.47.209,fluency,2022.2.4,Win32,60.10337781,,,,,,,,,,,,,,,,,,,,,,,,,,,,,,,,,,,,,,,,,,,,,,,,,,,,,,,,,,,,,,,,,,,,,,,,,,,,,,,,,,0,0,0,0,1,,"[""k""]",[0.4474999999999909],0,"[""k""]",[0.4474999999999909],,,,,,,,,,,,,,,,,,,,,,,,,,,,,,,,,,,,,,,,,,,,,,,,,,,,,,,,,,,,,,
,,,,177540,001,2023-11-09_19h41.47.209,fluency,2022.2.4,Win32,60.10337781,,,,,,,,,,,,,,,,,,,,,,,0,2,img/B02_00.jpg,CONTROL,Press K as soon as you see a face, ,KJ,,,,,,,,,,,,,,,,,,,,,,,,,,,,,,,,5,2.1565,,,,,,,,,,,,,,0,64,64,11,1,,,,,,,,,,,,,space,0.6884,,,,,,,,,,,,,,,,,,,,,,,,,,,,,,,,,,,,,,,,,,,,,,,,,,,,,,,,,,,,
,,,,177540,001,2023-11-09_19h41.47.209,fluency,2022.2.4,Win32,60.10337781,,,,,,,,,,,,,,,,,,,,,,,8,3,img/B03_08.jpg,CONTROL,Press K as soon as you see a face, ,KJ,,,,,,,,,,,,,,,,,,,,,,,,,,,,,,,,,,,,,,,,,,,,,,966.3521,0,65,65,30,1,109,0,0,0,0,1,98,,,,,,,,,,,,,,,,,,,,,,,,,,,,,,,,,,,,,,,,,,,,,,,,,,,,,,,,,,,,,,,,,,,
,,,,177540,001,2023-11-09_19h41.47.209,fluency,2022.2.4,Win32,60.10337781,,,,,,,,,,,,,,,,,,,,,,,,,,,,,,,,,,,,,,,,,,,,,,,,,,,,,,,,,,,,,,,,,,,,,,,,,,,,,,,,,,0,0,0,0,1,,"[""k""]",[0.47929999995233175],0,"[""k""]",[0.4792000000476264],,,,,,,,,,,,,,,,,,,,,,,,,,,,,,,,,,,,,,,,,,,,,,,,,,,,,,,,,,,,,,
,,,,177540,001,2023-11-09_19h41.47.209,fluency,2022.2.4,Win32,60.10337781,,,,,,,,,,,,,,,,,,,,,,,8,3,img/B03_08.jpg,CONTROL,Press K as soon as you see a face, ,KJ,,,,,,,,,,,,,,,,,,,,,,,,,,,,,,,,6,2.136,,,,,,,,,,,,,,0,65,65,30,1,,,,,,,,,,,,,space,0.6882,,,,,,,,,,,,,,,,,,,,,,,,,,,,,,,,,,,,,,,,,,,,,,,,,,,,,,,,,,,,
,,,,177540,001,2023-11-09_19h41.47.209,fluency,2022.2.4,Win32,60.10337781,,,,,,,,,,,,,,,,,,,,,,,1,2,img/B02_01.jpg,CONTROL,Press K as soon as you see a face, ,KJ,,,,,,,,,,,,,,,,,,,,,,,,,,,,,,,,,,,,,,,,,,,,,,973.2249,0,66,66,12,1,109,0,0,0,0,1,98,,,,,,,,,,,,,,,,,,,,,,,,,,,,,,,,,,,,,,,,,,,,,,,,,,,,,,,,,,,,,,,,,,,
,,,,177540,001,2023-11-09_19h41.47.209,fluency,2022.2.4,Win32,60.10337781,,,,,,,,,,,,,,,,,,,,,,,,,,,,,,,,,,,,,,,,,,,,,,,,,,,,,,,,,,,,,,,,,,,,,,,,,,,,,,,,,,0,0,0,0,1,,"[""k""]",[0.5630999999045798],0,"[""k""]",[0.5630999999045798],,,,,,,,,,,,,,,,,,,,,,,,,,,,,,,,,,,,,,,,,,,,,,,,,,,,,,,,,,,,,,
,,,,177540,001,2023-11-09_19h41.47.209,fluency,2022.2.4,Win32,60.10337781,,,,,,,,,,,,,,,,,,,,,,,1,2,img/B02_01.jpg,CONTROL,Press K as soon as you see a face, ,KJ,,,,,,,,,,,,,,,,,,,,,,,,,,,,,,,,6,1.8712,,,,,,,,,,,,,,0,66,66,12,1,,,,,,,,,,,,,space,0.6003,,,,,,,,,,,,,,,,,,,,,,,,,,,,,,,,,,,,,,,,,,,,,,,,,,,,,,,,,,,,
,,,,177540,001,2023-11-09_19h41.47.209,fluency,2022.2.4,Win32,60.10337781,,,,,,,,,,,,,,,,,,,,,,,9,2,img/B02_09.jpg,CONTROL,Press K as soon as you see a face, ,KJ,,,,,,,,,,,,,,,,,,,,,,,,,,,,,,,,,,,,,,,,,,,,,,979.7472,0,67,67,20,1,109,0,0,0,0,1,98,,,,,,,,,,,,,,,,,,,,,,,,,,,,,,,,,,,,,,,,,,,,,,,,,,,,,,,,,,,,,,,,,,,
,,,,177540,001,2023-11-09_19h41.47.209,fluency,2022.2.4,Win32,60.10337781,,,,,,,,,,,,,,,,,,,,,,,,,,,,,,,,,,,,,,,,,,,,,,,,,,,,,,,,,,,,,,,,,,,,,,,,,,,,,,,,,,0,0,0,0,1,,"[""k""]",[0.5292999999522863],0,"[""k""]",[0.5292999999522863],,,,,,,,,,,,,,,,,,,,,,,,,,,,,,,,,,,,,,,,,,,,,,,,,,,,,,,,,,,,,,
,,,,177540,001,2023-11-09_19h41.47.209,fluency,2022.2.4,Win32,60.10337781,,,,,,,,,,,,,,,,,,,,,,,9,2,img/B02_09.jpg,CONTROL,Press K as soon as you see a face, ,KJ,,,,,,,,,,,,,,,,,,,,,,,,,,,,,,,,4,1.5194,,,,,,,,,,,,,,0,67,67,20,1,,,,,,,,,,,,,space,0.7342,,,,,,,,,,,,,,,,,,,,,,,,,,,,,,,,,,,,,,,,,,,,,,,,,,,,,,,,,,,,
,,,,177540,001,2023-11-09_19h41.47.209,fluency,2022.2.4,Win32,60.10337781,,,,,,,,,,,,,,,,,,,,,,,1,1,img/B01_01.jpg,CONTROL,Press K as soon as you see a face, ,KJ,,,,,,,,,,,,,,,,,,,,,,,,,,,,,,,,,,,,,,,,,,,,,,986.0527,0,68,68,1,1,109,0,0,0,0,1,98,,,,,,,,,,,,,,,,,,,,,,,,,,,,,,,,,,,,,,,,,,,,,,,,,,,,,,,,,,,,,,,,,,,
,,,,177540,001,2023-11-09_19h41.47.209,fluency,2022.2.4,Win32,60.10337781,,,,,,,,,,,,,,,,,,,,,,,,,,,,,,,,,,,,,,,,,,,,,,,,,,,,,,,,,,,,,,,,,,,,,,,,,,,,,,,,,,0,0,0,0,1,,"[""k""]",[0.7295999999046217],0,"[""k""]",[0.7295999999046217],,,,,,,,,,,,,,,,,,,,,,,,,,,,,,,,,,,,,,,,,,,,,,,,,,,,,,,,,,,,,,
,,,,177540,001,2023-11-09_19h41.47.209,fluency,2022.2.4,Win32,60.10337781,,,,,,,,,,,,,,,,,,,,,,,1,1,img/B01_01.jpg,CONTROL,Press K as soon as you see a face, ,KJ,,,,,,,,,,,,,,,,,,,,,,,,,,,,,,,,3,1.2035,,,,,,,,,,,,,,0,68,68,1,1,,,,,,,,,,,,,space,1.1348,,,,,,,,,,,,,,,,,,,,,,,,,,,,,,,,,,,,,,,,,,,,,,,,,,,,,,,,,,,,
,,,,177540,001,2023-11-09_19h41.47.209,fluency,2022.2.4,Win32,60.10337781,,,,,,,,,,,,,,,,,,,,,,,5,1,img/B01_05.jpg,CONTROL,Press K as soon as you see a face, ,KJ,,,,,,,,,,,,,,,,,,,,,,,,,,,,,,,,,,,,,,,,,,,,,,992.4416,0,69,69,5,1,109,0,0,0,0,1,98,,,,,,,,,,,,,,,,,,,,,,,,,,,,,,,,,,,,,,,,,,,,,,,,,,,,,,,,,,,,,,,,,,,
,,,,177540,001,2023-11-09_19h41.47.209,fluency,2022.2.4,Win32,60.10337781,,,,,,,,,,,,,,,,,,,,,,,,,,,,,,,,,,,,,,,,,,,,,,,,,,,,,,,,,,,,,,,,,,,,,,,,,,,,,,,,,,0,0,0,0,1,,"[""k""]",[0.4697000000477374],0,"[""k""]",[0.4697000000477374],,,,,,,,,,,,,,,,,,,,,,,,,,,,,,,,,,,,,,,,,,,,,,,,,,,,,,,,,,,,,,
,,,,177540,001,2023-11-09_19h41.47.209,fluency,2022.2.4,Win32,60.10337781,,,,,,,,,,,,,,,,,,,,,,,5,1,img/B01_05.jpg,CONTROL,Press K as soon as you see a face, ,KJ,,,,,,,,,,,,,,,,,,,,,,,,,,,,,,,,3,1.5512,,,,,,,,,,,,,,0,69,69,5,1,,,,,,,,,,,,,space,0.8842,,,,,,,,,,,,,,,,,,,,,,,,,,,,,,,,,,,,,,,,,,,,,,,,,,,,,,,,,,,,
,,,,177540,001,2023-11-09_19h41.47.209,fluency,2022.2.4,Win32,60.10337781,,,,,,,,,,,,,,,,,,,,,,,10,6,img/B06_10.jpg,CONTROL,Press K as soon as you see a face, ,KJ,,,,,,,,,,,,,,,,,,,,,,,,,,,,,,,,,,,,,,,,,,,,,,998.9303,0,70,70,65,1,109,0,0,0,0,1,98,,,,,,,,,,,,,,,,,,,,,,,,,,,,,,,,,,,,,,,,,,,,,,,,,,,,,,,,,,,,,,,,,,,
,,,,177540,001,2023-11-09_19h41.47.209,fluency,2022.2.4,Win32,60.10337781,,,,,,,,,,,,,,,,,,,,,,,,,,,,,,,,,,,,,,,,,,,,,,,,,,,,,,,,,,,,,,,,,,,,,,,,,,,,,,,,,,0,0,0,0,1,,"[""k""]",[0.5125999999046371],0,"[""k""]",[0.5125999999046371],,,,,,,,,,,,,,,,,,,,,,,,,,,,,,,,,,,,,,,,,,,,,,,,,,,,,,,,,,,,,,
,,,,177540,001,2023-11-09_19h41.47.209,fluency,2022.2.4,Win32,60.10337781,,,,,,,,,,,,,,,,,,,,,,,10,6,img/B06_10.jpg,CONTROL,Press K as soon as you see a face, ,KJ,,,,,,,,,,,,,,,,,,,,,,,,,,,,,,,,6,1.4916,,,,,,,,,,,,,,0,70,70,65,1,,,,,,,,,,,,,space,0.8675,,,,,,,,,,,,,,,,,,,,,,,,,,,,,,,,,,,,,,,,,,,,,,,,,,,,,,,,,,,,
,,,,177540,001,2023-11-09_19h41.47.209,fluency,2022.2.4,Win32,60.10337781,,,,,,,,,,,,,,,,,,,,,,,10,3,img/B03_10.jpg,CONTROL,Press K as soon as you see a face, ,KJ,,,,,,,,,,,,,,,,,,,,,,,,,,,,,,,,,,,,,,,,,,,,,,1006.3369,0,71,71,32,1,109,0,0,0,0,1,98,,,,,,,,,,,,,,,,,,,,,,,,,,,,,,,,,,,,,,,,,,,,,,,,,,,,,,,,,,,,,,,,,,,
,,,,177540,001,2023-11-09_19h41.47.209,fluency,2022.2.4,Win32,60.10337781,,,,,,,,,,,,,,,,,,,,,,,,,,,,,,,,,,,,,,,,,,,,,,,,,,,,,,,,,,,,,,,,,,,,,,,,,,,,,,,,,,0,0,0,0,1,,"[""k""]",[0.5009999999999764],0,"[""k""]",[0.5009000000954984],,,,,,,,,,,,,,,,,,,,,,,,,,,,,,,,,,,,,,,,,,,,,,,,,,,,,,,,,,,,,,
,,,,177540,001,2023-11-09_19h41.47.209,fluency,2022.2.4,Win32,60.10337781,,,,,,,,,,,,,,,,,,,,,,,10,3,img/B03_10.jpg,CONTROL,Press K as soon as you see a face, ,KJ,,,,,,,,,,,,,,,,,,,,,,,,,,,,,,,,6,3.8546,,,,,,,,,,,,,,0,71,71,32,1,,,,,,,,,,,,,space,2.6095,,,,,,,,,,,,,,,,,,,,,,,,,,,,,,,,,,,,,,,,,,,,,,,,,,,,,,,,,,,,
,,,,177540,001,2023-11-09_19h41.47.209,fluency,2022.2.4,Win32,60.10337781,,,,,,,,,,,,,,,,,,,,,,,7,2,img/B02_07.jpg,CONTROL,Press K as soon as you see a face, ,KJ,,,,,,,,,,,,,,,,,,,,,,,,,,,,,,,,,,,,,,,,,,,,,,1016.8459,0,72,72,18,1,109,0,0,0,0,1,98,,,,,,,,,,,,,,,,,,,,,,,,,,,,,,,,,,,,,,,,,,,,,,,,,,,,,,,,,,,,,,,,,,,
,,,,177540,001,2023-11-09_19h41.47.209,fluency,2022.2.4,Win32,60.10337781,,,,,,,,,,,,,,,,,,,,,,,,,,,,,,,,,,,,,,,,,,,,,,,,,,,,,,,,,,,,,,,,,,,,,,,,,,,,,,,,,,0,0,0,0,1,,"[""k""]",[0.6160999999044634],0,"[""k""]",[0.6159999999999854],,,,,,,,,,,,,,,,,,,,,,,,,,,,,,,,,,,,,,,,,,,,,,,,,,,,,,,,,,,,,,
,,,,177540,001,2023-11-09_19h41.47.209,fluency,2022.2.4,Win32,60.10337781,,,,,,,,,,,,,,,,,,,,,,,7,2,img/B02_07.jpg,CONTROL,Press K as soon as you see a face, ,KJ,,,,,,,,,,,,,,,,,,,,,,,,,,,,,,,,5,3.9137,,,,,,,,,,,,,,0,72,72,18,1,,,,,,,,,,,,,space,4.0371,,,,,,,,,,,,,,,,,,,,,,,,,,,,,,,,,,,,,,,,,,,,,,,,,,,,,,,,,,,,
,,,,177540,001,2023-11-09_19h41.47.209,fluency,2022.2.4,Win32,60.10337781,,,,,,,,,,,,,,,,,,,,,,,7,4,img/B04_07.jpg,CONTROL,Press K as soon as you see a face, ,KJ,,,,,,,,,,,,,,,,,,,,,,,,,,,,,,,,,,,,,,,,,,,,,,1028.8398,0,73,73,40,1,109,0,0,0,0,1,98,,,,,,,,,,,,,,,,,,,,,,,,,,,,,,,,,,,,,,,,,,,,,,,,,,,,,,,,,,,,,,,,,,,
,,,,177540,001,2023-11-09_19h41.47.209,fluency,2022.2.4,Win32,60.10337781,,,,,,,,,,,,,,,,,,,,,,,,,,,,,,,,,,,,,,,,,,,,,,,,,,,,,,,,,,,,,,,,,,,,,,,,,,,,,,,,,,0,0,0,0,1,,"[""k""]",[0.49479999995241997],0,"[""k""]",[0.4948999998571253],,,,,,,,,,,,,,,,,,,,,,,,,,,,,,,,,,,,,,,,,,,,,,,,,,,,,,,,,,,,,,
,,,,177540,001,2023-11-09_19h41.47.209,fluency,2022.2.4,Win32,60.10337781,,,,,,,,,,,,,,,,,,,,,,,7,4,img/B04_07.jpg,CONTROL,Press K as soon as you see a face, ,KJ,,,,,,,,,,,,,,,,,,,,,,,,,,,,,,,,5,1.6202,,,,,,,,,,,,,,0,73,73,40,1,,,,,,,,,,,,,space,0.9181,,,,,,,,,,,,,,,,,,,,,,,,,,,,,,,,,,,,,,,,,,,,,,,,,,,,,,,,,,,,
,,,,177540,001,2023-11-09_19h41.47.209,fluency,2022.2.4,Win32,60.10337781,,,,,,,,,,,,,,,,,,,,,,,0,1,img/B01_00.jpg,CONTROL,Press K as soon as you see a face, ,KJ,,,,,,,,,,,,,,,,,,,,,,,,,,,,,,,,,,,,,,,,,,,,,,1035.4121,0,74,74,0,1,109,0,0,0,0,1,98,,,,,,,,,,,,,,,,,,,,,,,,,,,,,,,,,,,,,,,,,,,,,,,,,,,,,,,,,,,,,,,,,,,
,,,,177540,001,2023-11-09_19h41.47.209,fluency,2022.2.4,Win32,60.10337781,,,,,,,,,,,,,,,,,,,,,,,,,,,,,,,,,,,,,,,,,,,,,,,,,,,,,,,,,,,,,,,,,,,,,,,,,,,,,,,,,,0,0,0,0,1,,"[""k""]",[0.5790999999046562],0,"[""k""]",[0.5790999999046562],,,,,,,,,,,,,,,,,,,,,,,,,,,,,,,,,,,,,,,,,,,,,,,,,,,,,,,,,,,,,,
,,,,177540,001,2023-11-09_19h41.47.209,fluency,2022.2.4,Win32,60.10337781,,,,,,,,,,,,,,,,,,,,,,,0,1,img/B01_00.jpg,CONTROL,Press K as soon as you see a face, ,KJ,,,,,,,,,,,,,,,,,,,,,,,,,,,,,,,,3,1.5819,,,,,,,,,,,,,,0,74,74,0,1,,,,,,,,,,,,,space,1.2345,,,,,,,,,,,,,,,,,,,,,,,,,,,,,,,,,,,,,,,,,,,,,,,,,,,,,,,,,,,,
,,,,177540,001,2023-11-09_19h41.47.209,fluency,2022.2.4,Win32,60.10337781,,,,,,,,,,,,,,,,,,,,,,,7,9,img/B09_07.jpg,CONTROL,Press K as soon as you see a face, ,KJ,,,,,,,,,,,,,,,,,,,,,,,,,,,,,,,,,,,,,,,,,,,,,,1043.2689,0,75,75,95,1,109,0,0,0,0,1,98,,,,,,,,,,,,,,,,,,,,,,,,,,,,,,,,,,,,,,,,,,,,,,,,,,,,,,,,,,,,,,,,,,,
,,,,177540,001,2023-11-09_19h41.47.209,fluency,2022.2.4,Win32,60.10337781,,,,,,,,,,,,,,,,,,,,,,,,,,,,,,,,,,,,,,,,,,,,,,,,,,,,,,,,,,,,,,,,,,,,,,,,,,,,,,,,,,0,0,0,0,1,,"[""k""]",[0.3450000000000273],0,"[""k""]",[0.34490000009532196],,,,,,,,,,,,,,,,,,,,,,,,,,,,,,,,,,,,,,,,,,,,,,,,,,,,,,,,,,,,,,
,,,,177540,001,2023-11-09_19h41.47.209,fluency,2022.2.4,Win32,60.10337781,,,,,,,,,,,,,,,,,,,,,,,7,9,img/B09_07.jpg,CONTROL,Press K as soon as you see a face, ,KJ,,,,,,,,,,,,,,,,,,,,,,,,,,,,,,,,6,1.5974,,,,,,,,,,,,,,0,75,75,95,1,,,,,,,,,,,,,space,0.9178,,,,,,,,,,,,,,,,,,,,,,,,,,,,,,,,,,,,,,,,,,,,,,,,,,,,,,,,,,,,
,,,,177540,001,2023-11-09_19h41.47.209,fluency,2022.2.4,Win32,60.10337781,,,,,,,,,,,,,,,,,,,,,,,4,1,img/B01_04.jpg,CONTROL,Press K as soon as you see a face, ,KJ,,,,,,,,,,,,,,,,,,,,,,,,,,,,,,,,,,,,,,,,,,,,,,1049.8245,0,76,76,4,1,109,0,0,0,0,1,98,,,,,,,,,,,,,,,,,,,,,,,,,,,,,,,,,,,,,,,,,,,,,,,,,,,,,,,,,,,,,,,,,,,
,,,,177540,001,2023-11-09_19h41.47.209,fluency,2022.2.4,Win32,60.10337781,,,,,,,,,,,,,,,,,,,,,,,,,,,,,,,,,,,,,,,,,,,,,,,,,,,,,,,,,,,,,,,,,,,,,,,,,,,,,,,,,,0,0,0,0,1,,"[""k""]",[0.9339000000952637],0,"[""k""]",[0.9339000000952637],,,,,,,,,,,,,,,,,,,,,,,,,,,,,,,,,,,,,,,,,,,,,,,,,,,,,,,,,,,,,,
,,,,177540,001,2023-11-09_19h41.47.209,fluency,2022.2.4,Win32,60.10337781,,,,,,,,,,,,,,,,,,,,,,,4,1,img/B01_04.jpg,CONTROL,Press K as soon as you see a face, ,KJ,,,,,,,,,,,,,,,,,,,,,,,,,,,,,,,,3,0.6859,,,,,,,,,,,,,,0,76,76,4,1,,,,,,,,,,,,,space,0.9845,,,,,,,,,,,,,,,,,,,,,,,,,,,,,,,,,,,,,,,,,,,,,,,,,,,,,,,,,,,,
,,,,177540,001,2023-11-09_19h41.47.209,fluency,2022.2.4,Win32,60.10337781,,,,,,,,,,,,,,,,,,,,,,,7,7,img/B07_07.jpg,CONTROL,Press K as soon as you see a face, ,KJ,,,,,,,,,,,,,,,,,,,,,,,,,,,,,,,,,,,,,,,,,,,,,,1056.5471,0,77,77,73,1,109,0,0,0,0,1,98,,,,,,,,,,,,,,,,,,,,,,,,,,,,,,,,,,,,,,,,,,,,,,,,,,,,,,,,,,,,,,,,,,,
,,,,177540,001,2023-11-09_19h41.47.209,fluency,2022.2.4,Win32,60.10337781,,,,,,,,,,,,,,,,,,,,,,,,,,,,,,,,,,,,,,,,,,,,,,,,,,,,,,,,,,,,,,,,,,,,,,,,,,,,,,,,,,0,0,0,0,1,,"[""k""]",[0.49699999999984357],0,"[""k""]",[0.49699999999984357],,,,,,,,,,,,,,,,,,,,,,,,,,,,,,,,,,,,,,,,,,,,,,,,,,,,,,,,,,,,,,
,,,,177540,001,2023-11-09_19h41.47.209,fluency,2022.2.4,Win32,60.10337781,,,,,,,,,,,,,,,,,,,,,,,7,7,img/B07_07.jpg,CONTROL,Press K as soon as you see a face, ,KJ,,,,,,,,,,,,,,,,,,,,,,,,,,,,,,,,4,4.1042,,,,,,,,,,,,,,0,77,77,73,1,,,,,,,,,,,,,space,0.8845,,,,,,,,,,,,,,,,,,,,,,,,,,,,,,,,,,,,,,,,,,,,,,,,,,,,,,,,,,,,
,,,,177540,001,2023-11-09_19h41.47.209,fluency,2022.2.4,Win32,60.10337781,,,,,,,,,,,,,,,,,,,,,,,8,6,img/B06_08.jpg,CONTROL,Press K as soon as you see a face, ,KJ,,,,,,,,,,,,,,,,,,,,,,,,,,,,,,,,,,,,,,,,,,,,,,1065.5882,0,78,78,63,1,109,0,0,0,0,1,98,,,,,,,,,,,,,,,,,,,,,,,,,,,,,,,,,,,,,,,,,,,,,,,,,,,,,,,,,,,,,,,,,,,
,,,,177540,001,2023-11-09_19h41.47.209,fluency,2022.2.4,Win32,60.10337781,,,,,,,,,,,,,,,,,,,,,,,,,,,,,,,,,,,,,,,,,,,,,,,,,,,,,,,,,,,,,,,,,,,,,,,,,,,,,,,,,,0,0,0,0,1,,"[""k""]",[0.37959999990448523],0,"[""k""]",[0.3795999999047126],,,,,,,,,,,,,,,,,,,,,,,,,,,,,,,,,,,,,,,,,,,,,,,,,,,,,,,,,,,,,,
,,,,177540,001,2023-11-09_19h41.47.209,fluency,2022.2.4,Win32,60.10337781,,,,,,,,,,,,,,,,,,,,,,,8,6,img/B06_08.jpg,CONTROL,Press K as soon as you see a face, ,KJ,,,,,,,,,,,,,,,,,,,,,,,,,,,,,,,,6,3.9929,,,,,,,,,,,,,,0,78,78,63,1,,,,,,,,,,,,,space,0.8724,,,,,,,,,,,,,,,,,,,,,,,,,,,,,,,,,,,,,,,,,,,,,,,,,,,,,,,,,,,,
,,,,177540,001,2023-11-09_19h41.47.209,fluency,2022.2.4,Win32,60.10337781,,,,,,,,,,,,,,,,,,,,,,,2,3,img/B03_02.jpg,CONTROL,Press K as soon as you see a face, ,KJ,,,,,,,,,,,,,,,,,,,,,,,,,,,,,,,,,,,,,,,,,,,,,,1075.497,0,79,79,24,1,109,0,0,0,0,1,98,,,,,,,,,,,,,,,,,,,,,,,,,,,,,,,,,,,,,,,,,,,,,,,,,,,,,,,,,,,,,,,,,,,
,,,,177540,001,2023-11-09_19h41.47.209,fluency,2022.2.4,Win32,60.10337781,,,,,,,,,,,,,,,,,,,,,,,,,,,,,,,,,,,,,,,,,,,,,,,,,,,,,,,,,,,,,,,,,,,,,,,,,,,,,,,,,,0,0,0,0,1,,"[""k""]",[0.428899999856867],0,"[""k""]",[0.428899999856867],,,,,,,,,,,,,,,,,,,,,,,,,,,,,,,,,,,,,,,,,,,,,,,,,,,,,,,,,,,,,,
,,,,177540,001,2023-11-09_19h41.47.209,fluency,2022.2.4,Win32,60.10337781,,,,,,,,,,,,,,,,,,,,,,,2,3,img/B03_02.jpg,CONTROL,Press K as soon as you see a face, ,KJ,,,,,,,,,,,,,,,,,,,,,,,,,,,,,,,,5,6.1329,,,,,,,,,,,,,,0,79,79,24,1,,,,,,,,,,,,,space,0.7183,,,,,,,,,,,,,,,,,,,,,,,,,,,,,,,,,,,,,,,,,,,,,,,,,,,,,,,,,,,,
,,,,177540,001,2023-11-09_19h41.47.209,fluency,2022.2.4,Win32,60.10337781,,,,,,,,,,,,,,,,,,,,,,,5,2,img/B02_05.jpg,CONTROL,Press K as soon as you see a face, ,KJ,,,,,,,,,,,,,,,,,,,,,,,,,,,,,,,,,,,,,,,,,,,,,,1086.3895,0,80,80,16,1,109,0,0,0,0,1,98,,,,,,,,,,,,,,,,,,,,,,,,,,,,,,,,,,,,,,,,,,,,,,,,,,,,,,,,,,,,,,,,,,,
,,,,177540,001,2023-11-09_19h41.47.209,fluency,2022.2.4,Win32,60.10337781,,,,,,,,,,,,,,,,,,,,,,,,,,,,,,,,,,,,,,,,,,,,,,,,,,,,,,,,,,,,,,,,,,,,,,,,,,,,,,,,,,0,0,0,0,1,,"[""k""]",[0.49590000009538926],0,"[""k""]",[0.49580000019068393],,,,,,,,,,,,,,,,,,,,,,,,,,,,,,,,,,,,,,,,,,,,,,,,,,,,,,,,,,,,,,
,,,,177540,001,2023-11-09_19h41.47.209,fluency,2022.2.4,Win32,60.10337781,,,,,,,,,,,,,,,,,,,,,,,5,2,img/B02_05.jpg,CONTROL,Press K as soon as you see a face, ,KJ,,,,,,,,,,,,,,,,,,,,,,,,,,,,,,,,5,1.6597,,,,,,,,,,,,,,0,80,80,16,1,,,,,,,,,,,,,space,0.9173,,,,,,,,,,,,,,,,,,,,,,,,,,,,,,,,,,,,,,,,,,,,,,,,,,,,,,,,,,,,
,,,,177540,001,2023-11-09_19h41.47.209,fluency,2022.2.4,Win32,60.10337781,,,,,,,,,,,,,,,,,,,,,,,4,9,img/B09_04.jpg,CONTROL,Press K as soon as you see a face, ,KJ,,,,,,,,,,,,,,,,,,,,,,,,,,,,,,,,,,,,,,,,,,,,,,1093.012,0,81,81,92,1,109,0,0,0,0,1,98,,,,,,,,,,,,,,,,,,,,,,,,,,,,,,,,,,,,,,,,,,,,,,,,,,,,,,,,,,,,,,,,,,,
,,,,177540,001,2023-11-09_19h41.47.209,fluency,2022.2.4,Win32,60.10337781,,,,,,,,,,,,,,,,,,,,,,,,,,,,,,,,,,,,,,,,,,,,,,,,,,,,,,,,,,,,,,,,,,,,,,,,,,,,,,,,,,0,0,0,0,1,,"[""k""]",[0.4802999999521944],0,"[""k""]",[0.4800999999047235],,,,,,,,,,,,,,,,,,,,,,,,,,,,,,,,,,,,,,,,,,,,,,,,,,,,,,,,,,,,,,
,,,,177540,001,2023-11-09_19h41.47.209,fluency,2022.2.4,Win32,60.10337781,,,,,,,,,,,,,,,,,,,,,,,4,9,img/B09_04.jpg,CONTROL,Press K as soon as you see a face, ,KJ,,,,,,,,,,,,,,,,,,,,,,,,,,,,,,,,6,1.4078,,,,,,,,,,,,,,0,81,81,92,1,,,,,,,,,,,,,space,0.7678,,,,,,,,,,,,,,,,,,,,,,,,,,,,,,,,,,,,,,,,,,,,,,,,,,,,,,,,,,,,
,,,,177540,001,2023-11-09_19h41.47.209,fluency,2022.2.4,Win32,60.10337781,,,,,,,,,,,,,,,,,,,,,,,3,4,img/B04_03.jpg,CONTROL,Press K as soon as you see a face, ,KJ,,,,,,,,,,,,,,,,,,,,,,,,,,,,,,,,,,,,,,,,,,,,,,1099.234,0,82,82,36,1,109,0,0,0,0,1,98,,,,,,,,,,,,,,,,,,,,,,,,,,,,,,,,,,,,,,,,,,,,,,,,,,,,,,,,,,,,,,,,,,,
,,,,177540,001,2023-11-09_19h41.47.209,fluency,2022.2.4,Win32,60.10337781,,,,,,,,,,,,,,,,,,,,,,,,,,,,,,,,,,,,,,,,,,,,,,,,,,,,,,,,,,,,,,,,,,,,,,,,,,,,,,,,,,0,0,0,0,1,,"[""k""]",[0.49929999995219987],0,"[""k""]",[0.49920000004749454],,,,,,,,,,,,,,,,,,,,,,,,,,,,,,,,,,,,,,,,,,,,,,,,,,,,,,,,,,,,,,
,,,,177540,001,2023-11-09_19h41.47.209,fluency,2022.2.4,Win32,60.10337781,,,,,,,,,,,,,,,,,,,,,,,3,4,img/B04_03.jpg,CONTROL,Press K as soon as you see a face, ,KJ,,,,,,,,,,,,,,,,,,,,,,,,,,,,,,,,7,1.5574,,,,,,,,,,,,,,0,82,82,36,1,,,,,,,,,,,,,space,1.3188,,,,,,,,,,,,,,,,,,,,,,,,,,,,,,,,,,,,,,,,,,,,,,,,,,,,,,,,,,,,
,,,,177540,001,2023-11-09_19h41.47.209,fluency,2022.2.4,Win32,60.10337781,,,,,,,,,,,,,,,,,,,,,,,5,4,img/B04_05.jpg,CONTROL,Press K as soon as you see a face, ,KJ,,,,,,,,,,,,,,,,,,,,,,,,,,,,,,,,,,,,,,,,,,,,,,1106.1566,0,83,83,38,1,109,0,0,0,0,1,98,,,,,,,,,,,,,,,,,,,,,,,,,,,,,,,,,,,,,,,,,,,,,,,,,,,,,,,,,,,,,,,,,,,
,,,,177540,001,2023-11-09_19h41.47.209,fluency,2022.2.4,Win32,60.10337781,,,,,,,,,,,,,,,,,,,,,,,,,,,,,,,,,,,,,,,,,,,,,,,,,,,,,,,,,,,,,,,,,,,,,,,,,,,,,,,,,,0,0,0,0,1,,"[""k""]",[0.5122999999523472],0,"[""k""]",[0.5122999999523472],,,,,,,,,,,,,,,,,,,,,,,,,,,,,,,,,,,,,,,,,,,,,,,,,,,,,,,,,,,,,,
,,,,177540,001,2023-11-09_19h41.47.209,fluency,2022.2.4,Win32,60.10337781,,,,,,,,,,,,,,,,,,,,,,,5,4,img/B04_05.jpg,CONTROL,Press K as soon as you see a face, ,KJ,,,,,,,,,,,,,,,,,,,,,,,,,,,,,,,,6,1.5028,,,,,,,,,,,,,,0,83,83,38,1,,,,,,,,,,,,,space,0.7677,,,,,,,,,,,,,,,,,,,,,,,,,,,,,,,,,,,,,,,,,,,,,,,,,,,,,,,,,,,,
,,,,177540,001,2023-11-09_19h41.47.209,fluency,2022.2.4,Win32,60.10337781,,,,,,,,,,,,,,,,,,,,,,,3,3,img/B03_03.jpg,CONTROL,Press K as soon as you see a face, ,KJ,,,,,,,,,,,,,,,,,,,,,,,,,,,,,,,,,,,,,,,,,,,,,,1113.4797,0,84,84,25,1,109,0,0,0,0,1,98,,,,,,,,,,,,,,,,,,,,,,,,,,,,,,,,,,,,,,,,,,,,,,,,,,,,,,,,,,,,,,,,,,,
,,,,177540,001,2023-11-09_19h41.47.209,fluency,2022.2.4,Win32,60.10337781,,,,,,,,,,,,,,,,,,,,,,,,,,,,,,,,,,,,,,,,,,,,,,,,,,,,,,,,,,,,,,,,,,,,,,,,,,,,,,,,,,0,0,0,0,1,,"[""k""]",[0.6128000001908731],0,"[""k""]",[0.6128000001908731],,,,,,,,,,,,,,,,,,,,,,,,,,,,,,,,,,,,,,,,,,,,,,,,,,,,,,,,,,,,,,
,,,,177540,001,2023-11-09_19h41.47.209,fluency,2022.2.4,Win32,60.10337781,,,,,,,,,,,,,,,,,,,,,,,3,3,img/B03_03.jpg,CONTROL,Press K as soon as you see a face, ,KJ,,,,,,,,,,,,,,,,,,,,,,,,,,,,,,,,5,2.2804,,,,,,,,,,,,,,0,84,84,25,1,,,,,,,,,,,,,space,0.8679,,,,,,,,,,,,,,,,,,,,,,,,,,,,,,,,,,,,,,,,,,,,,,,,,,,,,,,,,,,,
,,,,177540,001,2023-11-09_19h41.47.209,fluency,2022.2.4,Win32,60.10337781,,,,,,,,,,,,,,,,,,,,,,,5,9,img/B09_05.jpg,CONTROL,Press K as soon as you see a face, ,KJ,,,,,,,,,,,,,,,,,,,,,,,,,,,,,,,,,,,,,,,,,,,,,,1120.6691,0,85,85,93,1,109,0,0,0,0,1,98,,,,,,,,,,,,,,,,,,,,,,,,,,,,,,,,,,,,,,,,,,,,,,,,,,,,,,,,,,,,,,,,,,,
,,,,177540,001,2023-11-09_19h41.47.209,fluency,2022.2.4,Win32,60.10337781,,,,,,,,,,,,,,,,,,,,,,,,,,,,,,,,,,,,,,,,,,,,,,,,,,,,,,,,,,,,,,,,,,,,,,,,,,,,,,,,,,0,0,0,0,1,,"[""k""]",[0.5795999999047581],0,"[""k""]",[0.5795999999047581],,,,,,,,,,,,,,,,,,,,,,,,,,,,,,,,,,,,,,,,,,,,,,,,,,,,,,,,,,,,,,
,,,,177540,001,2023-11-09_19h41.47.209,fluency,2022.2.4,Win32,60.10337781,,,,,,,,,,,,,,,,,,,,,,,5,9,img/B09_05.jpg,CONTROL,Press K as soon as you see a face, ,KJ,,,,,,,,,,,,,,,,,,,,,,,,,,,,,,,,6,3.5891,,,,,,,,,,,,,,0,85,85,93,1,,,,,,,,,,,,,space,0.6344,,,,,,,,,,,,,,,,,,,,,,,,,,,,,,,,,,,,,,,,,,,,,,,,,,,,,,,,,,,,
,,,,177540,001,2023-11-09_19h41.47.209,fluency,2022.2.4,Win32,60.10337781,,,,,,,,,,,,,,,,,,,,,,,3,10,img/B10_03.jpg,CONTROL,Press K as soon as you see a face, ,KJ,,,,,,,,,,,,,,,,,,,,,,,,,,,,,,,,,,,,,,,,,,,,,,1128.943,0,86,86,102,1,109,0,0,0,0,1,98,,,,,,,,,,,,,,,,,,,,,,,,,,,,,,,,,,,,,,,,,,,,,,,,,,,,,,,,,,,,,,,,,,,
,,,,177540,001,2023-11-09_19h41.47.209,fluency,2022.2.4,Win32,60.10337781,,,,,,,,,,,,,,,,,,,,,,,,,,,,,,,,,,,,,,,,,,,,,,,,,,,,,,,,,,,,,,,,,,,,,,,,,,,,,,,,,,0,0,0,0,1,,"[""k""]",[0.5632999999522781],0,"[""k""]",[0.5632999999522781],,,,,,,,,,,,,,,,,,,,,,,,,,,,,,,,,,,,,,,,,,,,,,,,,,,,,,,,,,,,,,
,,,,177540,001,2023-11-09_19h41.47.209,fluency,2022.2.4,Win32,60.10337781,,,,,,,,,,,,,,,,,,,,,,,3,10,img/B10_03.jpg,CONTROL,Press K as soon as you see a face, ,KJ,,,,,,,,,,,,,,,,,,,,,,,,,,,,,,,,5,2.2237,,,,,,,,,,,,,,0,86,86,102,1,,,,,,,,,,,,,space,0.9518,,,,,,,,,,,,,,,,,,,,,,,,,,,,,,,,,,,,,,,,,,,,,,,,,,,,,,,,,,,,
,,,,177540,001,2023-11-09_19h41.47.209,fluency,2022.2.4,Win32,60.10337781,,,,,,,,,,,,,,,,,,,,,,,2,8,img/B08_02.jpg,CONTROL,Press K as soon as you see a face, ,KJ,,,,,,,,,,,,,,,,,,,,,,,,,,,,,,,,,,,,,,,,,,,,,,1137.1668,0,87,87,79,1,109,0,0,0,0,1,98,,,,,,,,,,,,,,,,,,,,,,,,,,,,,,,,,,,,,,,,,,,,,,,,,,,,,,,,,,,,,,,,,,,
,,,,177540,001,2023-11-09_19h41.47.209,fluency,2022.2.4,Win32,60.10337781,,,,,,,,,,,,,,,,,,,,,,,,,,,,,,,,,,,,,,,,,,,,,,,,,,,,,,,,,,,,,,,,,,,,,,,,,,,,,,,,,,0,0,0,0,1,,"[""k""]",[0.5022999999523563],0,"[""k""]",[0.5022999999521289],,,,,,,,,,,,,,,,,,,,,,,,,,,,,,,,,,,,,,,,,,,,,,,,,,,,,,,,,,,,,,
,,,,177540,001,2023-11-09_19h41.47.209,fluency,2022.2.4,Win32,60.10337781,,,,,,,,,,,,,,,,,,,,,,,2,8,img/B08_02.jpg,CONTROL,Press K as soon as you see a face, ,KJ,,,,,,,,,,,,,,,,,,,,,,,,,,,,,,,,4,1.6291,,,,,,,,,,,,,,0,87,87,79,1,,,,,,,,,,,,,space,1.39,,,,,,,,,,,,,,,,,,,,,,,,,,,,,,,,,,,,,,,,,,,,,,,,,,,,,,,,,,,,
,,,,177540,001,2023-11-09_19h41.47.209,fluency,2022.2.4,Win32,60.10337781,,,,,,,,,,,,,,,,,,,,,,,3,5,img/B05_03.jpg,CONTROL,Press K as soon as you see a face, ,KJ,,,,,,,,,,,,,,,,,,,,,,,,,,,,,,,,,,,,,,,,,,,,,,1144.223,0,88,88,47,1,109,0,0,0,0,1,98,,,,,,,,,,,,,,,,,,,,,,,,,,,,,,,,,,,,,,,,,,,,,,,,,,,,,,,,,,,,,,,,,,,
,,,,177540,001,2023-11-09_19h41.47.209,fluency,2022.2.4,Win32,60.10337781,,,,,,,,,,,,,,,,,,,,,,,,,,,,,,,,,,,,,,,,,,,,,,,,,,,,,,,,,,,,,,,,,,,,,,,,,,,,,,,,,,0,0,0,0,1,,"[""k""]",[0.4959999999998672],0,"[""k""]",[0.4959999999998672],,,,,,,,,,,,,,,,,,,,,,,,,,,,,,,,,,,,,,,,,,,,,,,,,,,,,,,,,,,,,,
,,,,177540,001,2023-11-09_19h41.47.209,fluency,2022.2.4,Win32,60.10337781,,,,,,,,,,,,,,,,,,,,,,,3,5,img/B05_03.jpg,CONTROL,Press K as soon as you see a face, ,KJ,,,,,,,,,,,,,,,,,,,,,,,,,,,,,,,,4,2.3698,,,,,,,,,,,,,,0,88,88,47,1,,,,,,,,,,,,,space,0.8511,,,,,,,,,,,,,,,,,,,,,,,,,,,,,,,,,,,,,,,,,,,,,,,,,,,,,,,,,,,,
,,,,177540,001,2023-11-09_19h41.47.209,fluency,2022.2.4,Win32,60.10337781,,,,,,,,,,,,,,,,,,,,,,,8,2,img/B02_08.jpg,CONTROL,Press K as soon as you see a face, ,KJ,,,,,,,,,,,,,,,,,,,,,,,,,,,,,,,,,,,,,,,,,,,,,,1151.4959,0,89,89,19,1,109,0,0,0,0,1,98,,,,,,,,,,,,,,,,,,,,,,,,,,,,,,,,,,,,,,,,,,,,,,,,,,,,,,,,,,,,,,,,,,,
,,,,177540,001,2023-11-09_19h41.47.209,fluency,2022.2.4,Win32,60.10337781,,,,,,,,,,,,,,,,,,,,,,,,,,,,,,,,,,,,,,,,,,,,,,,,,,,,,,,,,,,,,,,,,,,,,,,,,,,,,,,,,,0,0,0,0,1,,"[""k""]",[0.46209999990446704],0,"[""k""]",[0.46219999980917237],,,,,,,,,,,,,,,,,,,,,,,,,,,,,,,,,,,,,,,,,,,,,,,,,,,,,,,,,,,,,,
,,,,177540,001,2023-11-09_19h41.47.209,fluency,2022.2.4,Win32,60.10337781,,,,,,,,,,,,,,,,,,,,,,,8,2,img/B02_08.jpg,CONTROL,Press K as soon as you see a face, ,KJ,,,,,,,,,,,,,,,,,,,,,,,,,,,,,,,,5,1.6606,,,,,,,,,,,,,,0,89,89,19,1,,,,,,,,,,,,,space,0.9853,,,,,,,,,,,,,,,,,,,,,,,,,,,,,,,,,,,,,,,,,,,,,,,,,,,,,,,,,,,,
,,,,177540,001,2023-11-09_19h41.47.209,fluency,2022.2.4,Win32,60.10337781,,,,,,,,,,,,,,,,,,,,,,,4,6,img/B06_04.jpg,CONTROL,Press K as soon as you see a face, ,KJ,,,,,,,,,,,,,,,,,,,,,,,,,,,,,,,,,,,,,,,,,,,,,,1159.1859,0,90,90,59,1,109,0,0,0,0,1,98,,,,,,,,,,,,,,,,,,,,,,,,,,,,,,,,,,,,,,,,,,,,,,,,,,,,,,,,,,,,,,,,,,,
,,,,177540,001,2023-11-09_19h41.47.209,fluency,2022.2.4,Win32,60.10337781,,,,,,,,,,,,,,,,,,,,,,,,,,,,,,,,,,,,,,,,,,,,,,,,,,,,,,,,,,,,,,,,,,,,,,,,,,,,,,,,,,0,0,0,0,1,,"[""k""]",[0.46729999995227445],0,"[""k""]",[0.46729999995227445],,,,,,,,,,,,,,,,,,,,,,,,,,,,,,,,,,,,,,,,,,,,,,,,,,,,,,,,,,,,,,
,,,,177540,001,2023-11-09_19h41.47.209,fluency,2022.2.4,Win32,60.10337781,,,,,,,,,,,,,,,,,,,,,,,4,6,img/B06_04.jpg,CONTROL,Press K as soon as you see a face, ,KJ,,,,,,,,,,,,,,,,,,,,,,,,,,,,,,,,3,2.2127,,,,,,,,,,,,,,0,90,90,59,1,,,,,,,,,,,,,space,0.784,,,,,,,,,,,,,,,,,,,,,,,,,,,,,,,,,,,,,,,,,,,,,,,,,,,,,,,,,,,,
,,,,177540,001,2023-11-09_19h41.47.209,fluency,2022.2.4,Win32,60.10337781,,,,,,,,,,,,,,,,,,,,,,,5,6,img/B06_05.jpg,CONTROL,Press K as soon as you see a face, ,KJ,,,,,,,,,,,,,,,,,,,,,,,,,,,,,,,,,,,,,,,,,,,,,,1167.2262,0,91,91,60,1,109,0,0,0,0,1,98,,,,,,,,,,,,,,,,,,,,,,,,,,,,,,,,,,,,,,,,,,,,,,,,,,,,,,,,,,,,,,,,,,,
,,,,177540,001,2023-11-09_19h41.47.209,fluency,2022.2.4,Win32,60.10337781,,,,,,,,,,,,,,,,,,,,,,,,,,,,,,,,,,,,,,,,,,,,,,,,,,,,,,,,,,,,,,,,,,,,,,,,,,,,,,,,,,0,0,0,0,1,,"[""k""]",[0.3314999999997781],0,"[""k""]",[0.33140000009530013],,,,,,,,,,,,,,,,,,,,,,,,,,,,,,,,,,,,,,,,,,,,,,,,,,,,,,,,,,,,,,
,,,,177540,001,2023-11-09_19h41.47.209,fluency,2022.2.4,Win32,60.10337781,,,,,,,,,,,,,,,,,,,,,,,5,6,img/B06_05.jpg,CONTROL,Press K as soon as you see a face, ,KJ,,,,,,,,,,,,,,,,,,,,,,,,,,,,,,,,3,1.1395,,,,,,,,,,,,,,0,91,91,60,1,,,,,,,,,,,,,space,0.9352,,,,,,,,,,,,,,,,,,,,,,,,,,,,,,,,,,,,,,,,,,,,,,,,,,,,,,,,,,,,
,,,,177540,001,2023-11-09_19h41.47.209,fluency,2022.2.4,Win32,60.10337781,,,,,,,,,,,,,,,,,,,,,,,1,4,img/B04_01.jpg,CONTROL,Press K as soon as you see a face, ,KJ,,,,,,,,,,,,,,,,,,,,,,,,,,,,,,,,,,,,,,,,,,,,,,1173.3481,0,92,92,34,1,109,0,0,0,0,1,98,,,,,,,,,,,,,,,,,,,,,,,,,,,,,,,,,,,,,,,,,,,,,,,,,,,,,,,,,,,,,,,,,,,
,,,,177540,001,2023-11-09_19h41.47.209,fluency,2022.2.4,Win32,60.10337781,,,,,,,,,,,,,,,,,,,,,,,,,,,,,,,,,,,,,,,,,,,,,,,,,,,,,,,,,,,,,,,,,,,,,,,,,,,,,,,,,,0,0,0,0,1,,"[""k""]",[0.6295999999044852],0,"[""k""]",[0.6295999999044852],,,,,,,,,,,,,,,,,,,,,,,,,,,,,,,,,,,,,,,,,,,,,,,,,,,,,,,,,,,,,,
,,,,177540,001,2023-11-09_19h41.47.209,fluency,2022.2.4,Win32,60.10337781,,,,,,,,,,,,,,,,,,,,,,,1,4,img/B04_01.jpg,CONTROL,Press K as soon as you see a face, ,KJ,,,,,,,,,,,,,,,,,,,,,,,,,,,,,,,,7,6.495,,,,,,,,,,,,,,0,92,92,34,1,,,,,,,,,,,,,space,0.7344,,,,,,,,,,,,,,,,,,,,,,,,,,,,,,,,,,,,,,,,,,,,,,,,,,,,,,,,,,,,
,,,,177540,001,2023-11-09_19h41.47.209,fluency,2022.2.4,Win32,60.10337781,,,,,,,,,,,,,,,,,,,,,,,3,8,img/B08_03.jpg,CONTROL,Press K as soon as you see a face, ,KJ,,,,,,,,,,,,,,,,,,,,,,,,,,,,,,,,,,,,,,,,,,,,,,1184.6244,0,93,93,80,1,109,0,0,0,0,1,98,,,,,,,,,,,,,,,,,,,,,,,,,,,,,,,,,,,,,,,,,,,,,,,,,,,,,,,,,,,,,,,,,,,
,,,,177540,001,2023-11-09_19h41.47.209,fluency,2022.2.4,Win32,60.10337781,,,,,,,,,,,,,,,,,,,,,,,,,,,,,,,,,,,,,,,,,,,,,,,,,,,,,,,,,,,,,,,,,,,,,,,,,,,,,,,,,,0,0,0,0,1,,"[""k""]",[0.4953999998567724],0,"[""k""]",[0.4953999998567724],,,,,,,,,,,,,,,,,,,,,,,,,,,,,,,,,,,,,,,,,,,,,,,,,,,,,,,,,,,,,,
,,,,177540,001,2023-11-09_19h41.47.209,fluency,2022.2.4,Win32,60.10337781,,,,,,,,,,,,,,,,,,,,,,,3,8,img/B08_03.jpg,CONTROL,Press K as soon as you see a face, ,KJ,,,,,,,,,,,,,,,,,,,,,,,,,,,,,,,,4,1.7357,,,,,,,,,,,,,,0,93,93,80,1,,,,,,,,,,,,,space,1.0865,,,,,,,,,,,,,,,,,,,,,,,,,,,,,,,,,,,,,,,,,,,,,,,,,,,,,,,,,,,,
,,,,177540,001,2023-11-09_19h41.47.209,fluency,2022.2.4,Win32,60.10337781,,,,,,,,,,,,,,,,,,,,,,,2,5,img/B05_02.jpg,CONTROL,Press K as soon as you see a face, ,KJ,,,,,,,,,,,,,,,,,,,,,,,,,,,,,,,,,,,,,,,,,,,,,,1192.4981,0,94,94,46,1,109,0,0,0,0,1,98,,,,,,,,,,,,,,,,,,,,,,,,,,,,,,,,,,,,,,,,,,,,,,,,,,,,,,,,,,,,,,,,,,,
,,,,177540,001,2023-11-09_19h41.47.209,fluency,2022.2.4,Win32,60.10337781,,,,,,,,,,,,,,,,,,,,,,,,,,,,,,,,,,,,,,,,,,,,,,,,,,,,,,,,,,,,,,,,,,,,,,,,,,,,,,,,,,0,0,0,0,1,,"[""k""]",[0.5105000000000928],0,"[""k""]",[0.5104000000953874],,,,,,,,,,,,,,,,,,,,,,,,,,,,,,,,,,,,,,,,,,,,,,,,,,,,,,,,,,,,,,
,,,,177540,001,2023-11-09_19h41.47.209,fluency,2022.2.4,Win32,60.10337781,,,,,,,,,,,,,,,,,,,,,,,2,5,img/B05_02.jpg,CONTROL,Press K as soon as you see a face, ,KJ,,,,,,,,,,,,,,,,,,,,,,,,,,,,,,,,4,2.7261,,,,,,,,,,,,,,0,94,94,46,1,,,,,,,,,,,,,space,1.0019,,,,,,,,,,,,,,,,,,,,,,,,,,,,,,,,,,,,,,,,,,,,,,,,,,,,,,,,,,,,
,,,,177540,001,2023-11-09_19h41.47.209,fluency,2022.2.4,Win32,60.10337781,,,,,,,,,,,,,,,,,,,,,,,8,4,img/B04_08.jpg,CONTROL,Press K as soon as you see a face, ,KJ,,,,,,,,,,,,,,,,,,,,,,,,,,,,,,,,,,,,,,,,,,,,,,1200.2715,0,95,95,41,1,109,0,0,0,0,1,98,,,,,,,,,,,,,,,,,,,,,,,,,,,,,,,,,,,,,,,,,,,,,,,,,,,,,,,,,,,,,,,,,,,
,,,,177540,001,2023-11-09_19h41.47.209,fluency,2022.2.4,Win32,60.10337781,,,,,,,,,,,,,,,,,,,,,,,,,,,,,,,,,,,,,,,,,,,,,,,,,,,,,,,,,,,,,,,,,,,,,,,,,,,,,,,,,,0,0,0,0,1,,"[""k""]",[0.5623999998570071],0,"[""k""]",[0.5625],,,,,,,,,,,,,,,,,,,,,,,,,,,,,,,,,,,,,,,,,,,,,,,,,,,,,,,,,,,,,,
,,,,177540,001,2023-11-09_19h41.47.209,fluency,2022.2.4,Win32,60.10337781,,,,,,,,,,,,,,,,,,,,,,,8,4,img/B04_08.jpg,CONTROL,Press K as soon as you see a face, ,KJ,,,,,,,,,,,,,,,,,,,,,,,,,,,,,,,,5,2.7363,,,,,,,,,,,,,,0,95,95,41,1,,,,,,,,,,,,,space,1.5187,,,,,,,,,,,,,,,,,,,,,,,,,,,,,,,,,,,,,,,,,,,,,,,,,,,,,,,,,,,,
,,,,177540,001,2023-11-09_19h41.47.209,fluency,2022.2.4,Win32,60.10337781,,,,,,,,,,,,,,,,,,,,,,,6,6,img/B06_06.jpg,CONTROL,Press K as soon as you see a face, ,KJ,,,,,,,,,,,,,,,,,,,,,,,,,,,,,,,,,,,,,,,,,,,,,,1208.5787,0,96,96,61,1,109,0,0,0,0,1,98,,,,,,,,,,,,,,,,,,,,,,,,,,,,,,,,,,,,,,,,,,,,,,,,,,,,,,,,,,,,,,,,,,,
,,,,177540,001,2023-11-09_19h41.47.209,fluency,2022.2.4,Win32,60.10337781,,,,,,,,,,,,,,,,,,,,,,,,,,,,,,,,,,,,,,,,,,,,,,,,,,,,,,,,,,,,,,,,,,,,,,,,,,,,,,,,,,0,0,0,0,1,,"[""k""]",[0.4659999999998945],0,"[""k""]",[0.4661000001431148],,,,,,,,,,,,,,,,,,,,,,,,,,,,,,,,,,,,,,,,,,,,,,,,,,,,,,,,,,,,,,
,,,,177540,001,2023-11-09_19h41.47.209,fluency,2022.2.4,Win32,60.10337781,,,,,,,,,,,,,,,,,,,,,,,6,6,img/B06_06.jpg,CONTROL,Press K as soon as you see a face, ,KJ,,,,,,,,,,,,,,,,,,,,,,,,,,,,,,,,3,1.6846,,,,,,,,,,,,,,0,96,96,61,1,,,,,,,,,,,,,space,1.0677,,,,,,,,,,,,,,,,,,,,,,,,,,,,,,,,,,,,,,,,,,,,,,,,,,,,,,,,,,,,
,,,,177540,001,2023-11-09_19h41.47.209,fluency,2022.2.4,Win32,60.10337781,,,,,,,,,,,,,,,,,,,,,,,2,9,img/B09_02.jpg,CONTROL,Press K as soon as you see a face, ,KJ,,,,,,,,,,,,,,,,,,,,,,,,,,,,,,,,,,,,,,,,,,,,,,1215.3845,0,97,97,90,1,109,0,0,0,0,1,98,,,,,,,,,,,,,,,,,,,,,,,,,,,,,,,,,,,,,,,,,,,,,,,,,,,,,,,,,,,,,,,,,,,
,,,,177540,001,2023-11-09_19h41.47.209,fluency,2022.2.4,Win32,60.10337781,,,,,,,,,,,,,,,,,,,,,,,,,,,,,,,,,,,,,,,,,,,,,,,,,,,,,,,,,,,,,,,,,,,,,,,,,,,,,,,,,,0,0,0,0,1,,"[""k""]",[0.6836000001430875],0,"[""k""]",[0.6834999999998672],,,,,,,,,,,,,,,,,,,,,,,,,,,,,,,,,,,,,,,,,,,,,,,,,,,,,,,,,,,,,,
,,,,177540,001,2023-11-09_19h41.47.209,fluency,2022.2.4,Win32,60.10337781,,,,,,,,,,,,,,,,,,,,,,,2,9,img/B09_02.jpg,CONTROL,Press K as soon as you see a face, ,KJ,,,,,,,,,,,,,,,,,,,,,,,,,,,,,,,,6,1.6314,,,,,,,,,,,,,,0,97,97,90,1,,,,,,,,,,,,,space,1.0906,,,,,,,,,,,,,,,,,,,,,,,,,,,,,,,,,,,,,,,,,,,,,,,,,,,,,,,,,,,,
,,,,177540,001,2023-11-09_19h41.47.209,fluency,2022.2.4,Win32,60.10337781,,,,,,,,,,,,,,,,,,,,,,,7,8,img/B08_07.jpg,CONTROL,Press K as soon as you see a face, ,KJ,,,,,,,,,,,,,,,,,,,,,,,,,,,,,,,,,,,,,,,,,,,,,,1222.1405,0,98,98,84,1,109,0,0,0,0,1,98,,,,,,,,,,,,,,,,,,,,,,,,,,,,,,,,,,,,,,,,,,,,,,,,,,,,,,,,,,,,,,,,,,,
,,,,177540,001,2023-11-09_19h41.47.209,fluency,2022.2.4,Win32,60.10337781,,,,,,,,,,,,,,,,,,,,,,,,,,,,,,,,,,,,,,,,,,,,,,,,,,,,,,,,,,,,,,,,,,,,,,,,,,,,,,,,,,0,0,0,0,1,,"[""k""]",[0.43159999990461984],0,"[""k""]",[0.4316999998090978],,,,,,,,,,,,,,,,,,,,,,,,,,,,,,,,,,,,,,,,,,,,,,,,,,,,,,,,,,,,,,
,,,,177540,001,2023-11-09_19h41.47.209,fluency,2022.2.4,Win32,60.10337781,,,,,,,,,,,,,,,,,,,,,,,7,8,img/B08_07.jpg,CONTROL,Press K as soon as you see a face, ,KJ,,,,,,,,,,,,,,,,,,,,,,,,,,,,,,,,3,1.9213,,,,,,,,,,,,,,0,98,98,84,1,,,,,,,,,,,,,space,0.8347,,,,,,,,,,,,,,,,,,,,,,,,,,,,,,,,,,,,,,,,,,,,,,,,,,,,,,,,,,,,
,,,,177540,001,2023-11-09_19h41.47.209,fluency,2022.2.4,Win32,60.10337781,,,,,,,,,,,,,,,,,,,,,,,7,6,img/B06_07.jpg,CONTROL,Press K as soon as you see a face, ,KJ,,,,,,,,,,,,,,,,,,,,,,,,,,,,,,,,,,,,,,,,,,,,,,1228.9464,0,99,99,62,1,109,0,0,0,0,1,98,,,,,,,,,,,,,,,,,,,,,,,,,,,,,,,,,,,,,,,,,,,,,,,,,,,,,,,,,,,,,,,,,,,
,,,,177540,001,2023-11-09_19h41.47.209,fluency,2022.2.4,Win32,60.10337781,,,,,,,,,,,,,,,,,,,,,,,,,,,,,,,,,,,,,,,,,,,,,,,,,,,,,,,,,,,,,,,,,,,,,,,,,,,,,,,,,,0,0,0,0,1,,"[""k""]",[0.5290999999047017],0,"[""k""]",[0.5290999999047017],,,,,,,,,,,,,,,,,,,,,,,,,,,,,,,,,,,,,,,,,,,,,,,,,,,,,,,,,,,,,,
,,,,177540,001,2023-11-09_19h41.47.209,fluency,2022.2.4,Win32,60.10337781,,,,,,,,,,,,,,,,,,,,,,,7,6,img/B06_07.jpg,CONTROL,Press K as soon as you see a face, ,KJ,,,,,,,,,,,,,,,,,,,,,,,,,,,,,,,,5,2.2239,,,,,,,,,,,,,,0,99,99,62,1,,,,,,,,,,,,,space,1.0519,,,,,,,,,,,,,,,,,,,,,,,,,,,,,,,,,,,,,,,,,,,,,,,,,,,,,,,,,,,,
,,,,177540,001,2023-11-09_19h41.47.209,fluency,2022.2.4,Win32,60.10337781,,,,,,,,,,,,,,,,,,,,,,,6,4,img/B04_06.jpg,CONTROL,Press K as soon as you see a face, ,KJ,,,,,,,,,,,,,,,,,,,,,,,,,,,,,,,,,,,,,,,,,,,,,,1236.2693,0,100,100,39,1,109,0,0,0,0,1,98,,,,,,,,,,,,,,,,,,,,,,,,,,,,,,,,,,,,,,,,,,,,,,,,,,,,,,,,,,,,,,,,,,,
,,,,177540,001,2023-11-09_19h41.47.209,fluency,2022.2.4,Win32,60.10337781,,,,,,,,,,,,,,,,,,,,,,,,,,,,,,,,,,,,,,,,,,,,,,,,,,,,,,,,,,,,,,,,,,,,,,,,,,,,,,,,,,0,0,0,0,1,,"[""k""]",[0.6290999999048381],0,"[""k""]",[0.6290999999048381],,,,,,,,,,,,,,,,,,,,,,,,,,,,,,,,,,,,,,,,,,,,,,,,,,,,,,,,,,,,,,
,,,,177540,001,2023-11-09_19h41.47.209,fluency,2022.2.4,Win32,60.10337781,,,,,,,,,,,,,,,,,,,,,,,6,4,img/B04_06.jpg,CONTROL,Press K as soon as you see a face, ,KJ,,,,,,,,,,,,,,,,,,,,,,,,,,,,,,,,5,2.0021,,,,,,,,,,,,,,0,100,100,39,1,,,,,,,,,,,,,space,1.3515,,,,,,,,,,,,,,,,,,,,,,,,,,,,,,,,,,,,,,,,,,,,,,,,,,,,,,,,,,,,
,,,,177540,001,2023-11-09_19h41.47.209,fluency,2022.2.4,Win32,60.10337781,,,,,,,,,,,,,,,,,,,,,,,10,9,img/B09_10.jpg,CONTROL,Press K as soon as you see a face, ,KJ,,,,,,,,,,,,,,,,,,,,,,,,,,,,,,,,,,,,,,,,,,,,,,1243.6756,0,101,101,98,1,109,0,0,0,0,1,98,,,,,,,,,,,,,,,,,,,,,,,,,,,,,,,,,,,,,,,,,,,,,,,,,,,,,,,,,,,,,,,,,,,
,,,,177540,001,2023-11-09_19h41.47.209,fluency,2022.2.4,Win32,60.10337781,,,,,,,,,,,,,,,,,,,,,,,,,,,,,,,,,,,,,,,,,,,,,,,,,,,,,,,,,,,,,,,,,,,,,,,,,,,,,,,,,,0,0,0,0,1,,"[""k""]",[0.4455999999047435],0,"[""k""]",[0.4455000000000382],,,,,,,,,,,,,,,,,,,,,,,,,,,,,,,,,,,,,,,,,,,,,,,,,,,,,,,,,,,,,,
,,,,177540,001,2023-11-09_19h41.47.209,fluency,2022.2.4,Win32,60.10337781,,,,,,,,,,,,,,,,,,,,,,,10,9,img/B09_10.jpg,CONTROL,Press K as soon as you see a face, ,KJ,,,,,,,,,,,,,,,,,,,,,,,,,,,,,,,,6,1.2908,,,,,,,,,,,,,,0,101,101,98,1,,,,,,,,,,,,,space,1.1349,,,,,,,,,,,,,,,,,,,,,,,,,,,,,,,,,,,,,,,,,,,,,,,,,,,,,,,,,,,,
