idTextbox.text,welcomeDone.numClicks,welcomeDone.timesOn,welcomeDone.timesOff,participant,session,date,expName,psychopyVersion,OS,frameRate,consent_advance.keys,consent_advance.rt,consent_advance_2.keys,consent_advance_2.rt,consentClick.x,consentClick.y,consentClick.leftButton,consentClick.midButton,consentClick.rightButton,consentClick.time,consentClick.clicked_name,instr_advance_3.keys,instr_advance_3.rt,spec_instr_adv.keys,spec_instr_adv.rt,spec_instr_adv2.keys,spec_instr_adv2.rt,instrLoop.thisRepN,instrLoop.thisTrialN,instrLoop.thisN,instrLoop.thisIndex,instrLoop.ran,steps,fams,face_file,cond,instr,term,key_map,attnKeyResp1.keys,attnKeyResp1.rt,q1.thisRepN,q1.thisTrialN,q1.thisN,q1.thisIndex,q1.ran,attnKeyResp2.keys,attnKeyResp2.rt,q2.thisRepN,q2.thisTrialN,q2.thisN,q2.thisIndex,q2.ran,attnKeyResp3.keys,attnKeyResp3.rt,q3.thisRepN,q3.thisTrialN,q3.thisN,q3.thisIndex,q3.ran,practiceStart.keys,practiceStart.rt,practiceResp.keys,practiceResp.rt,timesRedone,practiceRepeat.thisRepN,practiceRepeat.thisTrialN,practiceRepeat.thisN,practiceRepeat.thisIndex,practiceRepeat.ran,attrRating.keys,attrRating.rt,practiceTrial.thisRepN,practiceTrial.thisTrialN,practiceTrial.thisN,practiceTrial.thisIndex,practiceTrial.ran,key_resp_3.keys,key_resp_3.rt,attnChecker.thisRepN,attnChecker.thisTrialN,attnChecker.thisN,attnChecker.thisIndex,attnChecker.ran,faceOnsetTime,trials.thisRepN,trials.thisTrialN,trials.thisN,trials.thisIndex,trials.ran,trials.order,repeat_loop.thisRepN,repeat_loop.thisTrialN,repeat_loop.thisN,repeat_loop.thisIndex,repeat_loop.ran,repeat_loop.order,catResp.keys,globalTimesRedone,catAllKeys.keys,redo_keypress.keys,redo_keypress.rt,redo_feedback_loop.thisRepN,redo_feedback_loop.thisTrialN,redo_feedback_loop.thisN,redo_feedback_loop.thisIndex,redo_feedback_loop.ran,catResp.rt,catAllKeys.rt,contResp.keys,contResp.rt,contResp_2.keys,contResp_2.rt,respQ1.response,respQ1.rt,respQ2.response,respQ2.rt,respQ3.response,respQ3.rt,respQ4.response,respQ4.rt,surveyContinue1.numClicks,surveyContinue1.timesOn,surveyContinue1.timesOff,respQ5.response,respQ5.rt,respQ6.response,respQ6.rt,respQ7.response,respQ7.rt,respQ8.response,respQ8.rt,surveyContinue2.numClicks,surveyContinue2.timesOn,surveyContinue2.timesOff,respQ9.response,respQ9.rt,respQ10.response,respQ10.rt,respQ11.response,respQ11.rt,respQ12.response,respQ12.rt,surveyContinue3.numClicks,surveyContinue3.timesOn,surveyContinue3.timesOff,respQ13.response,respQ13.rt,respQ14.response,respQ14.rt,respQ15.response,respQ15.rt,surveyContinue4.numClicks,surveyContinue4.timesOn,surveyContinue4.timesOff,respAge.response,respAge.rt,genderResp1.response,genderResp1.rt,genderResp2.text,demogexitClick.numClicks,demogexitClick.timesOn,demogexitClick.timesOff,textbox.text,openAnswerClick.numClicks,openAnswerClick.timesOn,openAnswerClick.timesOff,debriefEnd.keys,debriefEnd.rt,exitKey.keys,exitKey.rt
"5fc15e530e7f990ce5acd751
",1,[11.117],[11.117],299875,001,2023-09-28_16h44.58.756,fluency,2022.2.5,MacIntel,58.82352941,,,,,,,,,,,,,,,,,,,,,,,,,,,,,,,,,,,,,,,,,,,,,,,,,,,,,,,,,,,,,,,,,,,,,,,,,,,,,,,,,,,,,,,,,,,,,,,,,,,,,,,,,,,,,,,,,,,,,,,,,,,,,,,,,,,,,,,,,,,,,,,,,,,,,,,,,,,,,,,,,
,,,,299875,001,2023-09-28_16h44.58.756,fluency,2022.2.5,MacIntel,58.82352941,space,23.859,,,,,,,,,,,,,,,,,,,,,,,,,,,,,,,,,,,,,,,,,,,,,,,,,,,,,,,,,,,,,,,,,,,,,,,,,,,,,,,,,,,,,,,,,,,,,,,,,,,,,,,,,,,,,,,,,,,,,,,,,,,,,,,,,,,,,,,,,,,,,,,,,,,,,,,,,,,,,,,
,,,,299875,001,2023-09-28_16h44.58.756,fluency,2022.2.5,MacIntel,58.82352941,,,space,10.586,,,,,,,,,,,,,,,,,,,,,,,,,,,,,,,,,,,,,,,,,,,,,,,,,,,,,,,,,,,,,,,,,,,,,,,,,,,,,,,,,,,,,,,,,,,,,,,,,,,,,,,,,,,,,,,,,,,,,,,,,,,,,,,,,,,,,,,,,,,,,,,,,,,,,,,,,,,,,
,,,,299875,001,2023-09-28_16h44.58.756,fluency,2022.2.5,MacIntel,58.82352941,,,,,0.326666667,-0.335555556,1,0,0,13.708,iAgree,,,,,,,,,,,,,,,,,,,,,,,,,,,,,,,,,,,,,,,,,,,,,,,,,,,,,,,,,,,,,,,,,,,,,,,,,,,,,,,,,,,,,,,,,,,,,,,,,,,,,,,,,,,,,,,,,,,,,,,,,,,,,,,,,,,,,,,,,,,,,,,,,,,,,,
,,,,299875,001,2023-09-28_16h44.58.756,fluency,2022.2.5,MacIntel,58.82352941,,,,,,,,,,,,space,4.63,,,,,,,,,,,,,,,,,,,,,,,,,,,,,,,,,,,,,,,,,,,,,,,,,,,,,,,,,,,,,,,,,,,,,,,,,,,,,,,,,,,,,,,,,,,,,,,,,,,,,,,,,,,,,,,,,,,,,,,,,,,,,,,,,,,,,,,,,,,,,,,,,,,,
,,,,299875,001,2023-09-28_16h44.58.756,fluency,2022.2.5,MacIntel,58.82352941,,,,,,,,,,,,,,space,27.353,space,8.126,0,0,0,9,1,9,1,img/B01_09.jpg,BLEND,Press J if the face is a BLEND and K if the face is a NON-BLEND,A blend is a computer-generated image created by combining together multiple photos of real human faces. A non-blend is a regular photo of a human face.,JK,,,,,,,,,,,,,,,,,,,,,,,,,,,,,,,,,,,,,,,,,,,,,,,,,,,,,,,,,,,,,,,,,,,,,,,,,,,,,,,,,,,,,,,,,,,,,,,,,,,,,,,,,,,,,,,,,,,,,,,,,,,,,,,,,,,,
,,,,299875,001,2023-09-28_16h44.58.756,fluency,2022.2.5,MacIntel,58.82352941,,,,,,,,,,,,,,,,,,,,,,,,,,,,,,c,6.271,0,0,0,0,1,,,,,,,,,,,,,,,,,,,,,,,,,,,,,,,,,,,,,,,,,,,,,,,,,,,,,,,,,,,,,,,,,,,,,,,,,,,,,,,,,,,,,,,,,,,,,,,,,,,,,,,,,,,,,,,,,,,,,,,,,,,,,
,,,,299875,001,2023-09-28_16h44.58.756,fluency,2022.2.5,MacIntel,58.82352941,,,,,,,,,,,,,,,,,,,,,,,,,,,,,,,,,,,,,a,4.927,0,0,0,0,1,,,,,,,,,,,,,,,,,,,,,,,,,,,,,,,,,,,,,,,,,,,,,,,,,,,,,,,,,,,,,,,,,,,,,,,,,,,,,,,,,,,,,,,,,,,,,,,,,,,,,,,,,,,,,,,,,,,,,,
,,,,299875,001,2023-09-28_16h44.58.756,fluency,2022.2.5,MacIntel,58.82352941,,,,,,,,,,,,,,,,,,,,,,,,,,,,,,,,,,,,,,,,,,,,c,3.802,0,0,0,0,1,,,,,,,,,,,,,,,,,,,,,,,,,,,,,,,,,,,,,,,,,,,,,,,,,,,,,,,,,,,,,,,,,,,,,,,,,,,,,,,,,,,,,,,,,,,,,,,,,,,,,,,,,,,,,,,
,,,,299875,001,2023-09-28_16h44.58.756,fluency,2022.2.5,MacIntel,58.82352941,,,,,,,,,,,,,,,,,,,,,,,,,,,,,,,,,,,,,,,,,,,,,,,,,,,space,1.794,k,2.963,0,0,0,0,0,1,,,,,,,,,,,,,,,,,,,,,,,,,,,,,,,,,,,,,,,,,,,,,,,,,,,,,,,,,,,,,,,,,,,,,,,,,,,,,,,,,,,,,,,,,,,,,,,,,,,,,
,,,,299875,001,2023-09-28_16h44.58.756,fluency,2022.2.5,MacIntel,58.82352941,,,,,,,,,,,,,,,,,,,,,,,,,,,,,,,,,,,,,,,,,,,,,,,,,,,,,,,,,,,,,6,5.201,0,0,0,0,1,,,,,,,,,,,,,,,,,,,,,,,,,,,,,,,,,,,,,,,,,,,,,,,,,,,,,,,,,,,,,,,,,,,,,,,,,,,,,,,,,,,,,,,,,,,,,,
,,,,299875,001,2023-09-28_16h44.58.756,fluency,2022.2.5,MacIntel,58.82352941,,,,,,,,,,,,,,,,,,,,,,,,,,,,,,,,,,,,,,,,,,,,,,,,,,,,,,,,,,,,,,,,,,,,space,3.755,0,0,0,0,1,,,,,,,,,,,,,,,,,,,,,,,,,,,,,,,,,,,,,,,,,,,,,,,,,,,,,,,,,,,,,,,,,,,,,,,,,,,,,,,,,,,,,,,
,,,,299875,001,2023-09-28_16h44.58.756,fluency,2022.2.5,MacIntel,58.82352941,,,,,,,,,,,,,,,,,,,,,,,0,10,img/B10_00.jpg,BLEND,Press J if the face is a BLEND and K if the face is a NON-BLEND,A blend is a computer-generated image created by combining together multiple photos of real human faces. A non-blend is a regular photo of a human face.,JK,,,,,,,,,,,,,,,,,,,,,,,,,,,,,,,,,,,,,,,,,,,,,,150.636,0,0,0,99,1,109,0,0,0,0,1,98,,,,,,,,,,,,,,,,,,,,,,,,,,,,,,,,,,,,,,,,,,,,,,,,,,,,,,,,,,,,,,,,,,,,,,,,,,
,,,,299875,001,2023-09-28_16h44.58.756,fluency,2022.2.5,MacIntel,58.82352941,,,,,,,,,,,,,,,,,,,,,,,,,,,,,,,,,,,,,,,,,,,,,,,,,,,,,,,,,,,,,,,,,,,,,,,,,,,,,,,,,,,,,,,,,1,,space,5.016,0,0,0,0,1,,,,,,,,,,,,,,,,,,,,,,,,,,,,,,,,,,,,,,,,,,,,,,,,,,,,,,,,,,,,,,,,
,,,,299875,001,2023-09-28_16h44.58.756,fluency,2022.2.5,MacIntel,58.82352941,,,,,,,,,,,,,,,,,,,,,,,,,,,,,,,,,,,,,,,,,,,,,,,,,,,,,,,,,,,,,,,,,,,,,,,,,,,,,,,,,,0,0,0,0,1,,,,,,,,,,,,,,,,,,,,,,,,,,,,,,,,,,,,,,,,,,,,,,,,,,,,,,,,,,,,,,,,,,,,,,,,,,,
,,,,299875,001,2023-09-28_16h44.58.756,fluency,2022.2.5,MacIntel,58.82352941,,,,,,,,,,,,,,,,,,,,,,,0,10,img/B10_00.jpg,BLEND,Press J if the face is a BLEND and K if the face is a NON-BLEND,A blend is a computer-generated image created by combining together multiple photos of real human faces. A non-blend is a regular photo of a human face.,JK,,,,,,,,,,,,,,,,,,,,,,,,,,,,,,,,,,,,,,,,,,,,,,159.703,0,0,0,99,1,109,1,0,1,0,1,98,,,,,,,,,,,,,,,,,,,,,,,,,,,,,,,,,,,,,,,,,,,,,,,,,,,,,,,,,,,,,,,,,,,,,,,,,,
,,,,299875,001,2023-09-28_16h44.58.756,fluency,2022.2.5,MacIntel,58.82352941,,,,,,,,,,,,,,,,,,,,,,,,,,,,,,,,,,,,,,,,,,,,,,,,,,,,,,,,,,,,,,,,,,,,,,,,,,,,,,,,,,,,,,,,,2,,space,11.983,0,0,0,0,1,,,,,,,,,,,,,,,,,,,,,,,,,,,,,,,,,,,,,,,,,,,,,,,,,,,,,,,,,,,,,,,,
,,,,299875,001,2023-09-28_16h44.58.756,fluency,2022.2.5,MacIntel,58.82352941,,,,,,,,,,,,,,,,,,,,,,,,,,,,,,,,,,,,,,,,,,,,,,,,,,,,,,,,,,,,,,,,,,,,,,,,,,,,,,,,,,1,0,1,0,1,,,,,,,,,,,,,,,,,,,,,,,,,,,,,,,,,,,,,,,,,,,,,,,,,,,,,,,,,,,,,,,,,,,,,,,,,,,
,,,,299875,001,2023-09-28_16h44.58.756,fluency,2022.2.5,MacIntel,58.82352941,,,,,,,,,,,,,,,,,,,,,,,0,10,img/B10_00.jpg,BLEND,Press J if the face is a BLEND and K if the face is a NON-BLEND,A blend is a computer-generated image created by combining together multiple photos of real human faces. A non-blend is a regular photo of a human face.,JK,,,,,,,,,,,,,,,,,,,,,,,,,,,,,,,,,,,,,,,,,,,,,,176.72,0,0,0,99,1,109,2,0,2,0,1,98,,,,,,,,,,,,,,,,,,,,,,,,,,,,,,,,,,,,,,,,,,,,,,,,,,,,,,,,,,,,,,,,,,,,,,,,,,
,,,,299875,001,2023-09-28_16h44.58.756,fluency,2022.2.5,MacIntel,58.82352941,,,,,,,,,,,,,,,,,,,,,,,,,,,,,,,,,,,,,,,,,,,,,,,,,,,,,,,,,,,,,,,,,,,,,,,,,,,,,,,,,,2,0,2,0,1,,"[""k""]",2,"[""k""]",,,,,,,,[0.34300000000001774],[0.34300000000001774],,,,,,,,,,,,,,,,,,,,,,,,,,,,,,,,,,,,,,,,,,,,,,,,,,,,,,,,,,,,,,
,,,,299875,001,2023-09-28_16h44.58.756,fluency,2022.2.5,MacIntel,58.82352941,,,,,,,,,,,,,,,,,,,,,,,0,10,img/B10_00.jpg,BLEND,Press J if the face is a BLEND and K if the face is a NON-BLEND,A blend is a computer-generated image created by combining together multiple photos of real human faces. A non-blend is a regular photo of a human face.,JK,,,,,,,,,,,,,,,,,,,,,,,,,,,,,,,,5,4.009,,,,,,,,,,,,,,0,0,0,99,1,,,,,,,,,,,,,,,,,,,,space,8.101,,,,,,,,,,,,,,,,,,,,,,,,,,,,,,,,,,,,,,,,,,,,,,,,,,,,,,,,,,,,
,,,,299875,001,2023-09-28_16h44.58.756,fluency,2022.2.5,MacIntel,58.82352941,,,,,,,,,,,,,,,,,,,,,,,3,4,img/B04_03.jpg,BLEND,Press J if the face is a BLEND and K if the face is a NON-BLEND,A blend is a computer-generated image created by combining together multiple photos of real human faces. A non-blend is a regular photo of a human face.,JK,,,,,,,,,,,,,,,,,,,,,,,,,,,,,,,,,,,,,,,,,,,,,,192.919,0,1,1,36,1,109,0,0,0,0,1,98,,,,,,,,,,,,,,,,,,,,,,,,,,,,,,,,,,,,,,,,,,,,,,,,,,,,,,,,,,,,,,,,,,,,,,,,,,
,,,,299875,001,2023-09-28_16h44.58.756,fluency,2022.2.5,MacIntel,58.82352941,,,,,,,,,,,,,,,,,,,,,,,,,,,,,,,,,,,,,,,,,,,,,,,,,,,,,,,,,,,,,,,,,,,,,,,,,,,,,,,,,,0,0,0,0,1,,"[""k""]",2,"[""k""]",,,,,,,,[2.7820000000000107],[2.7820000000000107],,,,,,,,,,,,,,,,,,,,,,,,,,,,,,,,,,,,,,,,,,,,,,,,,,,,,,,,,,,,,,
,,,,299875,001,2023-09-28_16h44.58.756,fluency,2022.2.5,MacIntel,58.82352941,,,,,,,,,,,,,,,,,,,,,,,3,4,img/B04_03.jpg,BLEND,Press J if the face is a BLEND and K if the face is a NON-BLEND,A blend is a computer-generated image created by combining together multiple photos of real human faces. A non-blend is a regular photo of a human face.,JK,,,,,,,,,,,,,,,,,,,,,,,,,,,,,,,,5,2.441,,,,,,,,,,,,,,0,1,1,36,1,,,,,,,,,,,,,,,,,,,,space,0.43,,,,,,,,,,,,,,,,,,,,,,,,,,,,,,,,,,,,,,,,,,,,,,,,,,,,,,,,,,,,
,,,,299875,001,2023-09-28_16h44.58.756,fluency,2022.2.5,MacIntel,58.82352941,,,,,,,,,,,,,,,,,,,,,,,9,1,img/B01_09.jpg,BLEND,Press J if the face is a BLEND and K if the face is a NON-BLEND,A blend is a computer-generated image created by combining together multiple photos of real human faces. A non-blend is a regular photo of a human face.,JK,,,,,,,,,,,,,,,,,,,,,,,,,,,,,,,,,,,,,,,,,,,,,,200.869,0,2,2,9,1,109,0,0,0,0,1,98,,,,,,,,,,,,,,,,,,,,,,,,,,,,,,,,,,,,,,,,,,,,,,,,,,,,,,,,,,,,,,,,,,,,,,,,,,
,,,,299875,001,2023-09-28_16h44.58.756,fluency,2022.2.5,MacIntel,58.82352941,,,,,,,,,,,,,,,,,,,,,,,,,,,,,,,,,,,,,,,,,,,,,,,,,,,,,,,,,,,,,,,,,,,,,,,,,,,,,,,,,,0,0,0,0,1,,"[""k""]",2,"[""k""]",,,,,,,,[1.8759999999999764],[1.8759999999999764],,,,,,,,,,,,,,,,,,,,,,,,,,,,,,,,,,,,,,,,,,,,,,,,,,,,,,,,,,,,,,
,,,,299875,001,2023-09-28_16h44.58.756,fluency,2022.2.5,MacIntel,58.82352941,,,,,,,,,,,,,,,,,,,,,,,9,1,img/B01_09.jpg,BLEND,Press J if the face is a BLEND and K if the face is a NON-BLEND,A blend is a computer-generated image created by combining together multiple photos of real human faces. A non-blend is a regular photo of a human face.,JK,,,,,,,,,,,,,,,,,,,,,,,,,,,,,,,,3,1.016,,,,,,,,,,,,,,0,2,2,9,1,,,,,,,,,,,,,,,,,,,,space,1.352,,,,,,,,,,,,,,,,,,,,,,,,,,,,,,,,,,,,,,,,,,,,,,,,,,,,,,,,,,,,
,,,,299875,001,2023-09-28_16h44.58.756,fluency,2022.2.5,MacIntel,58.82352941,,,,,,,,,,,,,,,,,,,,,,,4,6,img/B06_04.jpg,BLEND,Press J if the face is a BLEND and K if the face is a NON-BLEND,A blend is a computer-generated image created by combining together multiple photos of real human faces. A non-blend is a regular photo of a human face.,JK,,,,,,,,,,,,,,,,,,,,,,,,,,,,,,,,,,,,,,,,,,,,,,208.303,0,3,3,59,1,109,0,0,0,0,1,98,,,,,,,,,,,,,,,,,,,,,,,,,,,,,,,,,,,,,,,,,,,,,,,,,,,,,,,,,,,,,,,,,,,,,,,,,,
,,,,299875,001,2023-09-28_16h44.58.756,fluency,2022.2.5,MacIntel,58.82352941,,,,,,,,,,,,,,,,,,,,,,,,,,,,,,,,,,,,,,,,,,,,,,,,,,,,,,,,,,,,,,,,,,,,,,,,,,,,,,,,,,0,0,0,0,1,,"[""j""]",2,"[""j"",""space""]",,,,,,,,[1.0570000000000164],"[1.0570000000000164,2.1769999999999925]",,,,,,,,,,,,,,,,,,,,,,,,,,,,,,,,,,,,,,,,,,,,,,,,,,,,,,,,,,,,,,
,,,,299875,001,2023-09-28_16h44.58.756,fluency,2022.2.5,MacIntel,58.82352941,,,,,,,,,,,,,,,,,,,,,,,4,6,img/B06_04.jpg,BLEND,Press J if the face is a BLEND and K if the face is a NON-BLEND,A blend is a computer-generated image created by combining together multiple photos of real human faces. A non-blend is a regular photo of a human face.,JK,,,,,,,,,,,,,,,,,,,,,,,,,,,,,,,,3,1.733,,,,,,,,,,,,,,0,3,3,59,1,,,,,,,,,,,,,,,,,,,,space,1.501,,,,,,,,,,,,,,,,,,,,,,,,,,,,,,,,,,,,,,,,,,,,,,,,,,,,,,,,,,,,
,,,,299875,001,2023-09-28_16h44.58.756,fluency,2022.2.5,MacIntel,58.82352941,,,,,,,,,,,,,,,,,,,,,,,9,3,img/B03_09.jpg,BLEND,Press J if the face is a BLEND and K if the face is a NON-BLEND,A blend is a computer-generated image created by combining together multiple photos of real human faces. A non-blend is a regular photo of a human face.,JK,,,,,,,,,,,,,,,,,,,,,,,,,,,,,,,,,,,,,,,,,,,,,,216.603,0,4,4,31,1,109,0,0,0,0,1,98,,,,,,,,,,,,,,,,,,,,,,,,,,,,,,,,,,,,,,,,,,,,,,,,,,,,,,,,,,,,,,,,,,,,,,,,,,
,,,,299875,001,2023-09-28_16h44.58.756,fluency,2022.2.5,MacIntel,58.82352941,,,,,,,,,,,,,,,,,,,,,,,,,,,,,,,,,,,,,,,,,,,,,,,,,,,,,,,,,,,,,,,,,,,,,,,,,,,,,,,,,,0,0,0,0,1,,"[""k""]",2,"[""k"",""space""]",,,,,,,,[1.795000000000016],"[1.795000000000016,2.3100000000000023]",,,,,,,,,,,,,,,,,,,,,,,,,,,,,,,,,,,,,,,,,,,,,,,,,,,,,,,,,,,,,,
,,,,299875,001,2023-09-28_16h44.58.756,fluency,2022.2.5,MacIntel,58.82352941,,,,,,,,,,,,,,,,,,,,,,,9,3,img/B03_09.jpg,BLEND,Press J if the face is a BLEND and K if the face is a NON-BLEND,A blend is a computer-generated image created by combining together multiple photos of real human faces. A non-blend is a regular photo of a human face.,JK,,,,,,,,,,,,,,,,,,,,,,,,,,,,,,,,5,1.962,,,,,,,,,,,,,,0,4,4,31,1,,,,,,,,,,,,,,,,,,,,space,1.556,,,,,,,,,,,,,,,,,,,,,,,,,,,,,,,,,,,,,,,,,,,,,,,,,,,,,,,,,,,,
,,,,299875,001,2023-09-28_16h44.58.756,fluency,2022.2.5,MacIntel,58.82352941,,,,,,,,,,,,,,,,,,,,,,,8,6,img/B06_08.jpg,BLEND,Press J if the face is a BLEND and K if the face is a NON-BLEND,A blend is a computer-generated image created by combining together multiple photos of real human faces. A non-blend is a regular photo of a human face.,JK,,,,,,,,,,,,,,,,,,,,,,,,,,,,,,,,,,,,,,,,,,,,,,224.186,0,5,5,63,1,109,0,0,0,0,1,98,,,,,,,,,,,,,,,,,,,,,,,,,,,,,,,,,,,,,,,,,,,,,,,,,,,,,,,,,,,,,,,,,,,,,,,,,,
,,,,299875,001,2023-09-28_16h44.58.756,fluency,2022.2.5,MacIntel,58.82352941,,,,,,,,,,,,,,,,,,,,,,,,,,,,,,,,,,,,,,,,,,,,,,,,,,,,,,,,,,,,,,,,,,,,,,,,,,,,,,,,,,0,0,0,0,1,,"[""j""]",2,"[""j""]",,,,,,,,[2.328000000000003],[2.328000000000003],,,,,,,,,,,,,,,,,,,,,,,,,,,,,,,,,,,,,,,,,,,,,,,,,,,,,,,,,,,,,,
,,,,299875,001,2023-09-28_16h44.58.756,fluency,2022.2.5,MacIntel,58.82352941,,,,,,,,,,,,,,,,,,,,,,,8,6,img/B06_08.jpg,BLEND,Press J if the face is a BLEND and K if the face is a NON-BLEND,A blend is a computer-generated image created by combining together multiple photos of real human faces. A non-blend is a regular photo of a human face.,JK,,,,,,,,,,,,,,,,,,,,,,,,,,,,,,,,6,1.664,,,,,,,,,,,,,,0,5,5,63,1,,,,,,,,,,,,,,,,,,,,space,0.951,,,,,,,,,,,,,,,,,,,,,,,,,,,,,,,,,,,,,,,,,,,,,,,,,,,,,,,,,,,,
,,,,299875,001,2023-09-28_16h44.58.756,fluency,2022.2.5,MacIntel,58.82352941,,,,,,,,,,,,,,,,,,,,,,,5,2,img/B02_05.jpg,BLEND,Press J if the face is a BLEND and K if the face is a NON-BLEND,A blend is a computer-generated image created by combining together multiple photos of real human faces. A non-blend is a regular photo of a human face.,JK,,,,,,,,,,,,,,,,,,,,,,,,,,,,,,,,,,,,,,,,,,,,,,230.87,0,6,6,16,1,109,0,0,0,0,1,98,,,,,,,,,,,,,,,,,,,,,,,,,,,,,,,,,,,,,,,,,,,,,,,,,,,,,,,,,,,,,,,,,,,,,,,,,,
,,,,299875,001,2023-09-28_16h44.58.756,fluency,2022.2.5,MacIntel,58.82352941,,,,,,,,,,,,,,,,,,,,,,,,,,,,,,,,,,,,,,,,,,,,,,,,,,,,,,,,,,,,,,,,,,,,,,,,,,,,,,,,,,0,0,0,0,1,,"[""j""]",2,"[""j""]",,,,,,,,[1.6140000000000043],[1.6140000000000043],,,,,,,,,,,,,,,,,,,,,,,,,,,,,,,,,,,,,,,,,,,,,,,,,,,,,,,,,,,,,,
,,,,299875,001,2023-09-28_16h44.58.756,fluency,2022.2.5,MacIntel,58.82352941,,,,,,,,,,,,,,,,,,,,,,,5,2,img/B02_05.jpg,BLEND,Press J if the face is a BLEND and K if the face is a NON-BLEND,A blend is a computer-generated image created by combining together multiple photos of real human faces. A non-blend is a regular photo of a human face.,JK,,,,,,,,,,,,,,,,,,,,,,,,,,,,,,,,6,1.541,,,,,,,,,,,,,,0,6,6,16,1,,,,,,,,,,,,,,,,,,,,space,0.762,,,,,,,,,,,,,,,,,,,,,,,,,,,,,,,,,,,,,,,,,,,,,,,,,,,,,,,,,,,,
,,,,299875,001,2023-09-28_16h44.58.756,fluency,2022.2.5,MacIntel,58.82352941,,,,,,,,,,,,,,,,,,,,,,,10,8,img/B08_10.jpg,BLEND,Press J if the face is a BLEND and K if the face is a NON-BLEND,A blend is a computer-generated image created by combining together multiple photos of real human faces. A non-blend is a regular photo of a human face.,JK,,,,,,,,,,,,,,,,,,,,,,,,,,,,,,,,,,,,,,,,,,,,,,237.237,0,7,7,87,1,109,0,0,0,0,1,98,,,,,,,,,,,,,,,,,,,,,,,,,,,,,,,,,,,,,,,,,,,,,,,,,,,,,,,,,,,,,,,,,,,,,,,,,,
,,,,299875,001,2023-09-28_16h44.58.756,fluency,2022.2.5,MacIntel,58.82352941,,,,,,,,,,,,,,,,,,,,,,,,,,,,,,,,,,,,,,,,,,,,,,,,,,,,,,,,,,,,,,,,,,,,,,,,,,,,,,,,,,0,0,0,0,1,,"[""k""]",2,"[""k""]",,,,,,,,[1.5299999999999727],[1.5299999999999727],,,,,,,,,,,,,,,,,,,,,,,,,,,,,,,,,,,,,,,,,,,,,,,,,,,,,,,,,,,,,,
,,,,299875,001,2023-09-28_16h44.58.756,fluency,2022.2.5,MacIntel,58.82352941,,,,,,,,,,,,,,,,,,,,,,,10,8,img/B08_10.jpg,BLEND,Press J if the face is a BLEND and K if the face is a NON-BLEND,A blend is a computer-generated image created by combining together multiple photos of real human faces. A non-blend is a regular photo of a human face.,JK,,,,,,,,,,,,,,,,,,,,,,,,,,,,,,,,4,1.465,,,,,,,,,,,,,,0,7,7,87,1,,,,,,,,,,,,,,,,,,,,space,2.788,,,,,,,,,,,,,,,,,,,,,,,,,,,,,,,,,,,,,,,,,,,,,,,,,,,,,,,,,,,,
,,,,299875,001,2023-09-28_16h44.58.756,fluency,2022.2.5,MacIntel,58.82352941,,,,,,,,,,,,,,,,,,,,,,,1,4,img/B04_01.jpg,BLEND,Press J if the face is a BLEND and K if the face is a NON-BLEND,A blend is a computer-generated image created by combining together multiple photos of real human faces. A non-blend is a regular photo of a human face.,JK,,,,,,,,,,,,,,,,,,,,,,,,,,,,,,,,,,,,,,,,,,,,,,246.553,0,8,8,34,1,109,0,0,0,0,1,98,,,,,,,,,,,,,,,,,,,,,,,,,,,,,,,,,,,,,,,,,,,,,,,,,,,,,,,,,,,,,,,,,,,,,,,,,,
,,,,299875,001,2023-09-28_16h44.58.756,fluency,2022.2.5,MacIntel,58.82352941,,,,,,,,,,,,,,,,,,,,,,,,,,,,,,,,,,,,,,,,,,,,,,,,,,,,,,,,,,,,,,,,,,,,,,,,,,,,,,,,,,0,0,0,0,1,,"[""k""]",2,"[""k""]",,,,,,,,[1.9169999999999732],[1.9169999999999732],,,,,,,,,,,,,,,,,,,,,,,,,,,,,,,,,,,,,,,,,,,,,,,,,,,,,,,,,,,,,,
,,,,299875,001,2023-09-28_16h44.58.756,fluency,2022.2.5,MacIntel,58.82352941,,,,,,,,,,,,,,,,,,,,,,,1,4,img/B04_01.jpg,BLEND,Press J if the face is a BLEND and K if the face is a NON-BLEND,A blend is a computer-generated image created by combining together multiple photos of real human faces. A non-blend is a regular photo of a human face.,JK,,,,,,,,,,,,,,,,,,,,,,,,,,,,,,,,5,1.274,,,,,,,,,,,,,,0,8,8,34,1,,,,,,,,,,,,,,,,,,,,space,1.203,,,,,,,,,,,,,,,,,,,,,,,,,,,,,,,,,,,,,,,,,,,,,,,,,,,,,,,,,,,,
,,,,299875,001,2023-09-28_16h44.58.756,fluency,2022.2.5,MacIntel,58.82352941,,,,,,,,,,,,,,,,,,,,,,,9,7,img/B07_09.jpg,BLEND,Press J if the face is a BLEND and K if the face is a NON-BLEND,A blend is a computer-generated image created by combining together multiple photos of real human faces. A non-blend is a regular photo of a human face.,JK,,,,,,,,,,,,,,,,,,,,,,,,,,,,,,,,,,,,,,,,,,,,,,253.103,0,9,9,75,1,109,0,0,0,0,1,98,,,,,,,,,,,,,,,,,,,,,,,,,,,,,,,,,,,,,,,,,,,,,,,,,,,,,,,,,,,,,,,,,,,,,,,,,,
,,,,299875,001,2023-09-28_16h44.58.756,fluency,2022.2.5,MacIntel,58.82352941,,,,,,,,,,,,,,,,,,,,,,,,,,,,,,,,,,,,,,,,,,,,,,,,,,,,,,,,,,,,,,,,,,,,,,,,,,,,,,,,,,0,0,0,0,1,,"[""j""]",2,"[""j""]",,,,,,,,[1.127999999999986],[1.127999999999986],,,,,,,,,,,,,,,,,,,,,,,,,,,,,,,,,,,,,,,,,,,,,,,,,,,,,,,,,,,,,,
,,,,299875,001,2023-09-28_16h44.58.756,fluency,2022.2.5,MacIntel,58.82352941,,,,,,,,,,,,,,,,,,,,,,,9,7,img/B07_09.jpg,BLEND,Press J if the face is a BLEND and K if the face is a NON-BLEND,A blend is a computer-generated image created by combining together multiple photos of real human faces. A non-blend is a regular photo of a human face.,JK,,,,,,,,,,,,,,,,,,,,,,,,,,,,,,,,5,0.85,,,,,,,,,,,,,,0,9,9,75,1,,,,,,,,,,,,,,,,,,,,space,0.656,,,,,,,,,,,,,,,,,,,,,,,,,,,,,,,,,,,,,,,,,,,,,,,,,,,,,,,,,,,,
,,,,299875,001,2023-09-28_16h44.58.756,fluency,2022.2.5,MacIntel,58.82352941,,,,,,,,,,,,,,,,,,,,,,,0,6,img/B06_00.jpg,BLEND,Press J if the face is a BLEND and K if the face is a NON-BLEND,A blend is a computer-generated image created by combining together multiple photos of real human faces. A non-blend is a regular photo of a human face.,JK,,,,,,,,,,,,,,,,,,,,,,,,,,,,,,,,,,,,,,,,,,,,,,258.67,0,10,10,55,1,109,0,0,0,0,1,98,,,,,,,,,,,,,,,,,,,,,,,,,,,,,,,,,,,,,,,,,,,,,,,,,,,,,,,,,,,,,,,,,,,,,,,,,,
,,,,299875,001,2023-09-28_16h44.58.756,fluency,2022.2.5,MacIntel,58.82352941,,,,,,,,,,,,,,,,,,,,,,,,,,,,,,,,,,,,,,,,,,,,,,,,,,,,,,,,,,,,,,,,,,,,,,,,,,,,,,,,,,0,0,0,0,1,,"[""k""]",2,"[""k""]",,,,,,,,[1.8459999999999468],[1.8459999999999468],,,,,,,,,,,,,,,,,,,,,,,,,,,,,,,,,,,,,,,,,,,,,,,,,,,,,,,,,,,,,,
,,,,299875,001,2023-09-28_16h44.58.756,fluency,2022.2.5,MacIntel,58.82352941,,,,,,,,,,,,,,,,,,,,,,,0,6,img/B06_00.jpg,BLEND,Press J if the face is a BLEND and K if the face is a NON-BLEND,A blend is a computer-generated image created by combining together multiple photos of real human faces. A non-blend is a regular photo of a human face.,JK,,,,,,,,,,,,,,,,,,,,,,,,,,,,,,,,4,1.565,,,,,,,,,,,,,,0,10,10,55,1,,,,,,,,,,,,,,,,,,,,space,0.812,,,,,,,,,,,,,,,,,,,,,,,,,,,,,,,,,,,,,,,,,,,,,,,,,,,,,,,,,,,,
,,,,299875,001,2023-09-28_16h44.58.756,fluency,2022.2.5,MacIntel,58.82352941,,,,,,,,,,,,,,,,,,,,,,,9,4,img/B04_09.jpg,BLEND,Press J if the face is a BLEND and K if the face is a NON-BLEND,A blend is a computer-generated image created by combining together multiple photos of real human faces. A non-blend is a regular photo of a human face.,JK,,,,,,,,,,,,,,,,,,,,,,,,,,,,,,,,,,,,,,,,,,,,,,266.103,0,11,11,42,1,109,0,0,0,0,1,98,,,,,,,,,,,,,,,,,,,,,,,,,,,,,,,,,,,,,,,,,,,,,,,,,,,,,,,,,,,,,,,,,,,,,,,,,,
,,,,299875,001,2023-09-28_16h44.58.756,fluency,2022.2.5,MacIntel,58.82352941,,,,,,,,,,,,,,,,,,,,,,,,,,,,,,,,,,,,,,,,,,,,,,,,,,,,,,,,,,,,,,,,,,,,,,,,,,,,,,,,,,0,0,0,0,1,,"[""k""]",2,"[""k""]",,,,,,,,[1.8769999999999527],[1.8769999999999527],,,,,,,,,,,,,,,,,,,,,,,,,,,,,,,,,,,,,,,,,,,,,,,,,,,,,,,,,,,,,,
,,,,299875,001,2023-09-28_16h44.58.756,fluency,2022.2.5,MacIntel,58.82352941,,,,,,,,,,,,,,,,,,,,,,,9,4,img/B04_09.jpg,BLEND,Press J if the face is a BLEND and K if the face is a NON-BLEND,A blend is a computer-generated image created by combining together multiple photos of real human faces. A non-blend is a regular photo of a human face.,JK,,,,,,,,,,,,,,,,,,,,,,,,,,,,,,,,7,1.978,,,,,,,,,,,,,,0,11,11,42,1,,,,,,,,,,,,,,,,,,,,space,2.432,,,,,,,,,,,,,,,,,,,,,,,,,,,,,,,,,,,,,,,,,,,,,,,,,,,,,,,,,,,,
,,,,299875,001,2023-09-28_16h44.58.756,fluency,2022.2.5,MacIntel,58.82352941,,,,,,,,,,,,,,,,,,,,,,,1,6,img/B06_01.jpg,BLEND,Press J if the face is a BLEND and K if the face is a NON-BLEND,A blend is a computer-generated image created by combining together multiple photos of real human faces. A non-blend is a regular photo of a human face.,JK,,,,,,,,,,,,,,,,,,,,,,,,,,,,,,,,,,,,,,,,,,,,,,274.586,0,12,12,56,1,109,0,0,0,0,1,98,,,,,,,,,,,,,,,,,,,,,,,,,,,,,,,,,,,,,,,,,,,,,,,,,,,,,,,,,,,,,,,,,,,,,,,,,,
,,,,299875,001,2023-09-28_16h44.58.756,fluency,2022.2.5,MacIntel,58.82352941,,,,,,,,,,,,,,,,,,,,,,,,,,,,,,,,,,,,,,,,,,,,,,,,,,,,,,,,,,,,,,,,,,,,,,,,,,,,,,,,,,,,,,,,,3,,space,4.316,0,0,0,0,1,,,,,,,,,,,,,,,,,,,,,,,,,,,,,,,,,,,,,,,,,,,,,,,,,,,,,,,,,,,,,,,,
,,,,299875,001,2023-09-28_16h44.58.756,fluency,2022.2.5,MacIntel,58.82352941,,,,,,,,,,,,,,,,,,,,,,,,,,,,,,,,,,,,,,,,,,,,,,,,,,,,,,,,,,,,,,,,,,,,,,,,,,,,,,,,,,0,0,0,0,1,,,,,,,,,,,,,,,,,,,,,,,,,,,,,,,,,,,,,,,,,,,,,,,,,,,,,,,,,,,,,,,,,,,,,,,,,,,
,,,,299875,001,2023-09-28_16h44.58.756,fluency,2022.2.5,MacIntel,58.82352941,,,,,,,,,,,,,,,,,,,,,,,1,6,img/B06_01.jpg,BLEND,Press J if the face is a BLEND and K if the face is a NON-BLEND,A blend is a computer-generated image created by combining together multiple photos of real human faces. A non-blend is a regular photo of a human face.,JK,,,,,,,,,,,,,,,,,,,,,,,,,,,,,,,,,,,,,,,,,,,,,,282.936,0,12,12,56,1,109,1,0,1,0,1,98,,,,,,,,,,,,,,,,,,,,,,,,,,,,,,,,,,,,,,,,,,,,,,,,,,,,,,,,,,,,,,,,,,,,,,,,,,
,,,,299875,001,2023-09-28_16h44.58.756,fluency,2022.2.5,MacIntel,58.82352941,,,,,,,,,,,,,,,,,,,,,,,,,,,,,,,,,,,,,,,,,,,,,,,,,,,,,,,,,,,,,,,,,,,,,,,,,,,,,,,,,,1,0,1,0,1,,"[""k""]",3,"[""k""]",,,,,,,,[1.0469999999999686],[1.0469999999999686],,,,,,,,,,,,,,,,,,,,,,,,,,,,,,,,,,,,,,,,,,,,,,,,,,,,,,,,,,,,,,
,,,,299875,001,2023-09-28_16h44.58.756,fluency,2022.2.5,MacIntel,58.82352941,,,,,,,,,,,,,,,,,,,,,,,1,6,img/B06_01.jpg,BLEND,Press J if the face is a BLEND and K if the face is a NON-BLEND,A blend is a computer-generated image created by combining together multiple photos of real human faces. A non-blend is a regular photo of a human face.,JK,,,,,,,,,,,,,,,,,,,,,,,,,,,,,,,,4,1.077,,,,,,,,,,,,,,0,12,12,56,1,,,,,,,,,,,,,,,,,,,,space,1.303,,,,,,,,,,,,,,,,,,,,,,,,,,,,,,,,,,,,,,,,,,,,,,,,,,,,,,,,,,,,
,,,,299875,001,2023-09-28_16h44.58.756,fluency,2022.2.5,MacIntel,58.82352941,,,,,,,,,,,,,,,,,,,,,,,9,2,img/B02_09.jpg,BLEND,Press J if the face is a BLEND and K if the face is a NON-BLEND,A blend is a computer-generated image created by combining together multiple photos of real human faces. A non-blend is a regular photo of a human face.,JK,,,,,,,,,,,,,,,,,,,,,,,,,,,,,,,,,,,,,,,,,,,,,,289.386,0,13,13,20,1,109,0,0,0,0,1,98,,,,,,,,,,,,,,,,,,,,,,,,,,,,,,,,,,,,,,,,,,,,,,,,,,,,,,,,,,,,,,,,,,,,,,,,,,
,,,,299875,001,2023-09-28_16h44.58.756,fluency,2022.2.5,MacIntel,58.82352941,,,,,,,,,,,,,,,,,,,,,,,,,,,,,,,,,,,,,,,,,,,,,,,,,,,,,,,,,,,,,,,,,,,,,,,,,,,,,,,,,,0,0,0,0,1,,"[""k""]",3,"[""k""]",,,,,,,,[1.6510000000000105],[1.6510000000000105],,,,,,,,,,,,,,,,,,,,,,,,,,,,,,,,,,,,,,,,,,,,,,,,,,,,,,,,,,,,,,
,,,,299875,001,2023-09-28_16h44.58.756,fluency,2022.2.5,MacIntel,58.82352941,,,,,,,,,,,,,,,,,,,,,,,9,2,img/B02_09.jpg,BLEND,Press J if the face is a BLEND and K if the face is a NON-BLEND,A blend is a computer-generated image created by combining together multiple photos of real human faces. A non-blend is a regular photo of a human face.,JK,,,,,,,,,,,,,,,,,,,,,,,,,,,,,,,,7,1.477,,,,,,,,,,,,,,0,13,13,20,1,,,,,,,,,,,,,,,,,,,,space,0.848,,,,,,,,,,,,,,,,,,,,,,,,,,,,,,,,,,,,,,,,,,,,,,,,,,,,,,,,,,,,
,,,,299875,001,2023-09-28_16h44.58.756,fluency,2022.2.5,MacIntel,58.82352941,,,,,,,,,,,,,,,,,,,,,,,4,8,img/B08_04.jpg,BLEND,Press J if the face is a BLEND and K if the face is a NON-BLEND,A blend is a computer-generated image created by combining together multiple photos of real human faces. A non-blend is a regular photo of a human face.,JK,,,,,,,,,,,,,,,,,,,,,,,,,,,,,,,,,,,,,,,,,,,,,,295.787,0,14,14,81,1,109,0,0,0,0,1,98,,,,,,,,,,,,,,,,,,,,,,,,,,,,,,,,,,,,,,,,,,,,,,,,,,,,,,,,,,,,,,,,,,,,,,,,,,
,,,,299875,001,2023-09-28_16h44.58.756,fluency,2022.2.5,MacIntel,58.82352941,,,,,,,,,,,,,,,,,,,,,,,,,,,,,,,,,,,,,,,,,,,,,,,,,,,,,,,,,,,,,,,,,,,,,,,,,,,,,,,,,,0,0,0,0,1,,"[""j""]",3,"[""j""]",,,,,,,,[1.2679999999999723],[1.2679999999999723],,,,,,,,,,,,,,,,,,,,,,,,,,,,,,,,,,,,,,,,,,,,,,,,,,,,,,,,,,,,,,
,,,,299875,001,2023-09-28_16h44.58.756,fluency,2022.2.5,MacIntel,58.82352941,,,,,,,,,,,,,,,,,,,,,,,4,8,img/B08_04.jpg,BLEND,Press J if the face is a BLEND and K if the face is a NON-BLEND,A blend is a computer-generated image created by combining together multiple photos of real human faces. A non-blend is a regular photo of a human face.,JK,,,,,,,,,,,,,,,,,,,,,,,,,,,,,,,,5,1.85,,,,,,,,,,,,,,0,14,14,81,1,,,,,,,,,,,,,,,,,,,,space,1.068,,,,,,,,,,,,,,,,,,,,,,,,,,,,,,,,,,,,,,,,,,,,,,,,,,,,,,,,,,,,
,,,,299875,001,2023-09-28_16h44.58.756,fluency,2022.2.5,MacIntel,58.82352941,,,,,,,,,,,,,,,,,,,,,,,2,9,img/B09_02.jpg,BLEND,Press J if the face is a BLEND and K if the face is a NON-BLEND,A blend is a computer-generated image created by combining together multiple photos of real human faces. A non-blend is a regular photo of a human face.,JK,,,,,,,,,,,,,,,,,,,,,,,,,,,,,,,,,,,,,,,,,,,,,,302.77,0,15,15,90,1,109,0,0,0,0,1,98,,,,,,,,,,,,,,,,,,,,,,,,,,,,,,,,,,,,,,,,,,,,,,,,,,,,,,,,,,,,,,,,,,,,,,,,,,
,,,,299875,001,2023-09-28_16h44.58.756,fluency,2022.2.5,MacIntel,58.82352941,,,,,,,,,,,,,,,,,,,,,,,,,,,,,,,,,,,,,,,,,,,,,,,,,,,,,,,,,,,,,,,,,,,,,,,,,,,,,,,,,,0,0,0,0,1,,"[""j""]",3,"[""j""]",,,,,,,,[1.9119999999999777],[1.9119999999999777],,,,,,,,,,,,,,,,,,,,,,,,,,,,,,,,,,,,,,,,,,,,,,,,,,,,,,,,,,,,,,
,,,,299875,001,2023-09-28_16h44.58.756,fluency,2022.2.5,MacIntel,58.82352941,,,,,,,,,,,,,,,,,,,,,,,2,9,img/B09_02.jpg,BLEND,Press J if the face is a BLEND and K if the face is a NON-BLEND,A blend is a computer-generated image created by combining together multiple photos of real human faces. A non-blend is a regular photo of a human face.,JK,,,,,,,,,,,,,,,,,,,,,,,,,,,,,,,,6,1.548,,,,,,,,,,,,,,0,15,15,90,1,,,,,,,,,,,,,,,,,,,,space,1.641,,,,,,,,,,,,,,,,,,,,,,,,,,,,,,,,,,,,,,,,,,,,,,,,,,,,,,,,,,,,
,,,,299875,001,2023-09-28_16h44.58.756,fluency,2022.2.5,MacIntel,58.82352941,,,,,,,,,,,,,,,,,,,,,,,7,4,img/B04_07.jpg,BLEND,Press J if the face is a BLEND and K if the face is a NON-BLEND,A blend is a computer-generated image created by combining together multiple photos of real human faces. A non-blend is a regular photo of a human face.,JK,,,,,,,,,,,,,,,,,,,,,,,,,,,,,,,,,,,,,,,,,,,,,,310.02,0,16,16,40,1,109,0,0,0,0,1,98,,,,,,,,,,,,,,,,,,,,,,,,,,,,,,,,,,,,,,,,,,,,,,,,,,,,,,,,,,,,,,,,,,,,,,,,,,
,,,,299875,001,2023-09-28_16h44.58.756,fluency,2022.2.5,MacIntel,58.82352941,,,,,,,,,,,,,,,,,,,,,,,,,,,,,,,,,,,,,,,,,,,,,,,,,,,,,,,,,,,,,,,,,,,,,,,,,,,,,,,,,,0,0,0,0,1,,"[""k""]",3,"[""k""]",,,,,,,,[1.2919999999999732],[1.2919999999999732],,,,,,,,,,,,,,,,,,,,,,,,,,,,,,,,,,,,,,,,,,,,,,,,,,,,,,,,,,,,,,
,,,,299875,001,2023-09-28_16h44.58.756,fluency,2022.2.5,MacIntel,58.82352941,,,,,,,,,,,,,,,,,,,,,,,7,4,img/B04_07.jpg,BLEND,Press J if the face is a BLEND and K if the face is a NON-BLEND,A blend is a computer-generated image created by combining together multiple photos of real human faces. A non-blend is a regular photo of a human face.,JK,,,,,,,,,,,,,,,,,,,,,,,,,,,,,,,,7,1.28,,,,,,,,,,,,,,0,16,16,40,1,,,,,,,,,,,,,,,,,,,,space,0.739,,,,,,,,,,,,,,,,,,,,,,,,,,,,,,,,,,,,,,,,,,,,,,,,,,,,,,,,,,,,
,,,,299875,001,2023-09-28_16h44.58.756,fluency,2022.2.5,MacIntel,58.82352941,,,,,,,,,,,,,,,,,,,,,,,8,7,img/B07_08.jpg,BLEND,Press J if the face is a BLEND and K if the face is a NON-BLEND,A blend is a computer-generated image created by combining together multiple photos of real human faces. A non-blend is a regular photo of a human face.,JK,,,,,,,,,,,,,,,,,,,,,,,,,,,,,,,,,,,,,,,,,,,,,,316.104,0,17,17,74,1,109,0,0,0,0,1,98,,,,,,,,,,,,,,,,,,,,,,,,,,,,,,,,,,,,,,,,,,,,,,,,,,,,,,,,,,,,,,,,,,,,,,,,,,
,,,,299875,001,2023-09-28_16h44.58.756,fluency,2022.2.5,MacIntel,58.82352941,,,,,,,,,,,,,,,,,,,,,,,,,,,,,,,,,,,,,,,,,,,,,,,,,,,,,,,,,,,,,,,,,,,,,,,,,,,,,,,,,,0,0,0,0,1,,"[""j""]",3,"[""j"",""5""]",,,,,,,,[0.9289999999999736],"[0.9289999999999736,2.4909999999999854]",,,,,,,,,,,,,,,,,,,,,,,,,,,,,,,,,,,,,,,,,,,,,,,,,,,,,,,,,,,,,,
,,,,299875,001,2023-09-28_16h44.58.756,fluency,2022.2.5,MacIntel,58.82352941,,,,,,,,,,,,,,,,,,,,,,,8,7,img/B07_08.jpg,BLEND,Press J if the face is a BLEND and K if the face is a NON-BLEND,A blend is a computer-generated image created by combining together multiple photos of real human faces. A non-blend is a regular photo of a human face.,JK,,,,,,,,,,,,,,,,,,,,,,,,,,,,,,,,5,2.964,,,,,,,,,,,,,,0,17,17,74,1,,,,,,,,,,,,,,,,,,,,space,0.649,,,,,,,,,,,,,,,,,,,,,,,,,,,,,,,,,,,,,,,,,,,,,,,,,,,,,,,,,,,,
,,,,299875,001,2023-09-28_16h44.58.756,fluency,2022.2.5,MacIntel,58.82352941,,,,,,,,,,,,,,,,,,,,,,,5,7,img/B07_05.jpg,BLEND,Press J if the face is a BLEND and K if the face is a NON-BLEND,A blend is a computer-generated image created by combining together multiple photos of real human faces. A non-blend is a regular photo of a human face.,JK,,,,,,,,,,,,,,,,,,,,,,,,,,,,,,,,,,,,,,,,,,,,,,324.787,0,18,18,71,1,109,0,0,0,0,1,98,,,,,,,,,,,,,,,,,,,,,,,,,,,,,,,,,,,,,,,,,,,,,,,,,,,,,,,,,,,,,,,,,,,,,,,,,,
,,,,299875,001,2023-09-28_16h44.58.756,fluency,2022.2.5,MacIntel,58.82352941,,,,,,,,,,,,,,,,,,,,,,,,,,,,,,,,,,,,,,,,,,,,,,,,,,,,,,,,,,,,,,,,,,,,,,,,,,,,,,,,,,0,0,0,0,1,,"[""j""]",3,"[""j""]",,,,,,,,[0.9010000000000105],[0.9010000000000105],,,,,,,,,,,,,,,,,,,,,,,,,,,,,,,,,,,,,,,,,,,,,,,,,,,,,,,,,,,,,,
,,,,299875,001,2023-09-28_16h44.58.756,fluency,2022.2.5,MacIntel,58.82352941,,,,,,,,,,,,,,,,,,,,,,,5,7,img/B07_05.jpg,BLEND,Press J if the face is a BLEND and K if the face is a NON-BLEND,A blend is a computer-generated image created by combining together multiple photos of real human faces. A non-blend is a regular photo of a human face.,JK,,,,,,,,,,,,,,,,,,,,,,,,,,,,,,,,5,0.004,,,,,,,,,,,,,,0,18,18,71,1,,,,,,,,,,,,,,,,,,,,space,1.251,,,,,,,,,,,,,,,,,,,,,,,,,,,,,,,,,,,,,,,,,,,,,,,,,,,,,,,,,,,,
,,,,299875,001,2023-09-28_16h44.58.756,fluency,2022.2.5,MacIntel,58.82352941,,,,,,,,,,,,,,,,,,,,,,,5,1,img/B01_05.jpg,BLEND,Press J if the face is a BLEND and K if the face is a NON-BLEND,A blend is a computer-generated image created by combining together multiple photos of real human faces. A non-blend is a regular photo of a human face.,JK,,,,,,,,,,,,,,,,,,,,,,,,,,,,,,,,,,,,,,,,,,,,,,331.12,0,19,19,5,1,109,0,0,0,0,1,98,,,,,,,,,,,,,,,,,,,,,,,,,,,,,,,,,,,,,,,,,,,,,,,,,,,,,,,,,,,,,,,,,,,,,,,,,,
,,,,299875,001,2023-09-28_16h44.58.756,fluency,2022.2.5,MacIntel,58.82352941,,,,,,,,,,,,,,,,,,,,,,,,,,,,,,,,,,,,,,,,,,,,,,,,,,,,,,,,,,,,,,,,,,,,,,,,,,,,,,,,,,0,0,0,0,1,,"[""j""]",3,"[""j""]",,,,,,,,[0.896000000000015],[0.896000000000015],,,,,,,,,,,,,,,,,,,,,,,,,,,,,,,,,,,,,,,,,,,,,,,,,,,,,,,,,,,,,,
,,,,299875,001,2023-09-28_16h44.58.756,fluency,2022.2.5,MacIntel,58.82352941,,,,,,,,,,,,,,,,,,,,,,,5,1,img/B01_05.jpg,BLEND,Press J if the face is a BLEND and K if the face is a NON-BLEND,A blend is a computer-generated image created by combining together multiple photos of real human faces. A non-blend is a regular photo of a human face.,JK,,,,,,,,,,,,,,,,,,,,,,,,,,,,,,,,4,1.185,,,,,,,,,,,,,,0,19,19,5,1,,,,,,,,,,,,,,,,,,,,space,1.862,,,,,,,,,,,,,,,,,,,,,,,,,,,,,,,,,,,,,,,,,,,,,,,,,,,,,,,,,,,,
,,,,299875,001,2023-09-28_16h44.58.756,fluency,2022.2.5,MacIntel,58.82352941,,,,,,,,,,,,,,,,,,,,,,,10,7,img/B07_10.jpg,BLEND,Press J if the face is a BLEND and K if the face is a NON-BLEND,A blend is a computer-generated image created by combining together multiple photos of real human faces. A non-blend is a regular photo of a human face.,JK,,,,,,,,,,,,,,,,,,,,,,,,,,,,,,,,,,,,,,,,,,,,,,338.22,0,20,20,76,1,109,0,0,0,0,1,98,,,,,,,,,,,,,,,,,,,,,,,,,,,,,,,,,,,,,,,,,,,,,,,,,,,,,,,,,,,,,,,,,,,,,,,,,,
,,,,299875,001,2023-09-28_16h44.58.756,fluency,2022.2.5,MacIntel,58.82352941,,,,,,,,,,,,,,,,,,,,,,,,,,,,,,,,,,,,,,,,,,,,,,,,,,,,,,,,,,,,,,,,,,,,,,,,,,,,,,,,,,0,0,0,0,1,,"[""k""]",3,"[""k""]",,,,,,,,[2.144999999999982],[2.144999999999982],,,,,,,,,,,,,,,,,,,,,,,,,,,,,,,,,,,,,,,,,,,,,,,,,,,,,,,,,,,,,,
,,,,299875,001,2023-09-28_16h44.58.756,fluency,2022.2.5,MacIntel,58.82352941,,,,,,,,,,,,,,,,,,,,,,,10,7,img/B07_10.jpg,BLEND,Press J if the face is a BLEND and K if the face is a NON-BLEND,A blend is a computer-generated image created by combining together multiple photos of real human faces. A non-blend is a regular photo of a human face.,JK,,,,,,,,,,,,,,,,,,,,,,,,,,,,,,,,6,1.766,,,,,,,,,,,,,,0,20,20,76,1,,,,,,,,,,,,,,,,,,,,space,1.766,,,,,,,,,,,,,,,,,,,,,,,,,,,,,,,,,,,,,,,,,,,,,,,,,,,,,,,,,,,,
,,,,299875,001,2023-09-28_16h44.58.756,fluency,2022.2.5,MacIntel,58.82352941,,,,,,,,,,,,,,,,,,,,,,,9,9,img/B09_09.jpg,BLEND,Press J if the face is a BLEND and K if the face is a NON-BLEND,A blend is a computer-generated image created by combining together multiple photos of real human faces. A non-blend is a regular photo of a human face.,JK,,,,,,,,,,,,,,,,,,,,,,,,,,,,,,,,,,,,,,,,,,,,,,346.82,0,21,21,97,1,109,0,0,0,0,1,98,,,,,,,,,,,,,,,,,,,,,,,,,,,,,,,,,,,,,,,,,,,,,,,,,,,,,,,,,,,,,,,,,,,,,,,,,,
,,,,299875,001,2023-09-28_16h44.58.756,fluency,2022.2.5,MacIntel,58.82352941,,,,,,,,,,,,,,,,,,,,,,,,,,,,,,,,,,,,,,,,,,,,,,,,,,,,,,,,,,,,,,,,,,,,,,,,,,,,,,,,,,0,0,0,0,1,,"[""k""]",3,"[""k""]",,,,,,,,[1.600999999999999],[1.600999999999999],,,,,,,,,,,,,,,,,,,,,,,,,,,,,,,,,,,,,,,,,,,,,,,,,,,,,,,,,,,,,,
,,,,299875,001,2023-09-28_16h44.58.756,fluency,2022.2.5,MacIntel,58.82352941,,,,,,,,,,,,,,,,,,,,,,,9,9,img/B09_09.jpg,BLEND,Press J if the face is a BLEND and K if the face is a NON-BLEND,A blend is a computer-generated image created by combining together multiple photos of real human faces. A non-blend is a regular photo of a human face.,JK,,,,,,,,,,,,,,,,,,,,,,,,,,,,,,,,6,1.326,,,,,,,,,,,,,,0,21,21,97,1,,,,,,,,,,,,,,,,,,,,space,0.75,,,,,,,,,,,,,,,,,,,,,,,,,,,,,,,,,,,,,,,,,,,,,,,,,,,,,,,,,,,,
,,,,299875,001,2023-09-28_16h44.58.756,fluency,2022.2.5,MacIntel,58.82352941,,,,,,,,,,,,,,,,,,,,,,,10,5,img/B05_10.jpg,BLEND,Press J if the face is a BLEND and K if the face is a NON-BLEND,A blend is a computer-generated image created by combining together multiple photos of real human faces. A non-blend is a regular photo of a human face.,JK,,,,,,,,,,,,,,,,,,,,,,,,,,,,,,,,,,,,,,,,,,,,,,352.97,0,22,22,54,1,109,0,0,0,0,1,98,,,,,,,,,,,,,,,,,,,,,,,,,,,,,,,,,,,,,,,,,,,,,,,,,,,,,,,,,,,,,,,,,,,,,,,,,,
,,,,299875,001,2023-09-28_16h44.58.756,fluency,2022.2.5,MacIntel,58.82352941,,,,,,,,,,,,,,,,,,,,,,,,,,,,,,,,,,,,,,,,,,,,,,,,,,,,,,,,,,,,,,,,,,,,,,,,,,,,,,,,,,0,0,0,0,1,,"[""k""]",3,"[""k""]",,,,,,,,[1.5389999999999873],[1.5389999999999873],,,,,,,,,,,,,,,,,,,,,,,,,,,,,,,,,,,,,,,,,,,,,,,,,,,,,,,,,,,,,,
,,,,299875,001,2023-09-28_16h44.58.756,fluency,2022.2.5,MacIntel,58.82352941,,,,,,,,,,,,,,,,,,,,,,,10,5,img/B05_10.jpg,BLEND,Press J if the face is a BLEND and K if the face is a NON-BLEND,A blend is a computer-generated image created by combining together multiple photos of real human faces. A non-blend is a regular photo of a human face.,JK,,,,,,,,,,,,,,,,,,,,,,,,,,,,,,,,6,1.21,,,,,,,,,,,,,,0,22,22,54,1,,,,,,,,,,,,,,,,,,,,space,1.301,,,,,,,,,,,,,,,,,,,,,,,,,,,,,,,,,,,,,,,,,,,,,,,,,,,,,,,,,,,,
,,,,299875,001,2023-09-28_16h44.58.756,fluency,2022.2.5,MacIntel,58.82352941,,,,,,,,,,,,,,,,,,,,,,,6,2,img/B02_06.jpg,BLEND,Press J if the face is a BLEND and K if the face is a NON-BLEND,A blend is a computer-generated image created by combining together multiple photos of real human faces. A non-blend is a regular photo of a human face.,JK,,,,,,,,,,,,,,,,,,,,,,,,,,,,,,,,,,,,,,,,,,,,,,360.537,0,23,23,17,1,109,0,0,0,0,1,98,,,,,,,,,,,,,,,,,,,,,,,,,,,,,,,,,,,,,,,,,,,,,,,,,,,,,,,,,,,,,,,,,,,,,,,,,,
,,,,299875,001,2023-09-28_16h44.58.756,fluency,2022.2.5,MacIntel,58.82352941,,,,,,,,,,,,,,,,,,,,,,,,,,,,,,,,,,,,,,,,,,,,,,,,,,,,,,,,,,,,,,,,,,,,,,,,,,,,,,,,,,0,0,0,0,1,,"[""j""]",3,"[""j""]",,,,,,,,[1.6759999999999877],[1.6759999999999877],,,,,,,,,,,,,,,,,,,,,,,,,,,,,,,,,,,,,,,,,,,,,,,,,,,,,,,,,,,,,,
,,,,299875,001,2023-09-28_16h44.58.756,fluency,2022.2.5,MacIntel,58.82352941,,,,,,,,,,,,,,,,,,,,,,,6,2,img/B02_06.jpg,BLEND,Press J if the face is a BLEND and K if the face is a NON-BLEND,A blend is a computer-generated image created by combining together multiple photos of real human faces. A non-blend is a regular photo of a human face.,JK,,,,,,,,,,,,,,,,,,,,,,,,,,,,,,,,5,1.467,,,,,,,,,,,,,,0,23,23,17,1,,,,,,,,,,,,,,,,,,,,space,0.803,,,,,,,,,,,,,,,,,,,,,,,,,,,,,,,,,,,,,,,,,,,,,,,,,,,,,,,,,,,,
,,,,299875,001,2023-09-28_16h44.58.756,fluency,2022.2.5,MacIntel,58.82352941,,,,,,,,,,,,,,,,,,,,,,,5,10,img/B10_05.jpg,BLEND,Press J if the face is a BLEND and K if the face is a NON-BLEND,A blend is a computer-generated image created by combining together multiple photos of real human faces. A non-blend is a regular photo of a human face.,JK,,,,,,,,,,,,,,,,,,,,,,,,,,,,,,,,,,,,,,,,,,,,,,367.87,0,24,24,104,1,109,0,0,0,0,1,98,,,,,,,,,,,,,,,,,,,,,,,,,,,,,,,,,,,,,,,,,,,,,,,,,,,,,,,,,,,,,,,,,,,,,,,,,,
,,,,299875,001,2023-09-28_16h44.58.756,fluency,2022.2.5,MacIntel,58.82352941,,,,,,,,,,,,,,,,,,,,,,,,,,,,,,,,,,,,,,,,,,,,,,,,,,,,,,,,,,,,,,,,,,,,,,,,,,,,,,,,,,0,0,0,0,1,,"[""j""]",3,"[""j""]",,,,,,,,[1.2350000000000136],[1.2350000000000136],,,,,,,,,,,,,,,,,,,,,,,,,,,,,,,,,,,,,,,,,,,,,,,,,,,,,,,,,,,,,,
,,,,299875,001,2023-09-28_16h44.58.756,fluency,2022.2.5,MacIntel,58.82352941,,,,,,,,,,,,,,,,,,,,,,,5,10,img/B10_05.jpg,BLEND,Press J if the face is a BLEND and K if the face is a NON-BLEND,A blend is a computer-generated image created by combining together multiple photos of real human faces. A non-blend is a regular photo of a human face.,JK,,,,,,,,,,,,,,,,,,,,,,,,,,,,,,,,5,1.131,,,,,,,,,,,,,,0,24,24,104,1,,,,,,,,,,,,,,,,,,,,space,0.606,,,,,,,,,,,,,,,,,,,,,,,,,,,,,,,,,,,,,,,,,,,,,,,,,,,,,,,,,,,,
,,,,299875,001,2023-09-28_16h44.58.756,fluency,2022.2.5,MacIntel,58.82352941,,,,,,,,,,,,,,,,,,,,,,,2,10,img/B10_02.jpg,BLEND,Press J if the face is a BLEND and K if the face is a NON-BLEND,A blend is a computer-generated image created by combining together multiple photos of real human faces. A non-blend is a regular photo of a human face.,JK,,,,,,,,,,,,,,,,,,,,,,,,,,,,,,,,,,,,,,,,,,,,,,374.67,0,25,25,101,1,109,0,0,0,0,1,98,,,,,,,,,,,,,,,,,,,,,,,,,,,,,,,,,,,,,,,,,,,,,,,,,,,,,,,,,,,,,,,,,,,,,,,,,,
,,,,299875,001,2023-09-28_16h44.58.756,fluency,2022.2.5,MacIntel,58.82352941,,,,,,,,,,,,,,,,,,,,,,,,,,,,,,,,,,,,,,,,,,,,,,,,,,,,,,,,,,,,,,,,,,,,,,,,,,,,,,,,,,0,0,0,0,1,,"[""j""]",3,"[""j""]",,,,,,,,[0.8330000000000268],[0.8330000000000268],,,,,,,,,,,,,,,,,,,,,,,,,,,,,,,,,,,,,,,,,,,,,,,,,,,,,,,,,,,,,,
,,,,299875,001,2023-09-28_16h44.58.756,fluency,2022.2.5,MacIntel,58.82352941,,,,,,,,,,,,,,,,,,,,,,,2,10,img/B10_02.jpg,BLEND,Press J if the face is a BLEND and K if the face is a NON-BLEND,A blend is a computer-generated image created by combining together multiple photos of real human faces. A non-blend is a regular photo of a human face.,JK,,,,,,,,,,,,,,,,,,,,,,,,,,,,,,,,5,2.012,,,,,,,,,,,,,,0,25,25,101,1,,,,,,,,,,,,,,,,,,,,space,1.069,,,,,,,,,,,,,,,,,,,,,,,,,,,,,,,,,,,,,,,,,,,,,,,,,,,,,,,,,,,,
,,,,299875,001,2023-09-28_16h44.58.756,fluency,2022.2.5,MacIntel,58.82352941,,,,,,,,,,,,,,,,,,,,,,,2,5,img/B05_02.jpg,BLEND,Press J if the face is a BLEND and K if the face is a NON-BLEND,A blend is a computer-generated image created by combining together multiple photos of real human faces. A non-blend is a regular photo of a human face.,JK,,,,,,,,,,,,,,,,,,,,,,,,,,,,,,,,,,,,,,,,,,,,,,382.82,0,26,26,46,1,109,0,0,0,0,1,98,,,,,,,,,,,,,,,,,,,,,,,,,,,,,,,,,,,,,,,,,,,,,,,,,,,,,,,,,,,,,,,,,,,,,,,,,,
,,,,299875,001,2023-09-28_16h44.58.756,fluency,2022.2.5,MacIntel,58.82352941,,,,,,,,,,,,,,,,,,,,,,,,,,,,,,,,,,,,,,,,,,,,,,,,,,,,,,,,,,,,,,,,,,,,,,,,,,,,,,,,,,0,0,0,0,1,,"[""j""]",3,"[""j""]",,,,,,,,[0.9149999999999636],[0.9149999999999636],,,,,,,,,,,,,,,,,,,,,,,,,,,,,,,,,,,,,,,,,,,,,,,,,,,,,,,,,,,,,,
,,,,299875,001,2023-09-28_16h44.58.756,fluency,2022.2.5,MacIntel,58.82352941,,,,,,,,,,,,,,,,,,,,,,,2,5,img/B05_02.jpg,BLEND,Press J if the face is a BLEND and K if the face is a NON-BLEND,A blend is a computer-generated image created by combining together multiple photos of real human faces. A non-blend is a regular photo of a human face.,JK,,,,,,,,,,,,,,,,,,,,,,,,,,,,,,,,4,0.898,,,,,,,,,,,,,,0,26,26,46,1,,,,,,,,,,,,,,,,,,,,space,1.153,,,,,,,,,,,,,,,,,,,,,,,,,,,,,,,,,,,,,,,,,,,,,,,,,,,,,,,,,,,,
,,,,299875,001,2023-09-28_16h44.58.756,fluency,2022.2.5,MacIntel,58.82352941,,,,,,,,,,,,,,,,,,,,,,,5,4,img/B04_05.jpg,BLEND,Press J if the face is a BLEND and K if the face is a NON-BLEND,A blend is a computer-generated image created by combining together multiple photos of real human faces. A non-blend is a regular photo of a human face.,JK,,,,,,,,,,,,,,,,,,,,,,,,,,,,,,,,,,,,,,,,,,,,,,388.936,0,27,27,38,1,109,0,0,0,0,1,98,,,,,,,,,,,,,,,,,,,,,,,,,,,,,,,,,,,,,,,,,,,,,,,,,,,,,,,,,,,,,,,,,,,,,,,,,,
,,,,299875,001,2023-09-28_16h44.58.756,fluency,2022.2.5,MacIntel,58.82352941,,,,,,,,,,,,,,,,,,,,,,,,,,,,,,,,,,,,,,,,,,,,,,,,,,,,,,,,,,,,,,,,,,,,,,,,,,,,,,,,,,0,0,0,0,1,,"[""j""]",3,"[""j""]",,,,,,,,[0.867999999999995],[0.867999999999995],,,,,,,,,,,,,,,,,,,,,,,,,,,,,,,,,,,,,,,,,,,,,,,,,,,,,,,,,,,,,,
,,,,299875,001,2023-09-28_16h44.58.756,fluency,2022.2.5,MacIntel,58.82352941,,,,,,,,,,,,,,,,,,,,,,,5,4,img/B04_05.jpg,BLEND,Press J if the face is a BLEND and K if the face is a NON-BLEND,A blend is a computer-generated image created by combining together multiple photos of real human faces. A non-blend is a regular photo of a human face.,JK,,,,,,,,,,,,,,,,,,,,,,,,,,,,,,,,6,1.156,,,,,,,,,,,,,,0,27,27,38,1,,,,,,,,,,,,,,,,,,,,space,0.901,,,,,,,,,,,,,,,,,,,,,,,,,,,,,,,,,,,,,,,,,,,,,,,,,,,,,,,,,,,,
,,,,299875,001,2023-09-28_16h44.58.756,fluency,2022.2.5,MacIntel,58.82352941,,,,,,,,,,,,,,,,,,,,,,,7,8,img/B08_07.jpg,BLEND,Press J if the face is a BLEND and K if the face is a NON-BLEND,A blend is a computer-generated image created by combining together multiple photos of real human faces. A non-blend is a regular photo of a human face.,JK,,,,,,,,,,,,,,,,,,,,,,,,,,,,,,,,,,,,,,,,,,,,,,396.054,0,28,28,84,1,109,0,0,0,0,1,98,,,,,,,,,,,,,,,,,,,,,,,,,,,,,,,,,,,,,,,,,,,,,,,,,,,,,,,,,,,,,,,,,,,,,,,,,,
,,,,299875,001,2023-09-28_16h44.58.756,fluency,2022.2.5,MacIntel,58.82352941,,,,,,,,,,,,,,,,,,,,,,,,,,,,,,,,,,,,,,,,,,,,,,,,,,,,,,,,,,,,,,,,,,,,,,,,,,,,,,,,,,0,0,0,0,1,,"[""j""]",3,"[""j""]",,,,,,,,[0.7439999999999714],[0.7439999999999714],,,,,,,,,,,,,,,,,,,,,,,,,,,,,,,,,,,,,,,,,,,,,,,,,,,,,,,,,,,,,,
,,,,299875,001,2023-09-28_16h44.58.756,fluency,2022.2.5,MacIntel,58.82352941,,,,,,,,,,,,,,,,,,,,,,,7,8,img/B08_07.jpg,BLEND,Press J if the face is a BLEND and K if the face is a NON-BLEND,A blend is a computer-generated image created by combining together multiple photos of real human faces. A non-blend is a regular photo of a human face.,JK,,,,,,,,,,,,,,,,,,,,,,,,,,,,,,,,4,0.481,,,,,,,,,,,,,,0,28,28,84,1,,,,,,,,,,,,,,,,,,,,space,0.542,,,,,,,,,,,,,,,,,,,,,,,,,,,,,,,,,,,,,,,,,,,,,,,,,,,,,,,,,,,,
,,,,299875,001,2023-09-28_16h44.58.756,fluency,2022.2.5,MacIntel,58.82352941,,,,,,,,,,,,,,,,,,,,,,,4,3,img/B03_04.jpg,BLEND,Press J if the face is a BLEND and K if the face is a NON-BLEND,A blend is a computer-generated image created by combining together multiple photos of real human faces. A non-blend is a regular photo of a human face.,JK,,,,,,,,,,,,,,,,,,,,,,,,,,,,,,,,,,,,,,,,,,,,,,402.137,0,29,29,26,1,109,0,0,0,0,1,98,,,,,,,,,,,,,,,,,,,,,,,,,,,,,,,,,,,,,,,,,,,,,,,,,,,,,,,,,,,,,,,,,,,,,,,,,,
,,,,299875,001,2023-09-28_16h44.58.756,fluency,2022.2.5,MacIntel,58.82352941,,,,,,,,,,,,,,,,,,,,,,,,,,,,,,,,,,,,,,,,,,,,,,,,,,,,,,,,,,,,,,,,,,,,,,,,,,,,,,,,,,0,0,0,0,1,,"[""j""]",3,"[""j""]",,,,,,,,[0.7740000000000009],[0.7740000000000009],,,,,,,,,,,,,,,,,,,,,,,,,,,,,,,,,,,,,,,,,,,,,,,,,,,,,,,,,,,,,,
,,,,299875,001,2023-09-28_16h44.58.756,fluency,2022.2.5,MacIntel,58.82352941,,,,,,,,,,,,,,,,,,,,,,,4,3,img/B03_04.jpg,BLEND,Press J if the face is a BLEND and K if the face is a NON-BLEND,A blend is a computer-generated image created by combining together multiple photos of real human faces. A non-blend is a regular photo of a human face.,JK,,,,,,,,,,,,,,,,,,,,,,,,,,,,,,,,4,1.227,,,,,,,,,,,,,,0,29,29,26,1,,,,,,,,,,,,,,,,,,,,space,0.671,,,,,,,,,,,,,,,,,,,,,,,,,,,,,,,,,,,,,,,,,,,,,,,,,,,,,,,,,,,,
,,,,299875,001,2023-09-28_16h44.58.756,fluency,2022.2.5,MacIntel,58.82352941,,,,,,,,,,,,,,,,,,,,,,,9,5,img/B05_09.jpg,BLEND,Press J if the face is a BLEND and K if the face is a NON-BLEND,A blend is a computer-generated image created by combining together multiple photos of real human faces. A non-blend is a regular photo of a human face.,JK,,,,,,,,,,,,,,,,,,,,,,,,,,,,,,,,,,,,,,,,,,,,,,409.086,0,30,30,53,1,109,0,0,0,0,1,98,,,,,,,,,,,,,,,,,,,,,,,,,,,,,,,,,,,,,,,,,,,,,,,,,,,,,,,,,,,,,,,,,,,,,,,,,,
,,,,299875,001,2023-09-28_16h44.58.756,fluency,2022.2.5,MacIntel,58.82352941,,,,,,,,,,,,,,,,,,,,,,,,,,,,,,,,,,,,,,,,,,,,,,,,,,,,,,,,,,,,,,,,,,,,,,,,,,,,,,,,,,0,0,0,0,1,,"[""k""]",3,"[""k""]",,,,,,,,[0.8689999999999714],[0.8689999999999714],,,,,,,,,,,,,,,,,,,,,,,,,,,,,,,,,,,,,,,,,,,,,,,,,,,,,,,,,,,,,,
,,,,299875,001,2023-09-28_16h44.58.756,fluency,2022.2.5,MacIntel,58.82352941,,,,,,,,,,,,,,,,,,,,,,,9,5,img/B05_09.jpg,BLEND,Press J if the face is a BLEND and K if the face is a NON-BLEND,A blend is a computer-generated image created by combining together multiple photos of real human faces. A non-blend is a regular photo of a human face.,JK,,,,,,,,,,,,,,,,,,,,,,,,,,,,,,,,6,0.836,,,,,,,,,,,,,,0,30,30,53,1,,,,,,,,,,,,,,,,,,,,space,0.575,,,,,,,,,,,,,,,,,,,,,,,,,,,,,,,,,,,,,,,,,,,,,,,,,,,,,,,,,,,,
,,,,299875,001,2023-09-28_16h44.58.756,fluency,2022.2.5,MacIntel,58.82352941,,,,,,,,,,,,,,,,,,,,,,,7,10,img/B10_07.jpg,BLEND,Press J if the face is a BLEND and K if the face is a NON-BLEND,A blend is a computer-generated image created by combining together multiple photos of real human faces. A non-blend is a regular photo of a human face.,JK,,,,,,,,,,,,,,,,,,,,,,,,,,,,,,,,,,,,,,,,,,,,,,414.554,0,31,31,106,1,109,0,0,0,0,1,98,,,,,,,,,,,,,,,,,,,,,,,,,,,,,,,,,,,,,,,,,,,,,,,,,,,,,,,,,,,,,,,,,,,,,,,,,,
,,,,299875,001,2023-09-28_16h44.58.756,fluency,2022.2.5,MacIntel,58.82352941,,,,,,,,,,,,,,,,,,,,,,,,,,,,,,,,,,,,,,,,,,,,,,,,,,,,,,,,,,,,,,,,,,,,,,,,,,,,,,,,,,0,0,0,0,1,,"[""j""]",3,"[""j""]",,,,,,,,[1.0109999999999673],[1.0109999999999673],,,,,,,,,,,,,,,,,,,,,,,,,,,,,,,,,,,,,,,,,,,,,,,,,,,,,,,,,,,,,,
,,,,299875,001,2023-09-28_16h44.58.756,fluency,2022.2.5,MacIntel,58.82352941,,,,,,,,,,,,,,,,,,,,,,,7,10,img/B10_07.jpg,BLEND,Press J if the face is a BLEND and K if the face is a NON-BLEND,A blend is a computer-generated image created by combining together multiple photos of real human faces. A non-blend is a regular photo of a human face.,JK,,,,,,,,,,,,,,,,,,,,,,,,,,,,,,,,5,0.975,,,,,,,,,,,,,,0,31,31,106,1,,,,,,,,,,,,,,,,,,,,space,0.634,,,,,,,,,,,,,,,,,,,,,,,,,,,,,,,,,,,,,,,,,,,,,,,,,,,,,,,,,,,,
,,,,299875,001,2023-09-28_16h44.58.756,fluency,2022.2.5,MacIntel,58.82352941,,,,,,,,,,,,,,,,,,,,,,,4,2,img/B02_04.jpg,BLEND,Press J if the face is a BLEND and K if the face is a NON-BLEND,A blend is a computer-generated image created by combining together multiple photos of real human faces. A non-blend is a regular photo of a human face.,JK,,,,,,,,,,,,,,,,,,,,,,,,,,,,,,,,,,,,,,,,,,,,,,421.22,0,32,32,15,1,109,0,0,0,0,1,98,,,,,,,,,,,,,,,,,,,,,,,,,,,,,,,,,,,,,,,,,,,,,,,,,,,,,,,,,,,,,,,,,,,,,,,,,,
,,,,299875,001,2023-09-28_16h44.58.756,fluency,2022.2.5,MacIntel,58.82352941,,,,,,,,,,,,,,,,,,,,,,,,,,,,,,,,,,,,,,,,,,,,,,,,,,,,,,,,,,,,,,,,,,,,,,,,,,,,,,,,,,0,0,0,0,1,,"[""j""]",3,"[""j""]",,,,,,,,[0.6649999999999636],[0.6649999999999636],,,,,,,,,,,,,,,,,,,,,,,,,,,,,,,,,,,,,,,,,,,,,,,,,,,,,,,,,,,,,,
,,,,299875,001,2023-09-28_16h44.58.756,fluency,2022.2.5,MacIntel,58.82352941,,,,,,,,,,,,,,,,,,,,,,,4,2,img/B02_04.jpg,BLEND,Press J if the face is a BLEND and K if the face is a NON-BLEND,A blend is a computer-generated image created by combining together multiple photos of real human faces. A non-blend is a regular photo of a human face.,JK,,,,,,,,,,,,,,,,,,,,,,,,,,,,,,,,5,0.915,,,,,,,,,,,,,,0,32,32,15,1,,,,,,,,,,,,,,,,,,,,space,0.687,,,,,,,,,,,,,,,,,,,,,,,,,,,,,,,,,,,,,,,,,,,,,,,,,,,,,,,,,,,,
,,,,299875,001,2023-09-28_16h44.58.756,fluency,2022.2.5,MacIntel,58.82352941,,,,,,,,,,,,,,,,,,,,,,,3,6,img/B06_03.jpg,BLEND,Press J if the face is a BLEND and K if the face is a NON-BLEND,A blend is a computer-generated image created by combining together multiple photos of real human faces. A non-blend is a regular photo of a human face.,JK,,,,,,,,,,,,,,,,,,,,,,,,,,,,,,,,,,,,,,,,,,,,,,426.887,0,33,33,58,1,109,0,0,0,0,1,98,,,,,,,,,,,,,,,,,,,,,,,,,,,,,,,,,,,,,,,,,,,,,,,,,,,,,,,,,,,,,,,,,,,,,,,,,,
,,,,299875,001,2023-09-28_16h44.58.756,fluency,2022.2.5,MacIntel,58.82352941,,,,,,,,,,,,,,,,,,,,,,,,,,,,,,,,,,,,,,,,,,,,,,,,,,,,,,,,,,,,,,,,,,,,,,,,,,,,,,,,,,0,0,0,0,1,,"[""j""]",3,"[""j""]",,,,,,,,[1.100999999999999],[1.100999999999999],,,,,,,,,,,,,,,,,,,,,,,,,,,,,,,,,,,,,,,,,,,,,,,,,,,,,,,,,,,,,,
,,,,299875,001,2023-09-28_16h44.58.756,fluency,2022.2.5,MacIntel,58.82352941,,,,,,,,,,,,,,,,,,,,,,,3,6,img/B06_03.jpg,BLEND,Press J if the face is a BLEND and K if the face is a NON-BLEND,A blend is a computer-generated image created by combining together multiple photos of real human faces. A non-blend is a regular photo of a human face.,JK,,,,,,,,,,,,,,,,,,,,,,,,,,,,,,,,4,0.764,,,,,,,,,,,,,,0,33,33,58,1,,,,,,,,,,,,,,,,,,,,space,2.283,,,,,,,,,,,,,,,,,,,,,,,,,,,,,,,,,,,,,,,,,,,,,,,,,,,,,,,,,,,,
,,,,299875,001,2023-09-28_16h44.58.756,fluency,2022.2.5,MacIntel,58.82352941,,,,,,,,,,,,,,,,,,,,,,,9,6,img/B06_09.jpg,BLEND,Press J if the face is a BLEND and K if the face is a NON-BLEND,A blend is a computer-generated image created by combining together multiple photos of real human faces. A non-blend is a regular photo of a human face.,JK,,,,,,,,,,,,,,,,,,,,,,,,,,,,,,,,,,,,,,,,,,,,,,434.003,0,34,34,64,1,109,0,0,0,0,1,98,,,,,,,,,,,,,,,,,,,,,,,,,,,,,,,,,,,,,,,,,,,,,,,,,,,,,,,,,,,,,,,,,,,,,,,,,,
,,,,299875,001,2023-09-28_16h44.58.756,fluency,2022.2.5,MacIntel,58.82352941,,,,,,,,,,,,,,,,,,,,,,,,,,,,,,,,,,,,,,,,,,,,,,,,,,,,,,,,,,,,,,,,,,,,,,,,,,,,,,,,,,0,0,0,0,1,,"[""j""]",3,"[""j""]",,,,,,,,[0.7719999999999914],[0.7719999999999914],,,,,,,,,,,,,,,,,,,,,,,,,,,,,,,,,,,,,,,,,,,,,,,,,,,,,,,,,,,,,,
,,,,299875,001,2023-09-28_16h44.58.756,fluency,2022.2.5,MacIntel,58.82352941,,,,,,,,,,,,,,,,,,,,,,,9,6,img/B06_09.jpg,BLEND,Press J if the face is a BLEND and K if the face is a NON-BLEND,A blend is a computer-generated image created by combining together multiple photos of real human faces. A non-blend is a regular photo of a human face.,JK,,,,,,,,,,,,,,,,,,,,,,,,,,,,,,,,7,0.899,,,,,,,,,,,,,,0,34,34,64,1,,,,,,,,,,,,,,,,,,,,space,1.107,,,,,,,,,,,,,,,,,,,,,,,,,,,,,,,,,,,,,,,,,,,,,,,,,,,,,,,,,,,,
,,,,299875,001,2023-09-28_16h44.58.756,fluency,2022.2.5,MacIntel,58.82352941,,,,,,,,,,,,,,,,,,,,,,,7,2,img/B02_07.jpg,BLEND,Press J if the face is a BLEND and K if the face is a NON-BLEND,A blend is a computer-generated image created by combining together multiple photos of real human faces. A non-blend is a regular photo of a human face.,JK,,,,,,,,,,,,,,,,,,,,,,,,,,,,,,,,,,,,,,,,,,,,,,441.07,0,35,35,18,1,109,0,0,0,0,1,98,,,,,,,,,,,,,,,,,,,,,,,,,,,,,,,,,,,,,,,,,,,,,,,,,,,,,,,,,,,,,,,,,,,,,,,,,,
,,,,299875,001,2023-09-28_16h44.58.756,fluency,2022.2.5,MacIntel,58.82352941,,,,,,,,,,,,,,,,,,,,,,,,,,,,,,,,,,,,,,,,,,,,,,,,,,,,,,,,,,,,,,,,,,,,,,,,,,,,,,,,,,0,0,0,0,1,,"[""k""]",3,"[""k""]",,,,,,,,[2.1610000000000014],[2.1610000000000014],,,,,,,,,,,,,,,,,,,,,,,,,,,,,,,,,,,,,,,,,,,,,,,,,,,,,,,,,,,,,,
,,,,299875,001,2023-09-28_16h44.58.756,fluency,2022.2.5,MacIntel,58.82352941,,,,,,,,,,,,,,,,,,,,,,,7,2,img/B02_07.jpg,BLEND,Press J if the face is a BLEND and K if the face is a NON-BLEND,A blend is a computer-generated image created by combining together multiple photos of real human faces. A non-blend is a regular photo of a human face.,JK,,,,,,,,,,,,,,,,,,,,,,,,,,,,,,,,7,1.328,,,,,,,,,,,,,,0,35,35,18,1,,,,,,,,,,,,,,,,,,,,space,0.736,,,,,,,,,,,,,,,,,,,,,,,,,,,,,,,,,,,,,,,,,,,,,,,,,,,,,,,,,,,,
,,,,299875,001,2023-09-28_16h44.58.756,fluency,2022.2.5,MacIntel,58.82352941,,,,,,,,,,,,,,,,,,,,,,,9,10,img/B10_09.jpg,BLEND,Press J if the face is a BLEND and K if the face is a NON-BLEND,A blend is a computer-generated image created by combining together multiple photos of real human faces. A non-blend is a regular photo of a human face.,JK,,,,,,,,,,,,,,,,,,,,,,,,,,,,,,,,,,,,,,,,,,,,,,448.203,0,36,36,108,1,109,0,0,0,0,1,98,,,,,,,,,,,,,,,,,,,,,,,,,,,,,,,,,,,,,,,,,,,,,,,,,,,,,,,,,,,,,,,,,,,,,,,,,,
,,,,299875,001,2023-09-28_16h44.58.756,fluency,2022.2.5,MacIntel,58.82352941,,,,,,,,,,,,,,,,,,,,,,,,,,,,,,,,,,,,,,,,,,,,,,,,,,,,,,,,,,,,,,,,,,,,,,,,,,,,,,,,,,0,0,0,0,1,,"[""k""]",3,"[""k""]",,,,,,,,[1.636000000000024],[1.636000000000024],,,,,,,,,,,,,,,,,,,,,,,,,,,,,,,,,,,,,,,,,,,,,,,,,,,,,,,,,,,,,,
,,,,299875,001,2023-09-28_16h44.58.756,fluency,2022.2.5,MacIntel,58.82352941,,,,,,,,,,,,,,,,,,,,,,,9,10,img/B10_09.jpg,BLEND,Press J if the face is a BLEND and K if the face is a NON-BLEND,A blend is a computer-generated image created by combining together multiple photos of real human faces. A non-blend is a regular photo of a human face.,JK,,,,,,,,,,,,,,,,,,,,,,,,,,,,,,,,5,1.038,,,,,,,,,,,,,,0,36,36,108,1,,,,,,,,,,,,,,,,,,,,space,1.187,,,,,,,,,,,,,,,,,,,,,,,,,,,,,,,,,,,,,,,,,,,,,,,,,,,,,,,,,,,,
,,,,299875,001,2023-09-28_16h44.58.756,fluency,2022.2.5,MacIntel,58.82352941,,,,,,,,,,,,,,,,,,,,,,,1,3,img/B03_01.jpg,BLEND,Press J if the face is a BLEND and K if the face is a NON-BLEND,A blend is a computer-generated image created by combining together multiple photos of real human faces. A non-blend is a regular photo of a human face.,JK,,,,,,,,,,,,,,,,,,,,,,,,,,,,,,,,,,,,,,,,,,,,,,454.487,0,37,37,23,1,109,0,0,0,0,1,98,,,,,,,,,,,,,,,,,,,,,,,,,,,,,,,,,,,,,,,,,,,,,,,,,,,,,,,,,,,,,,,,,,,,,,,,,,
,,,,299875,001,2023-09-28_16h44.58.756,fluency,2022.2.5,MacIntel,58.82352941,,,,,,,,,,,,,,,,,,,,,,,,,,,,,,,,,,,,,,,,,,,,,,,,,,,,,,,,,,,,,,,,,,,,,,,,,,,,,,,,,,0,0,0,0,1,,"[""k""]",3,"[""k""]",,,,,,,,[1.4119999999999777],[1.4119999999999777],,,,,,,,,,,,,,,,,,,,,,,,,,,,,,,,,,,,,,,,,,,,,,,,,,,,,,,,,,,,,,
,,,,299875,001,2023-09-28_16h44.58.756,fluency,2022.2.5,MacIntel,58.82352941,,,,,,,,,,,,,,,,,,,,,,,1,3,img/B03_01.jpg,BLEND,Press J if the face is a BLEND and K if the face is a NON-BLEND,A blend is a computer-generated image created by combining together multiple photos of real human faces. A non-blend is a regular photo of a human face.,JK,,,,,,,,,,,,,,,,,,,,,,,,,,,,,,,,6,1.65,,,,,,,,,,,,,,0,37,37,23,1,,,,,,,,,,,,,,,,,,,,space,0.597,,,,,,,,,,,,,,,,,,,,,,,,,,,,,,,,,,,,,,,,,,,,,,,,,,,,,,,,,,,,
,,,,299875,001,2023-09-28_16h44.58.756,fluency,2022.2.5,MacIntel,58.82352941,,,,,,,,,,,,,,,,,,,,,,,4,1,img/B01_04.jpg,BLEND,Press J if the face is a BLEND and K if the face is a NON-BLEND,A blend is a computer-generated image created by combining together multiple photos of real human faces. A non-blend is a regular photo of a human face.,JK,,,,,,,,,,,,,,,,,,,,,,,,,,,,,,,,,,,,,,,,,,,,,,461.804,0,38,38,4,1,109,0,0,0,0,1,98,,,,,,,,,,,,,,,,,,,,,,,,,,,,,,,,,,,,,,,,,,,,,,,,,,,,,,,,,,,,,,,,,,,,,,,,,,
,,,,299875,001,2023-09-28_16h44.58.756,fluency,2022.2.5,MacIntel,58.82352941,,,,,,,,,,,,,,,,,,,,,,,,,,,,,,,,,,,,,,,,,,,,,,,,,,,,,,,,,,,,,,,,,,,,,,,,,,,,,,,,,,0,0,0,0,1,,"[""j""]",3,"[""j""]",,,,,,,,[0.6410000000000196],[0.6410000000000196],,,,,,,,,,,,,,,,,,,,,,,,,,,,,,,,,,,,,,,,,,,,,,,,,,,,,,,,,,,,,,
,,,,299875,001,2023-09-28_16h44.58.756,fluency,2022.2.5,MacIntel,58.82352941,,,,,,,,,,,,,,,,,,,,,,,4,1,img/B01_04.jpg,BLEND,Press J if the face is a BLEND and K if the face is a NON-BLEND,A blend is a computer-generated image created by combining together multiple photos of real human faces. A non-blend is a regular photo of a human face.,JK,,,,,,,,,,,,,,,,,,,,,,,,,,,,,,,,3,1.066,,,,,,,,,,,,,,0,38,38,4,1,,,,,,,,,,,,,,,,,,,,space,1.483,,,,,,,,,,,,,,,,,,,,,,,,,,,,,,,,,,,,,,,,,,,,,,,,,,,,,,,,,,,,
,,,,299875,001,2023-09-28_16h44.58.756,fluency,2022.2.5,MacIntel,58.82352941,,,,,,,,,,,,,,,,,,,,,,,4,7,img/B07_04.jpg,BLEND,Press J if the face is a BLEND and K if the face is a NON-BLEND,A blend is a computer-generated image created by combining together multiple photos of real human faces. A non-blend is a regular photo of a human face.,JK,,,,,,,,,,,,,,,,,,,,,,,,,,,,,,,,,,,,,,,,,,,,,,468.42,0,39,39,70,1,109,0,0,0,0,1,98,,,,,,,,,,,,,,,,,,,,,,,,,,,,,,,,,,,,,,,,,,,,,,,,,,,,,,,,,,,,,,,,,,,,,,,,,,
,,,,299875,001,2023-09-28_16h44.58.756,fluency,2022.2.5,MacIntel,58.82352941,,,,,,,,,,,,,,,,,,,,,,,,,,,,,,,,,,,,,,,,,,,,,,,,,,,,,,,,,,,,,,,,,,,,,,,,,,,,,,,,,,0,0,0,0,1,,"[""j""]",3,"[""j""]",,,,,,,,[1.032000000000039],[1.032000000000039],,,,,,,,,,,,,,,,,,,,,,,,,,,,,,,,,,,,,,,,,,,,,,,,,,,,,,,,,,,,,,
,,,,299875,001,2023-09-28_16h44.58.756,fluency,2022.2.5,MacIntel,58.82352941,,,,,,,,,,,,,,,,,,,,,,,4,7,img/B07_04.jpg,BLEND,Press J if the face is a BLEND and K if the face is a NON-BLEND,A blend is a computer-generated image created by combining together multiple photos of real human faces. A non-blend is a regular photo of a human face.,JK,,,,,,,,,,,,,,,,,,,,,,,,,,,,,,,,3,0.914,,,,,,,,,,,,,,0,39,39,70,1,,,,,,,,,,,,,,,,,,,,space,0.685,,,,,,,,,,,,,,,,,,,,,,,,,,,,,,,,,,,,,,,,,,,,,,,,,,,,,,,,,,,,
,,,,299875,001,2023-09-28_16h44.58.756,fluency,2022.2.5,MacIntel,58.82352941,,,,,,,,,,,,,,,,,,,,,,,3,7,img/B07_03.jpg,BLEND,Press J if the face is a BLEND and K if the face is a NON-BLEND,A blend is a computer-generated image created by combining together multiple photos of real human faces. A non-blend is a regular photo of a human face.,JK,,,,,,,,,,,,,,,,,,,,,,,,,,,,,,,,,,,,,,,,,,,,,,475.086,0,40,40,69,1,109,0,0,0,0,1,98,,,,,,,,,,,,,,,,,,,,,,,,,,,,,,,,,,,,,,,,,,,,,,,,,,,,,,,,,,,,,,,,,,,,,,,,,,
,,,,299875,001,2023-09-28_16h44.58.756,fluency,2022.2.5,MacIntel,58.82352941,,,,,,,,,,,,,,,,,,,,,,,,,,,,,,,,,,,,,,,,,,,,,,,,,,,,,,,,,,,,,,,,,,,,,,,,,,,,,,,,,,0,0,0,0,1,,"[""k""]",3,"[""k""]",,,,,,,,[2.771000000000015],[2.769999999999982],,,,,,,,,,,,,,,,,,,,,,,,,,,,,,,,,,,,,,,,,,,,,,,,,,,,,,,,,,,,,,
,,,,299875,001,2023-09-28_16h44.58.756,fluency,2022.2.5,MacIntel,58.82352941,,,,,,,,,,,,,,,,,,,,,,,3,7,img/B07_03.jpg,BLEND,Press J if the face is a BLEND and K if the face is a NON-BLEND,A blend is a computer-generated image created by combining together multiple photos of real human faces. A non-blend is a regular photo of a human face.,JK,,,,,,,,,,,,,,,,,,,,,,,,,,,,,,,,6,1.344,,,,,,,,,,,,,,0,40,40,69,1,,,,,,,,,,,,,,,,,,,,space,1.1,,,,,,,,,,,,,,,,,,,,,,,,,,,,,,,,,,,,,,,,,,,,,,,,,,,,,,,,,,,,
,,,,299875,001,2023-09-28_16h44.58.756,fluency,2022.2.5,MacIntel,58.82352941,,,,,,,,,,,,,,,,,,,,,,,7,9,img/B09_07.jpg,BLEND,Press J if the face is a BLEND and K if the face is a NON-BLEND,A blend is a computer-generated image created by combining together multiple photos of real human faces. A non-blend is a regular photo of a human face.,JK,,,,,,,,,,,,,,,,,,,,,,,,,,,,,,,,,,,,,,,,,,,,,,482.604,0,41,41,95,1,109,0,0,0,0,1,98,,,,,,,,,,,,,,,,,,,,,,,,,,,,,,,,,,,,,,,,,,,,,,,,,,,,,,,,,,,,,,,,,,,,,,,,,,
,,,,299875,001,2023-09-28_16h44.58.756,fluency,2022.2.5,MacIntel,58.82352941,,,,,,,,,,,,,,,,,,,,,,,,,,,,,,,,,,,,,,,,,,,,,,,,,,,,,,,,,,,,,,,,,,,,,,,,,,,,,,,,,,0,0,0,0,1,,"[""j""]",3,"[""j""]",,,,,,,,[2.4219999999999686],[2.4219999999999686],,,,,,,,,,,,,,,,,,,,,,,,,,,,,,,,,,,,,,,,,,,,,,,,,,,,,,,,,,,,,,
,,,,299875,001,2023-09-28_16h44.58.756,fluency,2022.2.5,MacIntel,58.82352941,,,,,,,,,,,,,,,,,,,,,,,7,9,img/B09_07.jpg,BLEND,Press J if the face is a BLEND and K if the face is a NON-BLEND,A blend is a computer-generated image created by combining together multiple photos of real human faces. A non-blend is a regular photo of a human face.,JK,,,,,,,,,,,,,,,,,,,,,,,,,,,,,,,,5,2.299,,,,,,,,,,,,,,0,41,41,95,1,,,,,,,,,,,,,,,,,,,,space,1.041,,,,,,,,,,,,,,,,,,,,,,,,,,,,,,,,,,,,,,,,,,,,,,,,,,,,,,,,,,,,
,,,,299875,001,2023-09-28_16h44.58.756,fluency,2022.2.5,MacIntel,58.82352941,,,,,,,,,,,,,,,,,,,,,,,3,1,img/B01_03.jpg,BLEND,Press J if the face is a BLEND and K if the face is a NON-BLEND,A blend is a computer-generated image created by combining together multiple photos of real human faces. A non-blend is a regular photo of a human face.,JK,,,,,,,,,,,,,,,,,,,,,,,,,,,,,,,,,,,,,,,,,,,,,,491.004,0,42,42,3,1,109,0,0,0,0,1,98,,,,,,,,,,,,,,,,,,,,,,,,,,,,,,,,,,,,,,,,,,,,,,,,,,,,,,,,,,,,,,,,,,,,,,,,,,
,,,,299875,001,2023-09-28_16h44.58.756,fluency,2022.2.5,MacIntel,58.82352941,,,,,,,,,,,,,,,,,,,,,,,,,,,,,,,,,,,,,,,,,,,,,,,,,,,,,,,,,,,,,,,,,,,,,,,,,,,,,,,,,,0,0,0,0,1,,"[""j""]",3,"[""j""]",,,,,,,,[1.2939999999999827],[1.2939999999999827],,,,,,,,,,,,,,,,,,,,,,,,,,,,,,,,,,,,,,,,,,,,,,,,,,,,,,,,,,,,,,
,,,,299875,001,2023-09-28_16h44.58.756,fluency,2022.2.5,MacIntel,58.82352941,,,,,,,,,,,,,,,,,,,,,,,3,1,img/B01_03.jpg,BLEND,Press J if the face is a BLEND and K if the face is a NON-BLEND,A blend is a computer-generated image created by combining together multiple photos of real human faces. A non-blend is a regular photo of a human face.,JK,,,,,,,,,,,,,,,,,,,,,,,,,,,,,,,,3,1.481,,,,,,,,,,,,,,0,42,42,3,1,,,,,,,,,,,,,,,,,,,,space,0.728,,,,,,,,,,,,,,,,,,,,,,,,,,,,,,,,,,,,,,,,,,,,,,,,,,,,,,,,,,,,
,,,,299875,001,2023-09-28_16h44.58.756,fluency,2022.2.5,MacIntel,58.82352941,,,,,,,,,,,,,,,,,,,,,,,3,5,img/B05_03.jpg,BLEND,Press J if the face is a BLEND and K if the face is a NON-BLEND,A blend is a computer-generated image created by combining together multiple photos of real human faces. A non-blend is a regular photo of a human face.,JK,,,,,,,,,,,,,,,,,,,,,,,,,,,,,,,,,,,,,,,,,,,,,,498.272,0,43,43,47,1,109,0,0,0,0,1,98,,,,,,,,,,,,,,,,,,,,,,,,,,,,,,,,,,,,,,,,,,,,,,,,,,,,,,,,,,,,,,,,,,,,,,,,,,
,,,,299875,001,2023-09-28_16h44.58.756,fluency,2022.2.5,MacIntel,58.82352941,,,,,,,,,,,,,,,,,,,,,,,,,,,,,,,,,,,,,,,,,,,,,,,,,,,,,,,,,,,,,,,,,,,,,,,,,,,,,,,,,,0,0,0,0,1,,"[""j""]",3,"[""j""]",,,,,,,,[1.5599999999999454],[1.5599999999999454],,,,,,,,,,,,,,,,,,,,,,,,,,,,,,,,,,,,,,,,,,,,,,,,,,,,,,,,,,,,,,
,,,,299875,001,2023-09-28_16h44.58.756,fluency,2022.2.5,MacIntel,58.82352941,,,,,,,,,,,,,,,,,,,,,,,3,5,img/B05_03.jpg,BLEND,Press J if the face is a BLEND and K if the face is a NON-BLEND,A blend is a computer-generated image created by combining together multiple photos of real human faces. A non-blend is a regular photo of a human face.,JK,,,,,,,,,,,,,,,,,,,,,,,,,,,,,,,,3,0.66,,,,,,,,,,,,,,0,43,43,47,1,,,,,,,,,,,,,,,,,,,,space,1.017,,,,,,,,,,,,,,,,,,,,,,,,,,,,,,,,,,,,,,,,,,,,,,,,,,,,,,,,,,,,
,,,,299875,001,2023-09-28_16h44.58.756,fluency,2022.2.5,MacIntel,58.82352941,,,,,,,,,,,,,,,,,,,,,,,6,7,img/B07_06.jpg,BLEND,Press J if the face is a BLEND and K if the face is a NON-BLEND,A blend is a computer-generated image created by combining together multiple photos of real human faces. A non-blend is a regular photo of a human face.,JK,,,,,,,,,,,,,,,,,,,,,,,,,,,,,,,,,,,,,,,,,,,,,,504.02,0,44,44,72,1,109,0,0,0,0,1,98,,,,,,,,,,,,,,,,,,,,,,,,,,,,,,,,,,,,,,,,,,,,,,,,,,,,,,,,,,,,,,,,,,,,,,,,,,
,,,,299875,001,2023-09-28_16h44.58.756,fluency,2022.2.5,MacIntel,58.82352941,,,,,,,,,,,,,,,,,,,,,,,,,,,,,,,,,,,,,,,,,,,,,,,,,,,,,,,,,,,,,,,,,,,,,,,,,,,,,,,,,,0,0,0,0,1,,"[""j""]",3,"[""j""]",,,,,,,,[1.0080000000000382],[1.0080000000000382],,,,,,,,,,,,,,,,,,,,,,,,,,,,,,,,,,,,,,,,,,,,,,,,,,,,,,,,,,,,,,
,,,,299875,001,2023-09-28_16h44.58.756,fluency,2022.2.5,MacIntel,58.82352941,,,,,,,,,,,,,,,,,,,,,,,6,7,img/B07_06.jpg,BLEND,Press J if the face is a BLEND and K if the face is a NON-BLEND,A blend is a computer-generated image created by combining together multiple photos of real human faces. A non-blend is a regular photo of a human face.,JK,,,,,,,,,,,,,,,,,,,,,,,,,,,,,,,,4,0.487,,,,,,,,,,,,,,0,44,44,72,1,,,,,,,,,,,,,,,,,,,,space,0.604,,,,,,,,,,,,,,,,,,,,,,,,,,,,,,,,,,,,,,,,,,,,,,,,,,,,,,,,,,,,
,,,,299875,001,2023-09-28_16h44.58.756,fluency,2022.2.5,MacIntel,58.82352941,,,,,,,,,,,,,,,,,,,,,,,7,3,img/B03_07.jpg,BLEND,Press J if the face is a BLEND and K if the face is a NON-BLEND,A blend is a computer-generated image created by combining together multiple photos of real human faces. A non-blend is a regular photo of a human face.,JK,,,,,,,,,,,,,,,,,,,,,,,,,,,,,,,,,,,,,,,,,,,,,,509.17,0,45,45,29,1,109,0,0,0,0,1,98,,,,,,,,,,,,,,,,,,,,,,,,,,,,,,,,,,,,,,,,,,,,,,,,,,,,,,,,,,,,,,,,,,,,,,,,,,
,,,,299875,001,2023-09-28_16h44.58.756,fluency,2022.2.5,MacIntel,58.82352941,,,,,,,,,,,,,,,,,,,,,,,,,,,,,,,,,,,,,,,,,,,,,,,,,,,,,,,,,,,,,,,,,,,,,,,,,,,,,,,,,,0,0,0,0,1,,"[""k""]",3,"[""k""]",,,,,,,,[1.1000000000000227],[1.1000000000000227],,,,,,,,,,,,,,,,,,,,,,,,,,,,,,,,,,,,,,,,,,,,,,,,,,,,,,,,,,,,,,
,,,,299875,001,2023-09-28_16h44.58.756,fluency,2022.2.5,MacIntel,58.82352941,,,,,,,,,,,,,,,,,,,,,,,7,3,img/B03_07.jpg,BLEND,Press J if the face is a BLEND and K if the face is a NON-BLEND,A blend is a computer-generated image created by combining together multiple photos of real human faces. A non-blend is a regular photo of a human face.,JK,,,,,,,,,,,,,,,,,,,,,,,,,,,,,,,,6,0.903,,,,,,,,,,,,,,0,45,45,29,1,,,,,,,,,,,,,,,,,,,,space,0.568,,,,,,,,,,,,,,,,,,,,,,,,,,,,,,,,,,,,,,,,,,,,,,,,,,,,,,,,,,,,
,,,,299875,001,2023-09-28_16h44.58.756,fluency,2022.2.5,MacIntel,58.82352941,,,,,,,,,,,,,,,,,,,,,,,3,3,img/B03_03.jpg,BLEND,Press J if the face is a BLEND and K if the face is a NON-BLEND,A blend is a computer-generated image created by combining together multiple photos of real human faces. A non-blend is a regular photo of a human face.,JK,,,,,,,,,,,,,,,,,,,,,,,,,,,,,,,,,,,,,,,,,,,,,,514.703,0,46,46,25,1,109,0,0,0,0,1,98,,,,,,,,,,,,,,,,,,,,,,,,,,,,,,,,,,,,,,,,,,,,,,,,,,,,,,,,,,,,,,,,,,,,,,,,,,
,,,,299875,001,2023-09-28_16h44.58.756,fluency,2022.2.5,MacIntel,58.82352941,,,,,,,,,,,,,,,,,,,,,,,,,,,,,,,,,,,,,,,,,,,,,,,,,,,,,,,,,,,,,,,,,,,,,,,,,,,,,,,,,,0,0,0,0,1,,"[""j""]",3,"[""j""]",,,,,,,,[2.3450000000000273],[2.3450000000000273],,,,,,,,,,,,,,,,,,,,,,,,,,,,,,,,,,,,,,,,,,,,,,,,,,,,,,,,,,,,,,
,,,,299875,001,2023-09-28_16h44.58.756,fluency,2022.2.5,MacIntel,58.82352941,,,,,,,,,,,,,,,,,,,,,,,3,3,img/B03_03.jpg,BLEND,Press J if the face is a BLEND and K if the face is a NON-BLEND,A blend is a computer-generated image created by combining together multiple photos of real human faces. A non-blend is a regular photo of a human face.,JK,,,,,,,,,,,,,,,,,,,,,,,,,,,,,,,,5,1.827,,,,,,,,,,,,,,0,46,46,25,1,,,,,,,,,,,,,,,,,,,,space,0.647,,,,,,,,,,,,,,,,,,,,,,,,,,,,,,,,,,,,,,,,,,,,,,,,,,,,,,,,,,,,
,,,,299875,001,2023-09-28_16h44.58.756,fluency,2022.2.5,MacIntel,58.82352941,,,,,,,,,,,,,,,,,,,,,,,9,8,img/B08_09.jpg,BLEND,Press J if the face is a BLEND and K if the face is a NON-BLEND,A blend is a computer-generated image created by combining together multiple photos of real human faces. A non-blend is a regular photo of a human face.,JK,,,,,,,,,,,,,,,,,,,,,,,,,,,,,,,,,,,,,,,,,,,,,,522.254,0,47,47,86,1,109,0,0,0,0,1,98,,,,,,,,,,,,,,,,,,,,,,,,,,,,,,,,,,,,,,,,,,,,,,,,,,,,,,,,,,,,,,,,,,,,,,,,,,
,,,,299875,001,2023-09-28_16h44.58.756,fluency,2022.2.5,MacIntel,58.82352941,,,,,,,,,,,,,,,,,,,,,,,,,,,,,,,,,,,,,,,,,,,,,,,,,,,,,,,,,,,,,,,,,,,,,,,,,,,,,,,,,,0,0,0,0,1,,"[""k""]",3,"[""k""]",,,,,,,,[2.79200000000003],[2.79200000000003],,,,,,,,,,,,,,,,,,,,,,,,,,,,,,,,,,,,,,,,,,,,,,,,,,,,,,,,,,,,,,
,,,,299875,001,2023-09-28_16h44.58.756,fluency,2022.2.5,MacIntel,58.82352941,,,,,,,,,,,,,,,,,,,,,,,9,8,img/B08_09.jpg,BLEND,Press J if the face is a BLEND and K if the face is a NON-BLEND,A blend is a computer-generated image created by combining together multiple photos of real human faces. A non-blend is a regular photo of a human face.,JK,,,,,,,,,,,,,,,,,,,,,,,,,,,,,,,,4,1.477,,,,,,,,,,,,,,0,47,47,86,1,,,,,,,,,,,,,,,,,,,,space,0.502,,,,,,,,,,,,,,,,,,,,,,,,,,,,,,,,,,,,,,,,,,,,,,,,,,,,,,,,,,,,
,,,,299875,001,2023-09-28_16h44.58.756,fluency,2022.2.5,MacIntel,58.82352941,,,,,,,,,,,,,,,,,,,,,,,0,4,img/B04_00.jpg,BLEND,Press J if the face is a BLEND and K if the face is a NON-BLEND,A blend is a computer-generated image created by combining together multiple photos of real human faces. A non-blend is a regular photo of a human face.,JK,,,,,,,,,,,,,,,,,,,,,,,,,,,,,,,,,,,,,,,,,,,,,,529.305,0,48,48,33,1,109,0,0,0,0,1,98,,,,,,,,,,,,,,,,,,,,,,,,,,,,,,,,,,,,,,,,,,,,,,,,,,,,,,,,,,,,,,,,,,,,,,,,,,
,,,,299875,001,2023-09-28_16h44.58.756,fluency,2022.2.5,MacIntel,58.82352941,,,,,,,,,,,,,,,,,,,,,,,,,,,,,,,,,,,,,,,,,,,,,,,,,,,,,,,,,,,,,,,,,,,,,,,,,,,,,,,,,,0,0,0,0,1,,"[""k""]",3,"[""k""]",,,,,,,,[2.752999999999929],[2.752999999999929],,,,,,,,,,,,,,,,,,,,,,,,,,,,,,,,,,,,,,,,,,,,,,,,,,,,,,,,,,,,,,
,,,,299875,001,2023-09-28_16h44.58.756,fluency,2022.2.5,MacIntel,58.82352941,,,,,,,,,,,,,,,,,,,,,,,0,4,img/B04_00.jpg,BLEND,Press J if the face is a BLEND and K if the face is a NON-BLEND,A blend is a computer-generated image created by combining together multiple photos of real human faces. A non-blend is a regular photo of a human face.,JK,,,,,,,,,,,,,,,,,,,,,,,,,,,,,,,,6,1.196,,,,,,,,,,,,,,0,48,48,33,1,,,,,,,,,,,,,,,,,,,,space,0.441,,,,,,,,,,,,,,,,,,,,,,,,,,,,,,,,,,,,,,,,,,,,,,,,,,,,,,,,,,,,
,,,,299875,001,2023-09-28_16h44.58.756,fluency,2022.2.5,MacIntel,58.82352941,,,,,,,,,,,,,,,,,,,,,,,8,2,img/B02_08.jpg,BLEND,Press J if the face is a BLEND and K if the face is a NON-BLEND,A blend is a computer-generated image created by combining together multiple photos of real human faces. A non-blend is a regular photo of a human face.,JK,,,,,,,,,,,,,,,,,,,,,,,,,,,,,,,,,,,,,,,,,,,,,,536.004,0,49,49,19,1,109,0,0,0,0,1,98,,,,,,,,,,,,,,,,,,,,,,,,,,,,,,,,,,,,,,,,,,,,,,,,,,,,,,,,,,,,,,,,,,,,,,,,,,
,,,,299875,001,2023-09-28_16h44.58.756,fluency,2022.2.5,MacIntel,58.82352941,,,,,,,,,,,,,,,,,,,,,,,,,,,,,,,,,,,,,,,,,,,,,,,,,,,,,,,,,,,,,,,,,,,,,,,,,,,,,,,,,,0,0,0,0,1,,"[""k""]",3,"[""k""]",,,,,,,,[2.546000000000049],[2.546000000000049],,,,,,,,,,,,,,,,,,,,,,,,,,,,,,,,,,,,,,,,,,,,,,,,,,,,,,,,,,,,,,
,,,,299875,001,2023-09-28_16h44.58.756,fluency,2022.2.5,MacIntel,58.82352941,,,,,,,,,,,,,,,,,,,,,,,8,2,img/B02_08.jpg,BLEND,Press J if the face is a BLEND and K if the face is a NON-BLEND,A blend is a computer-generated image created by combining together multiple photos of real human faces. A non-blend is a regular photo of a human face.,JK,,,,,,,,,,,,,,,,,,,,,,,,,,,,,,,,7,0.946,,,,,,,,,,,,,,0,49,49,19,1,,,,,,,,,,,,,,,,,,,,space,0.821,,,,,,,,,,,,,,,,,,,,,,,,,,,,,,,,,,,,,,,,,,,,,,,,,,,,,,,,,,,,
,,,,299875,001,2023-09-28_16h44.58.756,fluency,2022.2.5,MacIntel,58.82352941,,,,,,,,,,,,,,,,,,,,,,,6,8,img/B08_06.jpg,BLEND,Press J if the face is a BLEND and K if the face is a NON-BLEND,A blend is a computer-generated image created by combining together multiple photos of real human faces. A non-blend is a regular photo of a human face.,JK,,,,,,,,,,,,,,,,,,,,,,,,,,,,,,,,,,,,,,,,,,,,,,541.837,0,50,50,83,1,109,0,0,0,0,1,98,,,,,,,,,,,,,,,,,,,,,,,,,,,,,,,,,,,,,,,,,,,,,,,,,,,,,,,,,,,,,,,,,,,,,,,,,,
,,,,299875,001,2023-09-28_16h44.58.756,fluency,2022.2.5,MacIntel,58.82352941,,,,,,,,,,,,,,,,,,,,,,,,,,,,,,,,,,,,,,,,,,,,,,,,,,,,,,,,,,,,,,,,,,,,,,,,,,,,,,,,,,0,0,0,0,1,,"[""j""]",3,"[""j""]",,,,,,,,[0.8120000000000118],[0.8120000000000118],,,,,,,,,,,,,,,,,,,,,,,,,,,,,,,,,,,,,,,,,,,,,,,,,,,,,,,,,,,,,,
,,,,299875,001,2023-09-28_16h44.58.756,fluency,2022.2.5,MacIntel,58.82352941,,,,,,,,,,,,,,,,,,,,,,,6,8,img/B08_06.jpg,BLEND,Press J if the face is a BLEND and K if the face is a NON-BLEND,A blend is a computer-generated image created by combining together multiple photos of real human faces. A non-blend is a regular photo of a human face.,JK,,,,,,,,,,,,,,,,,,,,,,,,,,,,,,,,5,0.986,,,,,,,,,,,,,,0,50,50,83,1,,,,,,,,,,,,,,,,,,,,space,0.382,,,,,,,,,,,,,,,,,,,,,,,,,,,,,,,,,,,,,,,,,,,,,,,,,,,,,,,,,,,,
,,,,299875,001,2023-09-28_16h44.58.756,fluency,2022.2.5,MacIntel,58.82352941,,,,,,,,,,,,,,,,,,,,,,,8,9,img/B09_08.jpg,BLEND,Press J if the face is a BLEND and K if the face is a NON-BLEND,A blend is a computer-generated image created by combining together multiple photos of real human faces. A non-blend is a regular photo of a human face.,JK,,,,,,,,,,,,,,,,,,,,,,,,,,,,,,,,,,,,,,,,,,,,,,548.27,0,51,51,96,1,109,0,0,0,0,1,98,,,,,,,,,,,,,,,,,,,,,,,,,,,,,,,,,,,,,,,,,,,,,,,,,,,,,,,,,,,,,,,,,,,,,,,,,,
,,,,299875,001,2023-09-28_16h44.58.756,fluency,2022.2.5,MacIntel,58.82352941,,,,,,,,,,,,,,,,,,,,,,,,,,,,,,,,,,,,,,,,,,,,,,,,,,,,,,,,,,,,,,,,,,,,,,,,,,,,,,,,,,0,0,0,0,1,,"[""k""]",3,"[""k""]",,,,,,,,[2.560999999999922],[2.560999999999922],,,,,,,,,,,,,,,,,,,,,,,,,,,,,,,,,,,,,,,,,,,,,,,,,,,,,,,,,,,,,,
,,,,299875,001,2023-09-28_16h44.58.756,fluency,2022.2.5,MacIntel,58.82352941,,,,,,,,,,,,,,,,,,,,,,,8,9,img/B09_08.jpg,BLEND,Press J if the face is a BLEND and K if the face is a NON-BLEND,A blend is a computer-generated image created by combining together multiple photos of real human faces. A non-blend is a regular photo of a human face.,JK,,,,,,,,,,,,,,,,,,,,,,,,,,,,,,,,6,1.567,,,,,,,,,,,,,,0,51,51,96,1,,,,,,,,,,,,,,,,,,,,space,0.919,,,,,,,,,,,,,,,,,,,,,,,,,,,,,,,,,,,,,,,,,,,,,,,,,,,,,,,,,,,,
,,,,299875,001,2023-09-28_16h44.58.756,fluency,2022.2.5,MacIntel,58.82352941,,,,,,,,,,,,,,,,,,,,,,,2,4,img/B04_02.jpg,BLEND,Press J if the face is a BLEND and K if the face is a NON-BLEND,A blend is a computer-generated image created by combining together multiple photos of real human faces. A non-blend is a regular photo of a human face.,JK,,,,,,,,,,,,,,,,,,,,,,,,,,,,,,,,,,,,,,,,,,,,,,555.82,0,52,52,35,1,109,0,0,0,0,1,98,,,,,,,,,,,,,,,,,,,,,,,,,,,,,,,,,,,,,,,,,,,,,,,,,,,,,,,,,,,,,,,,,,,,,,,,,,
,,,,299875,001,2023-09-28_16h44.58.756,fluency,2022.2.5,MacIntel,58.82352941,,,,,,,,,,,,,,,,,,,,,,,,,,,,,,,,,,,,,,,,,,,,,,,,,,,,,,,,,,,,,,,,,,,,,,,,,,,,,,,,,,,,,,,,,4,,space,1.194,0,0,0,0,1,,,,,,,,,,,,,,,,,,,,,,,,,,,,,,,,,,,,,,,,,,,,,,,,,,,,,,,,,,,,,,,,
,,,,299875,001,2023-09-28_16h44.58.756,fluency,2022.2.5,MacIntel,58.82352941,,,,,,,,,,,,,,,,,,,,,,,,,,,,,,,,,,,,,,,,,,,,,,,,,,,,,,,,,,,,,,,,,,,,,,,,,,,,,,,,,,0,0,0,0,1,,,,,,,,,,,,,,,,,,,,,,,,,,,,,,,,,,,,,,,,,,,,,,,,,,,,,,,,,,,,,,,,,,,,,,,,,,,
,,,,299875,001,2023-09-28_16h44.58.756,fluency,2022.2.5,MacIntel,58.82352941,,,,,,,,,,,,,,,,,,,,,,,2,4,img/B04_02.jpg,BLEND,Press J if the face is a BLEND and K if the face is a NON-BLEND,A blend is a computer-generated image created by combining together multiple photos of real human faces. A non-blend is a regular photo of a human face.,JK,,,,,,,,,,,,,,,,,,,,,,,,,,,,,,,,,,,,,,,,,,,,,,561.053,0,52,52,35,1,109,1,0,1,0,1,98,,,,,,,,,,,,,,,,,,,,,,,,,,,,,,,,,,,,,,,,,,,,,,,,,,,,,,,,,,,,,,,,,,,,,,,,,,
,,,,299875,001,2023-09-28_16h44.58.756,fluency,2022.2.5,MacIntel,58.82352941,,,,,,,,,,,,,,,,,,,,,,,,,,,,,,,,,,,,,,,,,,,,,,,,,,,,,,,,,,,,,,,,,,,,,,,,,,,,,,,,,,1,0,1,0,1,,"[""k""]",4,"[""k""]",,,,,,,,[0.24500000000000455],[0.24500000000000455],,,,,,,,,,,,,,,,,,,,,,,,,,,,,,,,,,,,,,,,,,,,,,,,,,,,,,,,,,,,,,
,,,,299875,001,2023-09-28_16h44.58.756,fluency,2022.2.5,MacIntel,58.82352941,,,,,,,,,,,,,,,,,,,,,,,2,4,img/B04_02.jpg,BLEND,Press J if the face is a BLEND and K if the face is a NON-BLEND,A blend is a computer-generated image created by combining together multiple photos of real human faces. A non-blend is a regular photo of a human face.,JK,,,,,,,,,,,,,,,,,,,,,,,,,,,,,,,,8,0.41,,,,,,,,,,,,,,0,52,52,35,1,,,,,,,,,,,,,,,,,,,,space,0.658,,,,,,,,,,,,,,,,,,,,,,,,,,,,,,,,,,,,,,,,,,,,,,,,,,,,,,,,,,,,
,,,,299875,001,2023-09-28_16h44.58.756,fluency,2022.2.5,MacIntel,58.82352941,,,,,,,,,,,,,,,,,,,,,,,1,8,img/B08_01.jpg,BLEND,Press J if the face is a BLEND and K if the face is a NON-BLEND,A blend is a computer-generated image created by combining together multiple photos of real human faces. A non-blend is a regular photo of a human face.,JK,,,,,,,,,,,,,,,,,,,,,,,,,,,,,,,,,,,,,,,,,,,,,,567.187,0,53,53,78,1,109,0,0,0,0,1,98,,,,,,,,,,,,,,,,,,,,,,,,,,,,,,,,,,,,,,,,,,,,,,,,,,,,,,,,,,,,,,,,,,,,,,,,,,
,,,,299875,001,2023-09-28_16h44.58.756,fluency,2022.2.5,MacIntel,58.82352941,,,,,,,,,,,,,,,,,,,,,,,,,,,,,,,,,,,,,,,,,,,,,,,,,,,,,,,,,,,,,,,,,,,,,,,,,,,,,,,,,,0,0,0,0,1,,"[""j""]",4,"[""j""]",,,,,,,,[0.8440000000000509],[0.8440000000000509],,,,,,,,,,,,,,,,,,,,,,,,,,,,,,,,,,,,,,,,,,,,,,,,,,,,,,,,,,,,,,
,,,,299875,001,2023-09-28_16h44.58.756,fluency,2022.2.5,MacIntel,58.82352941,,,,,,,,,,,,,,,,,,,,,,,1,8,img/B08_01.jpg,BLEND,Press J if the face is a BLEND and K if the face is a NON-BLEND,A blend is a computer-generated image created by combining together multiple photos of real human faces. A non-blend is a regular photo of a human face.,JK,,,,,,,,,,,,,,,,,,,,,,,,,,,,,,,,4,1.428,,,,,,,,,,,,,,0,53,53,78,1,,,,,,,,,,,,,,,,,,,,space,0.312,,,,,,,,,,,,,,,,,,,,,,,,,,,,,,,,,,,,,,,,,,,,,,,,,,,,,,,,,,,,
,,,,299875,001,2023-09-28_16h44.58.756,fluency,2022.2.5,MacIntel,58.82352941,,,,,,,,,,,,,,,,,,,,,,,6,6,img/B06_06.jpg,BLEND,Press J if the face is a BLEND and K if the face is a NON-BLEND,A blend is a computer-generated image created by combining together multiple photos of real human faces. A non-blend is a regular photo of a human face.,JK,,,,,,,,,,,,,,,,,,,,,,,,,,,,,,,,,,,,,,,,,,,,,,572.987,0,54,54,61,1,109,0,0,0,0,1,98,,,,,,,,,,,,,,,,,,,,,,,,,,,,,,,,,,,,,,,,,,,,,,,,,,,,,,,,,,,,,,,,,,,,,,,,,,
,,,,299875,001,2023-09-28_16h44.58.756,fluency,2022.2.5,MacIntel,58.82352941,,,,,,,,,,,,,,,,,,,,,,,,,,,,,,,,,,,,,,,,,,,,,,,,,,,,,,,,,,,,,,,,,,,,,,,,,,,,,,,,,,0,0,0,0,1,,"[""j""]",4,"[""j""]",,,,,,,,[0.8429999999999609],[0.8429999999999609],,,,,,,,,,,,,,,,,,,,,,,,,,,,,,,,,,,,,,,,,,,,,,,,,,,,,,,,,,,,,,
,,,,299875,001,2023-09-28_16h44.58.756,fluency,2022.2.5,MacIntel,58.82352941,,,,,,,,,,,,,,,,,,,,,,,6,6,img/B06_06.jpg,BLEND,Press J if the face is a BLEND and K if the face is a NON-BLEND,A blend is a computer-generated image created by combining together multiple photos of real human faces. A non-blend is a regular photo of a human face.,JK,,,,,,,,,,,,,,,,,,,,,,,,,,,,,,,,3,1.164,,,,,,,,,,,,,,0,54,54,61,1,,,,,,,,,,,,,,,,,,,,space,0.555,,,,,,,,,,,,,,,,,,,,,,,,,,,,,,,,,,,,,,,,,,,,,,,,,,,,,,,,,,,,
,,,,299875,001,2023-09-28_16h44.58.756,fluency,2022.2.5,MacIntel,58.82352941,,,,,,,,,,,,,,,,,,,,,,,6,4,img/B04_06.jpg,BLEND,Press J if the face is a BLEND and K if the face is a NON-BLEND,A blend is a computer-generated image created by combining together multiple photos of real human faces. A non-blend is a regular photo of a human face.,JK,,,,,,,,,,,,,,,,,,,,,,,,,,,,,,,,,,,,,,,,,,,,,,579.77,0,55,55,39,1,109,0,0,0,0,1,98,,,,,,,,,,,,,,,,,,,,,,,,,,,,,,,,,,,,,,,,,,,,,,,,,,,,,,,,,,,,,,,,,,,,,,,,,,
,,,,299875,001,2023-09-28_16h44.58.756,fluency,2022.2.5,MacIntel,58.82352941,,,,,,,,,,,,,,,,,,,,,,,,,,,,,,,,,,,,,,,,,,,,,,,,,,,,,,,,,,,,,,,,,,,,,,,,,,,,,,,,,,0,0,0,0,1,,"[""j""]",4,"[""j""]",,,,,,,,[2.631999999999948],[2.631999999999948],,,,,,,,,,,,,,,,,,,,,,,,,,,,,,,,,,,,,,,,,,,,,,,,,,,,,,,,,,,,,,
,,,,299875,001,2023-09-28_16h44.58.756,fluency,2022.2.5,MacIntel,58.82352941,,,,,,,,,,,,,,,,,,,,,,,6,4,img/B04_06.jpg,BLEND,Press J if the face is a BLEND and K if the face is a NON-BLEND,A blend is a computer-generated image created by combining together multiple photos of real human faces. A non-blend is a regular photo of a human face.,JK,,,,,,,,,,,,,,,,,,,,,,,,,,,,,,,,5,1.417,,,,,,,,,,,,,,0,55,55,39,1,,,,,,,,,,,,,,,,,,,,space,0.4,,,,,,,,,,,,,,,,,,,,,,,,,,,,,,,,,,,,,,,,,,,,,,,,,,,,,,,,,,,,
,,,,299875,001,2023-09-28_16h44.58.756,fluency,2022.2.5,MacIntel,58.82352941,,,,,,,,,,,,,,,,,,,,,,,8,5,img/B05_08.jpg,BLEND,Press J if the face is a BLEND and K if the face is a NON-BLEND,A blend is a computer-generated image created by combining together multiple photos of real human faces. A non-blend is a regular photo of a human face.,JK,,,,,,,,,,,,,,,,,,,,,,,,,,,,,,,,,,,,,,,,,,,,,,585.654,0,56,56,52,1,109,0,0,0,0,1,98,,,,,,,,,,,,,,,,,,,,,,,,,,,,,,,,,,,,,,,,,,,,,,,,,,,,,,,,,,,,,,,,,,,,,,,,,,
,,,,299875,001,2023-09-28_16h44.58.756,fluency,2022.2.5,MacIntel,58.82352941,,,,,,,,,,,,,,,,,,,,,,,,,,,,,,,,,,,,,,,,,,,,,,,,,,,,,,,,,,,,,,,,,,,,,,,,,,,,,,,,,,0,0,0,0,1,,"[""j""]",4,"[""j""]",,,,,,,,[2.0989999999999327],[2.0989999999999327],,,,,,,,,,,,,,,,,,,,,,,,,,,,,,,,,,,,,,,,,,,,,,,,,,,,,,,,,,,,,,
,,,,299875,001,2023-09-28_16h44.58.756,fluency,2022.2.5,MacIntel,58.82352941,,,,,,,,,,,,,,,,,,,,,,,8,5,img/B05_08.jpg,BLEND,Press J if the face is a BLEND and K if the face is a NON-BLEND,A blend is a computer-generated image created by combining together multiple photos of real human faces. A non-blend is a regular photo of a human face.,JK,,,,,,,,,,,,,,,,,,,,,,,,,,,,,,,,5,0.39,,,,,,,,,,,,,,0,56,56,52,1,,,,,,,,,,,,,,,,,,,,space,0.445,,,,,,,,,,,,,,,,,,,,,,,,,,,,,,,,,,,,,,,,,,,,,,,,,,,,,,,,,,,,
,,,,299875,001,2023-09-28_16h44.58.756,fluency,2022.2.5,MacIntel,58.82352941,,,,,,,,,,,,,,,,,,,,,,,4,4,img/B04_04.jpg,BLEND,Press J if the face is a BLEND and K if the face is a NON-BLEND,A blend is a computer-generated image created by combining together multiple photos of real human faces. A non-blend is a regular photo of a human face.,JK,,,,,,,,,,,,,,,,,,,,,,,,,,,,,,,,,,,,,,,,,,,,,,591.537,0,57,57,37,1,109,0,0,0,0,1,98,,,,,,,,,,,,,,,,,,,,,,,,,,,,,,,,,,,,,,,,,,,,,,,,,,,,,,,,,,,,,,,,,,,,,,,,,,
,,,,299875,001,2023-09-28_16h44.58.756,fluency,2022.2.5,MacIntel,58.82352941,,,,,,,,,,,,,,,,,,,,,,,,,,,,,,,,,,,,,,,,,,,,,,,,,,,,,,,,,,,,,,,,,,,,,,,,,,,,,,,,,,0,0,0,0,1,,"[""j""]",4,"[""j""]",,,,,,,,[1.6349999999998772],[1.6349999999998772],,,,,,,,,,,,,,,,,,,,,,,,,,,,,,,,,,,,,,,,,,,,,,,,,,,,,,,,,,,,,,
,,,,299875,001,2023-09-28_16h44.58.756,fluency,2022.2.5,MacIntel,58.82352941,,,,,,,,,,,,,,,,,,,,,,,4,4,img/B04_04.jpg,BLEND,Press J if the face is a BLEND and K if the face is a NON-BLEND,A blend is a computer-generated image created by combining together multiple photos of real human faces. A non-blend is a regular photo of a human face.,JK,,,,,,,,,,,,,,,,,,,,,,,,,,,,,,,,4,2.3,,,,,,,,,,,,,,0,57,57,37,1,,,,,,,,,,,,,,,,,,,,space,0.733,,,,,,,,,,,,,,,,,,,,,,,,,,,,,,,,,,,,,,,,,,,,,,,,,,,,,,,,,,,,
,,,,299875,001,2023-09-28_16h44.58.756,fluency,2022.2.5,MacIntel,58.82352941,,,,,,,,,,,,,,,,,,,,,,,6,1,img/B01_06.jpg,BLEND,Press J if the face is a BLEND and K if the face is a NON-BLEND,A blend is a computer-generated image created by combining together multiple photos of real human faces. A non-blend is a regular photo of a human face.,JK,,,,,,,,,,,,,,,,,,,,,,,,,,,,,,,,,,,,,,,,,,,,,,599.637,0,58,58,6,1,109,0,0,0,0,1,98,,,,,,,,,,,,,,,,,,,,,,,,,,,,,,,,,,,,,,,,,,,,,,,,,,,,,,,,,,,,,,,,,,,,,,,,,,
,,,,299875,001,2023-09-28_16h44.58.756,fluency,2022.2.5,MacIntel,58.82352941,,,,,,,,,,,,,,,,,,,,,,,,,,,,,,,,,,,,,,,,,,,,,,,,,,,,,,,,,,,,,,,,,,,,,,,,,,,,,,,,,,0,0,0,0,1,,"[""j""]",4,"[""j""]",,,,,,,,[0.7150000000000318],[0.7150000000000318],,,,,,,,,,,,,,,,,,,,,,,,,,,,,,,,,,,,,,,,,,,,,,,,,,,,,,,,,,,,,,
,,,,299875,001,2023-09-28_16h44.58.756,fluency,2022.2.5,MacIntel,58.82352941,,,,,,,,,,,,,,,,,,,,,,,6,1,img/B01_06.jpg,BLEND,Press J if the face is a BLEND and K if the face is a NON-BLEND,A blend is a computer-generated image created by combining together multiple photos of real human faces. A non-blend is a regular photo of a human face.,JK,,,,,,,,,,,,,,,,,,,,,,,,,,,,,,,,2,1.358,,,,,,,,,,,,,,0,58,58,6,1,,,,,,,,,,,,,,,,,,,,space,0.52,,,,,,,,,,,,,,,,,,,,,,,,,,,,,,,,,,,,,,,,,,,,,,,,,,,,,,,,,,,,
,,,,299875,001,2023-09-28_16h44.58.756,fluency,2022.2.5,MacIntel,58.82352941,,,,,,,,,,,,,,,,,,,,,,,2,6,img/B06_02.jpg,BLEND,Press J if the face is a BLEND and K if the face is a NON-BLEND,A blend is a computer-generated image created by combining together multiple photos of real human faces. A non-blend is a regular photo of a human face.,JK,,,,,,,,,,,,,,,,,,,,,,,,,,,,,,,,,,,,,,,,,,,,,,605.587,0,59,59,57,1,109,0,0,0,0,1,98,,,,,,,,,,,,,,,,,,,,,,,,,,,,,,,,,,,,,,,,,,,,,,,,,,,,,,,,,,,,,,,,,,,,,,,,,,
,,,,299875,001,2023-09-28_16h44.58.756,fluency,2022.2.5,MacIntel,58.82352941,,,,,,,,,,,,,,,,,,,,,,,,,,,,,,,,,,,,,,,,,,,,,,,,,,,,,,,,,,,,,,,,,,,,,,,,,,,,,,,,,,0,0,0,0,1,,"[""j""]",4,"[""j""]",,,,,,,,[0.7119999999999891],[0.7119999999999891],,,,,,,,,,,,,,,,,,,,,,,,,,,,,,,,,,,,,,,,,,,,,,,,,,,,,,,,,,,,,,
,,,,299875,001,2023-09-28_16h44.58.756,fluency,2022.2.5,MacIntel,58.82352941,,,,,,,,,,,,,,,,,,,,,,,2,6,img/B06_02.jpg,BLEND,Press J if the face is a BLEND and K if the face is a NON-BLEND,A blend is a computer-generated image created by combining together multiple photos of real human faces. A non-blend is a regular photo of a human face.,JK,,,,,,,,,,,,,,,,,,,,,,,,,,,,,,,,4,1.85,,,,,,,,,,,,,,0,59,59,57,1,,,,,,,,,,,,,,,,,,,,space,0.602,,,,,,,,,,,,,,,,,,,,,,,,,,,,,,,,,,,,,,,,,,,,,,,,,,,,,,,,,,,,
,,,,299875,001,2023-09-28_16h44.58.756,fluency,2022.2.5,MacIntel,58.82352941,,,,,,,,,,,,,,,,,,,,,,,10,6,img/B06_10.jpg,BLEND,Press J if the face is a BLEND and K if the face is a NON-BLEND,A blend is a computer-generated image created by combining together multiple photos of real human faces. A non-blend is a regular photo of a human face.,JK,,,,,,,,,,,,,,,,,,,,,,,,,,,,,,,,,,,,,,,,,,,,,,612.103,0,60,60,65,1,109,0,0,0,0,1,98,,,,,,,,,,,,,,,,,,,,,,,,,,,,,,,,,,,,,,,,,,,,,,,,,,,,,,,,,,,,,,,,,,,,,,,,,,
,,,,299875,001,2023-09-28_16h44.58.756,fluency,2022.2.5,MacIntel,58.82352941,,,,,,,,,,,,,,,,,,,,,,,,,,,,,,,,,,,,,,,,,,,,,,,,,,,,,,,,,,,,,,,,,,,,,,,,,,,,,,,,,,0,0,0,0,1,,"[""k""]",4,"[""k""]",,,,,,,,[1.615000000000009],[1.615000000000009],,,,,,,,,,,,,,,,,,,,,,,,,,,,,,,,,,,,,,,,,,,,,,,,,,,,,,,,,,,,,,
,,,,299875,001,2023-09-28_16h44.58.756,fluency,2022.2.5,MacIntel,58.82352941,,,,,,,,,,,,,,,,,,,,,,,10,6,img/B06_10.jpg,BLEND,Press J if the face is a BLEND and K if the face is a NON-BLEND,A blend is a computer-generated image created by combining together multiple photos of real human faces. A non-blend is a regular photo of a human face.,JK,,,,,,,,,,,,,,,,,,,,,,,,,,,,,,,,7,1.612,,,,,,,,,,,,,,0,60,60,65,1,,,,,,,,,,,,,,,,,,,,space,0.567,,,,,,,,,,,,,,,,,,,,,,,,,,,,,,,,,,,,,,,,,,,,,,,,,,,,,,,,,,,,
,,,,299875,001,2023-09-28_16h44.58.756,fluency,2022.2.5,MacIntel,58.82352941,,,,,,,,,,,,,,,,,,,,,,,1,9,img/B09_01.jpg,BLEND,Press J if the face is a BLEND and K if the face is a NON-BLEND,A blend is a computer-generated image created by combining together multiple photos of real human faces. A non-blend is a regular photo of a human face.,JK,,,,,,,,,,,,,,,,,,,,,,,,,,,,,,,,,,,,,,,,,,,,,,619.353,0,61,61,89,1,109,0,0,0,0,1,98,,,,,,,,,,,,,,,,,,,,,,,,,,,,,,,,,,,,,,,,,,,,,,,,,,,,,,,,,,,,,,,,,,,,,,,,,,
,,,,299875,001,2023-09-28_16h44.58.756,fluency,2022.2.5,MacIntel,58.82352941,,,,,,,,,,,,,,,,,,,,,,,,,,,,,,,,,,,,,,,,,,,,,,,,,,,,,,,,,,,,,,,,,,,,,,,,,,,,,,,,,,0,0,0,0,1,,"[""j""]",4,"[""j""]",,,,,,,,[2.92999999999995],[2.9309999999999263],,,,,,,,,,,,,,,,,,,,,,,,,,,,,,,,,,,,,,,,,,,,,,,,,,,,,,,,,,,,,,
,,,,299875,001,2023-09-28_16h44.58.756,fluency,2022.2.5,MacIntel,58.82352941,,,,,,,,,,,,,,,,,,,,,,,1,9,img/B09_01.jpg,BLEND,Press J if the face is a BLEND and K if the face is a NON-BLEND,A blend is a computer-generated image created by combining together multiple photos of real human faces. A non-blend is a regular photo of a human face.,JK,,,,,,,,,,,,,,,,,,,,,,,,,,,,,,,,5,1.365,,,,,,,,,,,,,,0,61,61,89,1,,,,,,,,,,,,,,,,,,,,space,0.467,,,,,,,,,,,,,,,,,,,,,,,,,,,,,,,,,,,,,,,,,,,,,,,,,,,,,,,,,,,,
,,,,299875,001,2023-09-28_16h44.58.756,fluency,2022.2.5,MacIntel,58.82352941,,,,,,,,,,,,,,,,,,,,,,,8,4,img/B04_08.jpg,BLEND,Press J if the face is a BLEND and K if the face is a NON-BLEND,A blend is a computer-generated image created by combining together multiple photos of real human faces. A non-blend is a regular photo of a human face.,JK,,,,,,,,,,,,,,,,,,,,,,,,,,,,,,,,,,,,,,,,,,,,,,625.253,0,62,62,41,1,109,0,0,0,0,1,98,,,,,,,,,,,,,,,,,,,,,,,,,,,,,,,,,,,,,,,,,,,,,,,,,,,,,,,,,,,,,,,,,,,,,,,,,,
,,,,299875,001,2023-09-28_16h44.58.756,fluency,2022.2.5,MacIntel,58.82352941,,,,,,,,,,,,,,,,,,,,,,,,,,,,,,,,,,,,,,,,,,,,,,,,,,,,,,,,,,,,,,,,,,,,,,,,,,,,,,,,,,0,0,0,0,1,,"[""k""]",4,"[""k""]",,,,,,,,[2.3729999999999336],[2.3729999999999336],,,,,,,,,,,,,,,,,,,,,,,,,,,,,,,,,,,,,,,,,,,,,,,,,,,,,,,,,,,,,,
,,,,299875,001,2023-09-28_16h44.58.756,fluency,2022.2.5,MacIntel,58.82352941,,,,,,,,,,,,,,,,,,,,,,,8,4,img/B04_08.jpg,BLEND,Press J if the face is a BLEND and K if the face is a NON-BLEND,A blend is a computer-generated image created by combining together multiple photos of real human faces. A non-blend is a regular photo of a human face.,JK,,,,,,,,,,,,,,,,,,,,,,,,,,,,,,,,5,1.467,,,,,,,,,,,,,,0,62,62,41,1,,,,,,,,,,,,,,,,,,,,space,0.688,,,,,,,,,,,,,,,,,,,,,,,,,,,,,,,,,,,,,,,,,,,,,,,,,,,,,,,,,,,,
,,,,299875,001,2023-09-28_16h44.58.756,fluency,2022.2.5,MacIntel,58.82352941,,,,,,,,,,,,,,,,,,,,,,,2,1,img/B01_02.jpg,BLEND,Press J if the face is a BLEND and K if the face is a NON-BLEND,A blend is a computer-generated image created by combining together multiple photos of real human faces. A non-blend is a regular photo of a human face.,JK,,,,,,,,,,,,,,,,,,,,,,,,,,,,,,,,,,,,,,,,,,,,,,632.47,0,63,63,2,1,109,0,0,0,0,1,98,,,,,,,,,,,,,,,,,,,,,,,,,,,,,,,,,,,,,,,,,,,,,,,,,,,,,,,,,,,,,,,,,,,,,,,,,,
,,,,299875,001,2023-09-28_16h44.58.756,fluency,2022.2.5,MacIntel,58.82352941,,,,,,,,,,,,,,,,,,,,,,,,,,,,,,,,,,,,,,,,,,,,,,,,,,,,,,,,,,,,,,,,,,,,,,,,,,,,,,,,,,0,0,0,0,1,,"[""j""]",4,"[""j""]",,,,,,,,[0.8600000000000136],[0.8600000000000136],,,,,,,,,,,,,,,,,,,,,,,,,,,,,,,,,,,,,,,,,,,,,,,,,,,,,,,,,,,,,,
,,,,299875,001,2023-09-28_16h44.58.756,fluency,2022.2.5,MacIntel,58.82352941,,,,,,,,,,,,,,,,,,,,,,,2,1,img/B01_02.jpg,BLEND,Press J if the face is a BLEND and K if the face is a NON-BLEND,A blend is a computer-generated image created by combining together multiple photos of real human faces. A non-blend is a regular photo of a human face.,JK,,,,,,,,,,,,,,,,,,,,,,,,,,,,,,,,3,1.641,,,,,,,,,,,,,,0,63,63,2,1,,,,,,,,,,,,,,,,,,,,space,0.66,,,,,,,,,,,,,,,,,,,,,,,,,,,,,,,,,,,,,,,,,,,,,,,,,,,,,,,,,,,,
,,,,299875,001,2023-09-28_16h44.58.756,fluency,2022.2.5,MacIntel,58.82352941,,,,,,,,,,,,,,,,,,,,,,,7,5,img/B05_07.jpg,BLEND,Press J if the face is a BLEND and K if the face is a NON-BLEND,A blend is a computer-generated image created by combining together multiple photos of real human faces. A non-blend is a regular photo of a human face.,JK,,,,,,,,,,,,,,,,,,,,,,,,,,,,,,,,,,,,,,,,,,,,,,639.837,0,64,64,51,1,109,0,0,0,0,1,98,,,,,,,,,,,,,,,,,,,,,,,,,,,,,,,,,,,,,,,,,,,,,,,,,,,,,,,,,,,,,,,,,,,,,,,,,,
,,,,299875,001,2023-09-28_16h44.58.756,fluency,2022.2.5,MacIntel,58.82352941,,,,,,,,,,,,,,,,,,,,,,,,,,,,,,,,,,,,,,,,,,,,,,,,,,,,,,,,,,,,,,,,,,,,,,,,,,,,,,,,,,0,0,0,0,1,,"[""j""]",4,"[""j""]",,,,,,,,[0.9429999999999836],[0.9429999999999836],,,,,,,,,,,,,,,,,,,,,,,,,,,,,,,,,,,,,,,,,,,,,,,,,,,,,,,,,,,,,,
,,,,299875,001,2023-09-28_16h44.58.756,fluency,2022.2.5,MacIntel,58.82352941,,,,,,,,,,,,,,,,,,,,,,,7,5,img/B05_07.jpg,BLEND,Press J if the face is a BLEND and K if the face is a NON-BLEND,A blend is a computer-generated image created by combining together multiple photos of real human faces. A non-blend is a regular photo of a human face.,JK,,,,,,,,,,,,,,,,,,,,,,,,,,,,,,,,2,0.928,,,,,,,,,,,,,,0,64,64,51,1,,,,,,,,,,,,,,,,,,,,space,0.569,,,,,,,,,,,,,,,,,,,,,,,,,,,,,,,,,,,,,,,,,,,,,,,,,,,,,,,,,,,,
,,,,299875,001,2023-09-28_16h44.58.756,fluency,2022.2.5,MacIntel,58.82352941,,,,,,,,,,,,,,,,,,,,,,,1,5,img/B05_01.jpg,BLEND,Press J if the face is a BLEND and K if the face is a NON-BLEND,A blend is a computer-generated image created by combining together multiple photos of real human faces. A non-blend is a regular photo of a human face.,JK,,,,,,,,,,,,,,,,,,,,,,,,,,,,,,,,,,,,,,,,,,,,,,646.403,0,65,65,45,1,109,0,0,0,0,1,98,,,,,,,,,,,,,,,,,,,,,,,,,,,,,,,,,,,,,,,,,,,,,,,,,,,,,,,,,,,,,,,,,,,,,,,,,,
,,,,299875,001,2023-09-28_16h44.58.756,fluency,2022.2.5,MacIntel,58.82352941,,,,,,,,,,,,,,,,,,,,,,,,,,,,,,,,,,,,,,,,,,,,,,,,,,,,,,,,,,,,,,,,,,,,,,,,,,,,,,,,,,0,0,0,0,1,,"[""k""]",4,"[""k""]",,,,,,,,[2.2659999999999627],[2.2659999999999627],,,,,,,,,,,,,,,,,,,,,,,,,,,,,,,,,,,,,,,,,,,,,,,,,,,,,,,,,,,,,,
,,,,299875,001,2023-09-28_16h44.58.756,fluency,2022.2.5,MacIntel,58.82352941,,,,,,,,,,,,,,,,,,,,,,,1,5,img/B05_01.jpg,BLEND,Press J if the face is a BLEND and K if the face is a NON-BLEND,A blend is a computer-generated image created by combining together multiple photos of real human faces. A non-blend is a regular photo of a human face.,JK,,,,,,,,,,,,,,,,,,,,,,,,,,,,,,,,4,1.023,,,,,,,,,,,,,,0,65,65,45,1,,,,,,,,,,,,,,,,,,,,space,0.313,,,,,,,,,,,,,,,,,,,,,,,,,,,,,,,,,,,,,,,,,,,,,,,,,,,,,,,,,,,,
,,,,299875,001,2023-09-28_16h44.58.756,fluency,2022.2.5,MacIntel,58.82352941,,,,,,,,,,,,,,,,,,,,,,,0,3,img/B03_00.jpg,BLEND,Press J if the face is a BLEND and K if the face is a NON-BLEND,A blend is a computer-generated image created by combining together multiple photos of real human faces. A non-blend is a regular photo of a human face.,JK,,,,,,,,,,,,,,,,,,,,,,,,,,,,,,,,,,,,,,,,,,,,,,652.804,0,66,66,22,1,109,0,0,0,0,1,98,,,,,,,,,,,,,,,,,,,,,,,,,,,,,,,,,,,,,,,,,,,,,,,,,,,,,,,,,,,,,,,,,,,,,,,,,,
,,,,299875,001,2023-09-28_16h44.58.756,fluency,2022.2.5,MacIntel,58.82352941,,,,,,,,,,,,,,,,,,,,,,,,,,,,,,,,,,,,,,,,,,,,,,,,,,,,,,,,,,,,,,,,,,,,,,,,,,,,,,,,,,0,0,0,0,1,,"[""k""]",4,"[""k""]",,,,,,,,[2.1829999999999927],[2.1829999999999927],,,,,,,,,,,,,,,,,,,,,,,,,,,,,,,,,,,,,,,,,,,,,,,,,,,,,,,,,,,,,,
,,,,299875,001,2023-09-28_16h44.58.756,fluency,2022.2.5,MacIntel,58.82352941,,,,,,,,,,,,,,,,,,,,,,,0,3,img/B03_00.jpg,BLEND,Press J if the face is a BLEND and K if the face is a NON-BLEND,A blend is a computer-generated image created by combining together multiple photos of real human faces. A non-blend is a regular photo of a human face.,JK,,,,,,,,,,,,,,,,,,,,,,,,,,,,,,,,7,1.736,,,,,,,,,,,,,,0,66,66,22,1,,,,,,,,,,,,,,,,,,,,space,0.503,,,,,,,,,,,,,,,,,,,,,,,,,,,,,,,,,,,,,,,,,,,,,,,,,,,,,,,,,,,,
,,,,299875,001,2023-09-28_16h44.58.756,fluency,2022.2.5,MacIntel,58.82352941,,,,,,,,,,,,,,,,,,,,,,,0,9,img/B09_00.jpg,BLEND,Press J if the face is a BLEND and K if the face is a NON-BLEND,A blend is a computer-generated image created by combining together multiple photos of real human faces. A non-blend is a regular photo of a human face.,JK,,,,,,,,,,,,,,,,,,,,,,,,,,,,,,,,,,,,,,,,,,,,,,659.104,0,67,67,88,1,109,0,0,0,0,1,98,,,,,,,,,,,,,,,,,,,,,,,,,,,,,,,,,,,,,,,,,,,,,,,,,,,,,,,,,,,,,,,,,,,,,,,,,,
,,,,299875,001,2023-09-28_16h44.58.756,fluency,2022.2.5,MacIntel,58.82352941,,,,,,,,,,,,,,,,,,,,,,,,,,,,,,,,,,,,,,,,,,,,,,,,,,,,,,,,,,,,,,,,,,,,,,,,,,,,,,,,,,0,0,0,0,1,,"[""k""]",4,"[""k""]",,,,,,,,[1.377999999999929],[1.377999999999929],,,,,,,,,,,,,,,,,,,,,,,,,,,,,,,,,,,,,,,,,,,,,,,,,,,,,,,,,,,,,,
,,,,299875,001,2023-09-28_16h44.58.756,fluency,2022.2.5,MacIntel,58.82352941,,,,,,,,,,,,,,,,,,,,,,,0,9,img/B09_00.jpg,BLEND,Press J if the face is a BLEND and K if the face is a NON-BLEND,A blend is a computer-generated image created by combining together multiple photos of real human faces. A non-blend is a regular photo of a human face.,JK,,,,,,,,,,,,,,,,,,,,,,,,,,,,,,,,6,0.814,,,,,,,,,,,,,,0,67,67,88,1,,,,,,,,,,,,,,,,,,,,space,0.669,,,,,,,,,,,,,,,,,,,,,,,,,,,,,,,,,,,,,,,,,,,,,,,,,,,,,,,,,,,,
,,,,299875,001,2023-09-28_16h44.58.756,fluency,2022.2.5,MacIntel,58.82352941,,,,,,,,,,,,,,,,,,,,,,,10,2,img/B02_10.jpg,BLEND,Press J if the face is a BLEND and K if the face is a NON-BLEND,A blend is a computer-generated image created by combining together multiple photos of real human faces. A non-blend is a regular photo of a human face.,JK,,,,,,,,,,,,,,,,,,,,,,,,,,,,,,,,,,,,,,,,,,,,,,664.653,0,68,68,21,1,109,0,0,0,0,1,98,,,,,,,,,,,,,,,,,,,,,,,,,,,,,,,,,,,,,,,,,,,,,,,,,,,,,,,,,,,,,,,,,,,,,,,,,,
,,,,299875,001,2023-09-28_16h44.58.756,fluency,2022.2.5,MacIntel,58.82352941,,,,,,,,,,,,,,,,,,,,,,,,,,,,,,,,,,,,,,,,,,,,,,,,,,,,,,,,,,,,,,,,,,,,,,,,,,,,,,,,,,0,0,0,0,1,,"[""k""]",4,"[""k""]",,,,,,,,[1.7630000000000337],[1.7630000000000337],,,,,,,,,,,,,,,,,,,,,,,,,,,,,,,,,,,,,,,,,,,,,,,,,,,,,,,,,,,,,,
