idTextbox.text,welcomeDone.numClicks,welcomeDone.timesOn,welcomeDone.timesOff,participant,session,date,expName,psychopyVersion,OS,frameRate,consent_advance.keys,consent_advance.rt,consent_advance_2.keys,consent_advance_2.rt,consentClick.x,consentClick.y,consentClick.leftButton,consentClick.midButton,consentClick.rightButton,consentClick.time,consentClick.clicked_name,instr_advance_3.keys,instr_advance_3.rt,spec_instr_adv.keys,spec_instr_adv.rt,spec_instr_adv2.keys,spec_instr_adv2.rt,instrLoop.thisRepN,instrLoop.thisTrialN,instrLoop.thisN,instrLoop.thisIndex,instrLoop.ran,steps,fams,face_file,cond,instr,term,key_map,attnKeyResp1.keys,attnKeyResp1.rt,q1.thisRepN,q1.thisTrialN,q1.thisN,q1.thisIndex,q1.ran,attnKeyResp2.keys,attnKeyResp2.rt,q2.thisRepN,q2.thisTrialN,q2.thisN,q2.thisIndex,q2.ran,attnKeyResp3.keys,attnKeyResp3.rt,q3.thisRepN,q3.thisTrialN,q3.thisN,q3.thisIndex,q3.ran,practiceStart.keys,practiceStart.rt,practiceResp.keys,practiceResp.rt,timesRedone,practiceRepeat.thisRepN,practiceRepeat.thisTrialN,practiceRepeat.thisN,practiceRepeat.thisIndex,practiceRepeat.ran,attrRating.keys,attrRating.rt,practiceTrial.thisRepN,practiceTrial.thisTrialN,practiceTrial.thisN,practiceTrial.thisIndex,practiceTrial.ran,key_resp_3.keys,key_resp_3.rt,attnChecker.thisRepN,attnChecker.thisTrialN,attnChecker.thisN,attnChecker.thisIndex,attnChecker.ran,faceOnsetTime,trials.thisRepN,trials.thisTrialN,trials.thisN,trials.thisIndex,trials.ran,trials.order,repeat_loop.thisRepN,repeat_loop.thisTrialN,repeat_loop.thisN,repeat_loop.thisIndex,repeat_loop.ran,repeat_loop.order,catResp.keys,catResp.rt,globalTimesRedone,catAllKeys.keys,catAllKeys.rt,contResp.keys,contResp.rt,redo_keypress.keys,redo_keypress.rt,redo_feedback_loop.thisRepN,redo_feedback_loop.thisTrialN,redo_feedback_loop.thisN,redo_feedback_loop.thisIndex,redo_feedback_loop.ran,contResp_2.keys,contResp_2.rt,respQ1.response,respQ1.rt,respQ2.response,respQ2.rt,respQ3.response,respQ3.rt,respQ4.response,respQ4.rt,surveyContinue1.numClicks,surveyContinue1.timesOn,surveyContinue1.timesOff,respQ5.response,respQ5.rt,respQ6.response,respQ6.rt,respQ7.response,respQ7.rt,respQ8.response,respQ8.rt,surveyContinue2.numClicks,surveyContinue2.timesOn,surveyContinue2.timesOff,respQ9.response,respQ9.rt,respQ10.response,respQ10.rt,respQ11.response,respQ11.rt,respQ12.response,respQ12.rt,surveyContinue3.numClicks,surveyContinue3.timesOn,surveyContinue3.timesOff,respQ13.response,respQ13.rt,respQ14.response,respQ14.rt,respQ15.response,respQ15.rt,surveyContinue4.numClicks,surveyContinue4.timesOn,surveyContinue4.timesOff,respAge.response,respAge.rt,genderResp1.response,genderResp1.rt,genderResp2.text,demogexitClick.numClicks,demogexitClick.timesOn,demogexitClick.timesOff,textbox.text,openAnswerClick.numClicks,openAnswerClick.timesOn,openAnswerClick.timesOff,debriefEnd.keys,debriefEnd.rt,exitKey.keys,exitKey.rt
610f692da005a3d5df94125,1,[561.407200000018],[561.407200000018],814770,001,2023-09-28_13h03.44.788,fluency,2022.2.5,Win32,19.99680051,,,,,,,,,,,,,,,,,,,,,,,,,,,,,,,,,,,,,,,,,,,,,,,,,,,,,,,,,,,,,,,,,,,,,,,,,,,,,,,,,,,,,,,,,,,,,,,,,,,,,,,,,,,,,,,,,,,,,,,,,,,,,,,,,,,,,,,,,,,,,,,,,,,,,,,,,,,,,,,,,
,,,,814770,001,2023-09-28_13h03.44.788,fluency,2022.2.5,Win32,19.99680051,space,34.6648,,,,,,,,,,,,,,,,,,,,,,,,,,,,,,,,,,,,,,,,,,,,,,,,,,,,,,,,,,,,,,,,,,,,,,,,,,,,,,,,,,,,,,,,,,,,,,,,,,,,,,,,,,,,,,,,,,,,,,,,,,,,,,,,,,,,,,,,,,,,,,,,,,,,,,,,,,,,,,,
,,,,814770,001,2023-09-28_13h03.44.788,fluency,2022.2.5,Win32,19.99680051,,,space,14.3284,,,,,,,,,,,,,,,,,,,,,,,,,,,,,,,,,,,,,,,,,,,,,,,,,,,,,,,,,,,,,,,,,,,,,,,,,,,,,,,,,,,,,,,,,,,,,,,,,,,,,,,,,,,,,,,,,,,,,,,,,,,,,,,,,,,,,,,,,,,,,,,,,,,,,,,,,,,,,
,,,,814770,001,2023-09-28_13h03.44.788,fluency,2022.2.5,Win32,19.99680051,,,,,0.323148233,-0.367592635,1,0,0,28.514,iAgree,,,,,,,,,,,,,,,,,,,,,,,,,,,,,,,,,,,,,,,,,,,,,,,,,,,,,,,,,,,,,,,,,,,,,,,,,,,,,,,,,,,,,,,,,,,,,,,,,,,,,,,,,,,,,,,,,,,,,,,,,,,,,,,,,,,,,,,,,,,,,,,,,,,,,,
,,,,814770,001,2023-09-28_13h03.44.788,fluency,2022.2.5,Win32,19.99680051,,,,,,,,,,,,space,18.1757,,,,,,,,,,,,,,,,,,,,,,,,,,,,,,,,,,,,,,,,,,,,,,,,,,,,,,,,,,,,,,,,,,,,,,,,,,,,,,,,,,,,,,,,,,,,,,,,,,,,,,,,,,,,,,,,,,,,,,,,,,,,,,,,,,,,,,,,,,,,,,,,,,,,
,,,,814770,001,2023-09-28_13h03.44.788,fluency,2022.2.5,Win32,19.99680051,,,,,,,,,,,,,,space,13.0005,space,3.379,0,0,0,90,1,2,9,img/B09_02.jpg,GCNB,Press J if the face is GENDER-CONFORMING and K if the face is NONBINARY,Gender-conforming means that the face appears to be a typical example of its gender. Nonbinary means that the face does not conform to any particular gender norms.,JK,,,,,,,,,,,,,,,,,,,,,,,,,,,,,,,,,,,,,,,,,,,,,,,,,,,,,,,,,,,,,,,,,,,,,,,,,,,,,,,,,,,,,,,,,,,,,,,,,,,,,,,,,,,,,,,,,,,,,,,,,,,,,,,,,,,,
,,,,814770,001,2023-09-28_13h03.44.788,fluency,2022.2.5,Win32,19.99680051,,,,,,,,,,,,,,,,,,,,,,,,,,,,,,c,4.421,0,0,0,0,1,,,,,,,,,,,,,,,,,,,,,,,,,,,,,,,,,,,,,,,,,,,,,,,,,,,,,,,,,,,,,,,,,,,,,,,,,,,,,,,,,,,,,,,,,,,,,,,,,,,,,,,,,,,,,,,,,,,,,,,,,,,,,
,,,,814770,001,2023-09-28_13h03.44.788,fluency,2022.2.5,Win32,19.99680051,,,,,,,,,,,,,,,,,,,,,,,,,,,,,,,,,,,,,a,8.2154,0,0,0,0,1,,,,,,,,,,,,,,,,,,,,,,,,,,,,,,,,,,,,,,,,,,,,,,,,,,,,,,,,,,,,,,,,,,,,,,,,,,,,,,,,,,,,,,,,,,,,,,,,,,,,,,,,,,,,,,,,,,,,,,
,,,,814770,001,2023-09-28_13h03.44.788,fluency,2022.2.5,Win32,19.99680051,,,,,,,,,,,,,,,,,,,,,,,,,,,,,,,,,,,,,,,,,,,,c,3.2389,0,0,0,0,1,,,,,,,,,,,,,,,,,,,,,,,,,,,,,,,,,,,,,,,,,,,,,,,,,,,,,,,,,,,,,,,,,,,,,,,,,,,,,,,,,,,,,,,,,,,,,,,,,,,,,,,,,,,,,,,
,,,,814770,001,2023-09-28_13h03.44.788,fluency,2022.2.5,Win32,19.99680051,,,,,,,,,,,,,,,,,,,,,,,,,,,,,,,,,,,,,,,,,,,,,,,,,,,space,1.0416,j,0.9632,0,0,0,0,0,1,,,,,,,,,,,,,,,,,,,,,,,,,,,,,,,,,,,,,,,,,,,,,,,,,,,,,,,,,,,,,,,,,,,,,,,,,,,,,,,,,,,,,,,,,,,,,,,,,,,,,
,,,,814770,001,2023-09-28_13h03.44.788,fluency,2022.2.5,Win32,19.99680051,,,,,,,,,,,,,,,,,,,,,,,,,,,,,,,,,,,,,,,,,,,,,,,,,,,,,,,,,,,,,7,3.0307,0,0,0,0,1,,,,,,,,,,,,,,,,,,,,,,,,,,,,,,,,,,,,,,,,,,,,,,,,,,,,,,,,,,,,,,,,,,,,,,,,,,,,,,,,,,,,,,,,,,,,,,
,,,,814770,001,2023-09-28_13h03.44.788,fluency,2022.2.5,Win32,19.99680051,,,,,,,,,,,,,,,,,,,,,,,,,,,,,,,,,,,,,,,,,,,,,,,,,,,,,,,,,,,,,,,,,,,,space,2.1479,0,0,0,0,1,,,,,,,,,,,,,,,,,,,,,,,,,,,,,,,,,,,,,,,,,,,,,,,,,,,,,,,,,,,,,,,,,,,,,,,,,,,,,,,,,,,,,,,
,,,,814770,001,2023-09-28_13h03.44.788,fluency,2022.2.5,Win32,19.99680051,,,,,,,,,,,,,,,,,,,,,,,2,10,img/B10_02.jpg,GCNB,Press J if the face is GENDER-CONFORMING and K if the face is NONBINARY,Gender-conforming means that the face appears to be a typical example of its gender. Nonbinary means that the face does not conform to any particular gender norms.,JK,,,,,,,,,,,,,,,,,,,,,,,,,,,,,,,,,,,,,,,,,,,,,,719.6997,0,0,0,101,1,109,0,0,0,0,1,98,,,,,,,,,,,,,,,,,,,,,,,,,,,,,,,,,,,,,,,,,,,,,,,,,,,,,,,,,,,,,,,,,,,,,,,,,,
,,,,814770,001,2023-09-28_13h03.44.788,fluency,2022.2.5,Win32,19.99680051,,,,,,,,,,,,,,,,,,,,,,,,,,,,,,,,,,,,,,,,,,,,,,,,,,,,,,,,,,,,,,,,,,,,,,,,,,,,,,,,,,0,0,0,0,1,,"[""j""]",[0.6042999999822314],0,"[""j""]",[0.6042999999822314],,,,,,,,,,,,,,,,,,,,,,,,,,,,,,,,,,,,,,,,,,,,,,,,,,,,,,,,,,,,,,,,,,,,,
,,,,814770,001,2023-09-28_13h03.44.788,fluency,2022.2.5,Win32,19.99680051,,,,,,,,,,,,,,,,,,,,,,,2,10,img/B10_02.jpg,GCNB,Press J if the face is GENDER-CONFORMING and K if the face is NONBINARY,Gender-conforming means that the face appears to be a typical example of its gender. Nonbinary means that the face does not conform to any particular gender norms.,JK,,,,,,,,,,,,,,,,,,,,,,,,,,,,,,,,3,0.6752,,,,,,,,,,,,,,0,0,0,101,1,,,,,,,,,,,,,space,5.5838,,,,,,,,,,,,,,,,,,,,,,,,,,,,,,,,,,,,,,,,,,,,,,,,,,,,,,,,,,,,,,,,,,,
,,,,814770,001,2023-09-28_13h03.44.788,fluency,2022.2.5,Win32,19.99680051,,,,,,,,,,,,,,,,,,,,,,,3,3,img/B03_03.jpg,GCNB,Press J if the face is GENDER-CONFORMING and K if the face is NONBINARY,Gender-conforming means that the face appears to be a typical example of its gender. Nonbinary means that the face does not conform to any particular gender norms.,JK,,,,,,,,,,,,,,,,,,,,,,,,,,,,,,,,,,,,,,,,,,,,,,730.1201,0,1,1,25,1,109,0,0,0,0,1,98,,,,,,,,,,,,,,,,,,,,,,,,,,,,,,,,,,,,,,,,,,,,,,,,,,,,,,,,,,,,,,,,,,,,,,,,,,
,,,,814770,001,2023-09-28_13h03.44.788,fluency,2022.2.5,Win32,19.99680051,,,,,,,,,,,,,,,,,,,,,,,,,,,,,,,,,,,,,,,,,,,,,,,,,,,,,,,,,,,,,,,,,,,,,,,,,,,,,,,,,,0,0,0,0,1,,"[""j""]",[0.8105000000000473],0,"[""j""]",[0.8105000000000473],,,,,,,,,,,,,,,,,,,,,,,,,,,,,,,,,,,,,,,,,,,,,,,,,,,,,,,,,,,,,,,,,,,,,
,,,,814770,001,2023-09-28_13h03.44.788,fluency,2022.2.5,Win32,19.99680051,,,,,,,,,,,,,,,,,,,,,,,3,3,img/B03_03.jpg,GCNB,Press J if the face is GENDER-CONFORMING and K if the face is NONBINARY,Gender-conforming means that the face appears to be a typical example of its gender. Nonbinary means that the face does not conform to any particular gender norms.,JK,,,,,,,,,,,,,,,,,,,,,,,,,,,,,,,,5,0.5279,,,,,,,,,,,,,,0,1,1,25,1,,,,,,,,,,,,,space,7.1284,,,,,,,,,,,,,,,,,,,,,,,,,,,,,,,,,,,,,,,,,,,,,,,,,,,,,,,,,,,,,,,,,,,
,,,,814770,001,2023-09-28_13h03.44.788,fluency,2022.2.5,Win32,19.99680051,,,,,,,,,,,,,,,,,,,,,,,8,4,img/B04_08.jpg,GCNB,Press J if the face is GENDER-CONFORMING and K if the face is NONBINARY,Gender-conforming means that the face appears to be a typical example of its gender. Nonbinary means that the face does not conform to any particular gender norms.,JK,,,,,,,,,,,,,,,,,,,,,,,,,,,,,,,,,,,,,,,,,,,,,,741.9509,0,2,2,41,1,109,0,0,0,0,1,98,,,,,,,,,,,,,,,,,,,,,,,,,,,,,,,,,,,,,,,,,,,,,,,,,,,,,,,,,,,,,,,,,,,,,,,,,,
,,,,814770,001,2023-09-28_13h03.44.788,fluency,2022.2.5,Win32,19.99680051,,,,,,,,,,,,,,,,,,,,,,,,,,,,,,,,,,,,,,,,,,,,,,,,,,,,,,,,,,,,,,,,,,,,,,,,,,,,,,,,,,0,0,0,0,1,,"[""k""]",[1.0370000000000346],0,"[""k""]",[1.0370000000000346],,,,,,,,,,,,,,,,,,,,,,,,,,,,,,,,,,,,,,,,,,,,,,,,,,,,,,,,,,,,,,,,,,,,,
,,,,814770,001,2023-09-28_13h03.44.788,fluency,2022.2.5,Win32,19.99680051,,,,,,,,,,,,,,,,,,,,,,,8,4,img/B04_08.jpg,GCNB,Press J if the face is GENDER-CONFORMING and K if the face is NONBINARY,Gender-conforming means that the face appears to be a typical example of its gender. Nonbinary means that the face does not conform to any particular gender norms.,JK,,,,,,,,,,,,,,,,,,,,,,,,,,,,,,,,5,3.0484,,,,,,,,,,,,,,0,2,2,41,1,,,,,,,,,,,,,space,1.8585,,,,,,,,,,,,,,,,,,,,,,,,,,,,,,,,,,,,,,,,,,,,,,,,,,,,,,,,,,,,,,,,,,,
,,,,814770,001,2023-09-28_13h03.44.788,fluency,2022.2.5,Win32,19.99680051,,,,,,,,,,,,,,,,,,,,,,,3,8,img/B08_03.jpg,GCNB,Press J if the face is GENDER-CONFORMING and K if the face is NONBINARY,Gender-conforming means that the face appears to be a typical example of its gender. Nonbinary means that the face does not conform to any particular gender norms.,JK,,,,,,,,,,,,,,,,,,,,,,,,,,,,,,,,,,,,,,,,,,,,,,751.0552,0,3,3,80,1,109,0,0,0,0,1,98,,,,,,,,,,,,,,,,,,,,,,,,,,,,,,,,,,,,,,,,,,,,,,,,,,,,,,,,,,,,,,,,,,,,,,,,,,
,,,,814770,001,2023-09-28_13h03.44.788,fluency,2022.2.5,Win32,19.99680051,,,,,,,,,,,,,,,,,,,,,,,,,,,,,,,,,,,,,,,,,,,,,,,,,,,,,,,,,,,,,,,,,,,,,,,,,,,,,,,,,,0,0,0,0,1,,"[""j""]",[1.2653000000118482],0,"[""j""]",[1.2653000000118482],,,,,,,,,,,,,,,,,,,,,,,,,,,,,,,,,,,,,,,,,,,,,,,,,,,,,,,,,,,,,,,,,,,,,
,,,,814770,001,2023-09-28_13h03.44.788,fluency,2022.2.5,Win32,19.99680051,,,,,,,,,,,,,,,,,,,,,,,3,8,img/B08_03.jpg,GCNB,Press J if the face is GENDER-CONFORMING and K if the face is NONBINARY,Gender-conforming means that the face appears to be a typical example of its gender. Nonbinary means that the face does not conform to any particular gender norms.,JK,,,,,,,,,,,,,,,,,,,,,,,,,,,,,,,,4,0.807,,,,,,,,,,,,,,0,3,3,80,1,,,,,,,,,,,,,space,1.8117,,,,,,,,,,,,,,,,,,,,,,,,,,,,,,,,,,,,,,,,,,,,,,,,,,,,,,,,,,,,,,,,,,,
,,,,814770,001,2023-09-28_13h03.44.788,fluency,2022.2.5,Win32,19.99680051,,,,,,,,,,,,,,,,,,,,,,,2,5,img/B05_02.jpg,GCNB,Press J if the face is GENDER-CONFORMING and K if the face is NONBINARY,Gender-conforming means that the face appears to be a typical example of its gender. Nonbinary means that the face does not conform to any particular gender norms.,JK,,,,,,,,,,,,,,,,,,,,,,,,,,,,,,,,,,,,,,,,,,,,,,757.8457,0,4,4,46,1,109,0,0,0,0,1,98,,,,,,,,,,,,,,,,,,,,,,,,,,,,,,,,,,,,,,,,,,,,,,,,,,,,,,,,,,,,,,,,,,,,,,,,,,
,,,,814770,001,2023-09-28_13h03.44.788,fluency,2022.2.5,Win32,19.99680051,,,,,,,,,,,,,,,,,,,,,,,,,,,,,,,,,,,,,,,,,,,,,,,,,,,,,,,,,,,,,,,,,,,,,,,,,,,,,,,,,,0,0,0,0,1,,"[""k""]",[2.485099999993963],0,"[""k""]",[2.485099999993963],,,,,,,,,,,,,,,,,,,,,,,,,,,,,,,,,,,,,,,,,,,,,,,,,,,,,,,,,,,,,,,,,,,,,
,,,,814770,001,2023-09-28_13h03.44.788,fluency,2022.2.5,Win32,19.99680051,,,,,,,,,,,,,,,,,,,,,,,2,5,img/B05_02.jpg,GCNB,Press J if the face is GENDER-CONFORMING and K if the face is NONBINARY,Gender-conforming means that the face appears to be a typical example of its gender. Nonbinary means that the face does not conform to any particular gender norms.,JK,,,,,,,,,,,,,,,,,,,,,,,,,,,,,,,,2,1.2264,,,,,,,,,,,,,,0,4,4,46,1,,,,,,,,,,,,,space,1.2051,,,,,,,,,,,,,,,,,,,,,,,,,,,,,,,,,,,,,,,,,,,,,,,,,,,,,,,,,,,,,,,,,,,
,,,,814770,001,2023-09-28_13h03.44.788,fluency,2022.2.5,Win32,19.99680051,,,,,,,,,,,,,,,,,,,,,,,0,5,img/B05_00.jpg,GCNB,Press J if the face is GENDER-CONFORMING and K if the face is NONBINARY,Gender-conforming means that the face appears to be a typical example of its gender. Nonbinary means that the face does not conform to any particular gender norms.,JK,,,,,,,,,,,,,,,,,,,,,,,,,,,,,,,,,,,,,,,,,,,,,,765.4381,0,5,5,44,1,109,0,0,0,0,1,98,,,,,,,,,,,,,,,,,,,,,,,,,,,,,,,,,,,,,,,,,,,,,,,,,,,,,,,,,,,,,,,,,,,,,,,,,,
,,,,814770,001,2023-09-28_13h03.44.788,fluency,2022.2.5,Win32,19.99680051,,,,,,,,,,,,,,,,,,,,,,,,,,,,,,,,,,,,,,,,,,,,,,,,,,,,,,,,,,,,,,,,,,,,,,,,,,,,,,,,,,,,,,,,,,1,,,,,space,4.2619,0,0,0,0,1,,,,,,,,,,,,,,,,,,,,,,,,,,,,,,,,,,,,,,,,,,,,,,,,,,,,,,,,,,,,
,,,,814770,001,2023-09-28_13h03.44.788,fluency,2022.2.5,Win32,19.99680051,,,,,,,,,,,,,,,,,,,,,,,,,,,,,,,,,,,,,,,,,,,,,,,,,,,,,,,,,,,,,,,,,,,,,,,,,,,,,,,,,,0,0,0,0,1,,,,,,,,,,,,,,,,,,,,,,,,,,,,,,,,,,,,,,,,,,,,,,,,,,,,,,,,,,,,,,,,,,,,,,,,,,,
,,,,814770,001,2023-09-28_13h03.44.788,fluency,2022.2.5,Win32,19.99680051,,,,,,,,,,,,,,,,,,,,,,,0,5,img/B05_00.jpg,GCNB,Press J if the face is GENDER-CONFORMING and K if the face is NONBINARY,Gender-conforming means that the face appears to be a typical example of its gender. Nonbinary means that the face does not conform to any particular gender norms.,JK,,,,,,,,,,,,,,,,,,,,,,,,,,,,,,,,,,,,,,,,,,,,,,774.8497,0,5,5,44,1,109,1,0,1,0,1,98,,,,,,,,,,,,,,,,,,,,,,,,,,,,,,,,,,,,,,,,,,,,,,,,,,,,,,,,,,,,,,,,,,,,,,,,,,
,,,,814770,001,2023-09-28_13h03.44.788,fluency,2022.2.5,Win32,19.99680051,,,,,,,,,,,,,,,,,,,,,,,,,,,,,,,,,,,,,,,,,,,,,,,,,,,,,,,,,,,,,,,,,,,,,,,,,,,,,,,,,,1,0,1,0,1,,"[""k""]",[0.7497000000180378],1,"[""k""]",[0.7496000000239746],,,,,,,,,,,,,,,,,,,,,,,,,,,,,,,,,,,,,,,,,,,,,,,,,,,,,,,,,,,,,,,,,,,,,
,,,,814770,001,2023-09-28_13h03.44.788,fluency,2022.2.5,Win32,19.99680051,,,,,,,,,,,,,,,,,,,,,,,0,5,img/B05_00.jpg,GCNB,Press J if the face is GENDER-CONFORMING and K if the face is NONBINARY,Gender-conforming means that the face appears to be a typical example of its gender. Nonbinary means that the face does not conform to any particular gender norms.,JK,,,,,,,,,,,,,,,,,,,,,,,,,,,,,,,,3,0.371,,,,,,,,,,,,,,0,5,5,44,1,,,,,,,,,,,,,space,1.4965,,,,,,,,,,,,,,,,,,,,,,,,,,,,,,,,,,,,,,,,,,,,,,,,,,,,,,,,,,,,,,,,,,,
,,,,814770,001,2023-09-28_13h03.44.788,fluency,2022.2.5,Win32,19.99680051,,,,,,,,,,,,,,,,,,,,,,,7,2,img/B02_07.jpg,GCNB,Press J if the face is GENDER-CONFORMING and K if the face is NONBINARY,Gender-conforming means that the face appears to be a typical example of its gender. Nonbinary means that the face does not conform to any particular gender norms.,JK,,,,,,,,,,,,,,,,,,,,,,,,,,,,,,,,,,,,,,,,,,,,,,781.9366,0,6,6,18,1,109,0,0,0,0,1,98,,,,,,,,,,,,,,,,,,,,,,,,,,,,,,,,,,,,,,,,,,,,,,,,,,,,,,,,,,,,,,,,,,,,,,,,,,
,,,,814770,001,2023-09-28_13h03.44.788,fluency,2022.2.5,Win32,19.99680051,,,,,,,,,,,,,,,,,,,,,,,,,,,,,,,,,,,,,,,,,,,,,,,,,,,,,,,,,,,,,,,,,,,,,,,,,,,,,,,,,,0,0,0,0,1,,"[""j""]",[1.2515000000000782],1,"[""j""]",[1.2515000000000782],,,,,,,,,,,,,,,,,,,,,,,,,,,,,,,,,,,,,,,,,,,,,,,,,,,,,,,,,,,,,,,,,,,,,
,,,,814770,001,2023-09-28_13h03.44.788,fluency,2022.2.5,Win32,19.99680051,,,,,,,,,,,,,,,,,,,,,,,7,2,img/B02_07.jpg,GCNB,Press J if the face is GENDER-CONFORMING and K if the face is NONBINARY,Gender-conforming means that the face appears to be a typical example of its gender. Nonbinary means that the face does not conform to any particular gender norms.,JK,,,,,,,,,,,,,,,,,,,,,,,,,,,,,,,,2,0.3752,,,,,,,,,,,,,,0,6,6,18,1,,,,,,,,,,,,,space,1.0969,,,,,,,,,,,,,,,,,,,,,,,,,,,,,,,,,,,,,,,,,,,,,,,,,,,,,,,,,,,,,,,,,,,
,,,,814770,001,2023-09-28_13h03.44.788,fluency,2022.2.5,Win32,19.99680051,,,,,,,,,,,,,,,,,,,,,,,6,9,img/B09_06.jpg,GCNB,Press J if the face is GENDER-CONFORMING and K if the face is NONBINARY,Gender-conforming means that the face appears to be a typical example of its gender. Nonbinary means that the face does not conform to any particular gender norms.,JK,,,,,,,,,,,,,,,,,,,,,,,,,,,,,,,,,,,,,,,,,,,,,,787.5855,0,7,7,94,1,109,0,0,0,0,1,98,,,,,,,,,,,,,,,,,,,,,,,,,,,,,,,,,,,,,,,,,,,,,,,,,,,,,,,,,,,,,,,,,,,,,,,,,,
,,,,814770,001,2023-09-28_13h03.44.788,fluency,2022.2.5,Win32,19.99680051,,,,,,,,,,,,,,,,,,,,,,,,,,,,,,,,,,,,,,,,,,,,,,,,,,,,,,,,,,,,,,,,,,,,,,,,,,,,,,,,,,,,,,,,,,2,,,,,space,1.053,0,0,0,0,1,,,,,,,,,,,,,,,,,,,,,,,,,,,,,,,,,,,,,,,,,,,,,,,,,,,,,,,,,,,,
,,,,814770,001,2023-09-28_13h03.44.788,fluency,2022.2.5,Win32,19.99680051,,,,,,,,,,,,,,,,,,,,,,,,,,,,,,,,,,,,,,,,,,,,,,,,,,,,,,,,,,,,,,,,,,,,,,,,,,,,,,,,,,0,0,0,0,1,,,,,,,,,,,,,,,,,,,,,,,,,,,,,,,,,,,,,,,,,,,,,,,,,,,,,,,,,,,,,,,,,,,,,,,,,,,
,,,,814770,001,2023-09-28_13h03.44.788,fluency,2022.2.5,Win32,19.99680051,,,,,,,,,,,,,,,,,,,,,,,6,9,img/B09_06.jpg,GCNB,Press J if the face is GENDER-CONFORMING and K if the face is NONBINARY,Gender-conforming means that the face appears to be a typical example of its gender. Nonbinary means that the face does not conform to any particular gender norms.,JK,,,,,,,,,,,,,,,,,,,,,,,,,,,,,,,,,,,,,,,,,,,,,,792.7322,0,7,7,94,1,109,1,0,1,0,1,98,,,,,,,,,,,,,,,,,,,,,,,,,,,,,,,,,,,,,,,,,,,,,,,,,,,,,,,,,,,,,,,,,,,,,,,,,,
,,,,814770,001,2023-09-28_13h03.44.788,fluency,2022.2.5,Win32,19.99680051,,,,,,,,,,,,,,,,,,,,,,,,,,,,,,,,,,,,,,,,,,,,,,,,,,,,,,,,,,,,,,,,,,,,,,,,,,,,,,,,,,1,0,1,0,1,,"[""j""]",[0.7555999999940468],2,"[""j""]",[0.7555999999940468],,,,,,,,,,,,,,,,,,,,,,,,,,,,,,,,,,,,,,,,,,,,,,,,,,,,,,,,,,,,,,,,,,,,,
,,,,814770,001,2023-09-28_13h03.44.788,fluency,2022.2.5,Win32,19.99680051,,,,,,,,,,,,,,,,,,,,,,,6,9,img/B09_06.jpg,GCNB,Press J if the face is GENDER-CONFORMING and K if the face is NONBINARY,Gender-conforming means that the face appears to be a typical example of its gender. Nonbinary means that the face does not conform to any particular gender norms.,JK,,,,,,,,,,,,,,,,,,,,,,,,,,,,,,,,3,0.4295,,,,,,,,,,,,,,0,7,7,94,1,,,,,,,,,,,,,space,0.9626,,,,,,,,,,,,,,,,,,,,,,,,,,,,,,,,,,,,,,,,,,,,,,,,,,,,,,,,,,,,,,,,,,,
,,,,814770,001,2023-09-28_13h03.44.788,fluency,2022.2.5,Win32,19.99680051,,,,,,,,,,,,,,,,,,,,,,,7,3,img/B03_07.jpg,GCNB,Press J if the face is GENDER-CONFORMING and K if the face is NONBINARY,Gender-conforming means that the face appears to be a typical example of its gender. Nonbinary means that the face does not conform to any particular gender norms.,JK,,,,,,,,,,,,,,,,,,,,,,,,,,,,,,,,,,,,,,,,,,,,,,798.2498,0,8,8,29,1,109,0,0,0,0,1,98,,,,,,,,,,,,,,,,,,,,,,,,,,,,,,,,,,,,,,,,,,,,,,,,,,,,,,,,,,,,,,,,,,,,,,,,,,
,,,,814770,001,2023-09-28_13h03.44.788,fluency,2022.2.5,Win32,19.99680051,,,,,,,,,,,,,,,,,,,,,,,,,,,,,,,,,,,,,,,,,,,,,,,,,,,,,,,,,,,,,,,,,,,,,,,,,,,,,,,,,,0,0,0,0,1,,"[""k""]",[0.9748999999762873],2,"[""k""]",[0.9748999999762873],,,,,,,,,,,,,,,,,,,,,,,,,,,,,,,,,,,,,,,,,,,,,,,,,,,,,,,,,,,,,,,,,,,,,
,,,,814770,001,2023-09-28_13h03.44.788,fluency,2022.2.5,Win32,19.99680051,,,,,,,,,,,,,,,,,,,,,,,7,3,img/B03_07.jpg,GCNB,Press J if the face is GENDER-CONFORMING and K if the face is NONBINARY,Gender-conforming means that the face appears to be a typical example of its gender. Nonbinary means that the face does not conform to any particular gender norms.,JK,,,,,,,,,,,,,,,,,,,,,,,,,,,,,,,,4,1.2307,,,,,,,,,,,,,,0,8,8,29,1,,,,,,,,,,,,,space,0.7998,,,,,,,,,,,,,,,,,,,,,,,,,,,,,,,,,,,,,,,,,,,,,,,,,,,,,,,,,,,,,,,,,,,
,,,,814770,001,2023-09-28_13h03.44.788,fluency,2022.2.5,Win32,19.99680051,,,,,,,,,,,,,,,,,,,,,,,1,8,img/B08_01.jpg,GCNB,Press J if the face is GENDER-CONFORMING and K if the face is NONBINARY,Gender-conforming means that the face appears to be a typical example of its gender. Nonbinary means that the face does not conform to any particular gender norms.,JK,,,,,,,,,,,,,,,,,,,,,,,,,,,,,,,,,,,,,,,,,,,,,,804.4107,0,9,9,78,1,109,0,0,0,0,1,98,,,,,,,,,,,,,,,,,,,,,,,,,,,,,,,,,,,,,,,,,,,,,,,,,,,,,,,,,,,,,,,,,,,,,,,,,,
,,,,814770,001,2023-09-28_13h03.44.788,fluency,2022.2.5,Win32,19.99680051,,,,,,,,,,,,,,,,,,,,,,,,,,,,,,,,,,,,,,,,,,,,,,,,,,,,,,,,,,,,,,,,,,,,,,,,,,,,,,,,,,0,0,0,0,1,,"[""j""]",[1.8241999999879681],2,"[""j""]",[1.8240999999941323],,,,,,,,,,,,,,,,,,,,,,,,,,,,,,,,,,,,,,,,,,,,,,,,,,,,,,,,,,,,,,,,,,,,,
,,,,814770,001,2023-09-28_13h03.44.788,fluency,2022.2.5,Win32,19.99680051,,,,,,,,,,,,,,,,,,,,,,,1,8,img/B08_01.jpg,GCNB,Press J if the face is GENDER-CONFORMING and K if the face is NONBINARY,Gender-conforming means that the face appears to be a typical example of its gender. Nonbinary means that the face does not conform to any particular gender norms.,JK,,,,,,,,,,,,,,,,,,,,,,,,,,,,,,,,4,1.2126,,,,,,,,,,,,,,0,9,9,78,1,,,,,,,,,,,,,space,0.8097,,,,,,,,,,,,,,,,,,,,,,,,,,,,,,,,,,,,,,,,,,,,,,,,,,,,,,,,,,,,,,,,,,,
,,,,814770,001,2023-09-28_13h03.44.788,fluency,2022.2.5,Win32,19.99680051,,,,,,,,,,,,,,,,,,,,,,,10,10,img/B10_10.jpg,GCNB,Press J if the face is GENDER-CONFORMING and K if the face is NONBINARY,Gender-conforming means that the face appears to be a typical example of its gender. Nonbinary means that the face does not conform to any particular gender norms.,JK,,,,,,,,,,,,,,,,,,,,,,,,,,,,,,,,,,,,,,,,,,,,,,810.6336,0,10,10,109,1,109,0,0,0,0,1,98,,,,,,,,,,,,,,,,,,,,,,,,,,,,,,,,,,,,,,,,,,,,,,,,,,,,,,,,,,,,,,,,,,,,,,,,,,
,,,,814770,001,2023-09-28_13h03.44.788,fluency,2022.2.5,Win32,19.99680051,,,,,,,,,,,,,,,,,,,,,,,,,,,,,,,,,,,,,,,,,,,,,,,,,,,,,,,,,,,,,,,,,,,,,,,,,,,,,,,,,,0,0,0,0,1,,"[""j""]",[1.9058000000118227],2,"[""j""]",[1.9058000000118227],,,,,,,,,,,,,,,,,,,,,,,,,,,,,,,,,,,,,,,,,,,,,,,,,,,,,,,,,,,,,,,,,,,,,
,,,,814770,001,2023-09-28_13h03.44.788,fluency,2022.2.5,Win32,19.99680051,,,,,,,,,,,,,,,,,,,,,,,10,10,img/B10_10.jpg,GCNB,Press J if the face is GENDER-CONFORMING and K if the face is NONBINARY,Gender-conforming means that the face appears to be a typical example of its gender. Nonbinary means that the face does not conform to any particular gender norms.,JK,,,,,,,,,,,,,,,,,,,,,,,,,,,,,,,,1,0.5766,,,,,,,,,,,,,,0,10,10,109,1,,,,,,,,,,,,,space,0.9541,,,,,,,,,,,,,,,,,,,,,,,,,,,,,,,,,,,,,,,,,,,,,,,,,,,,,,,,,,,,,,,,,,,
,,,,814770,001,2023-09-28_13h03.44.788,fluency,2022.2.5,Win32,19.99680051,,,,,,,,,,,,,,,,,,,,,,,6,5,img/B05_06.jpg,GCNB,Press J if the face is GENDER-CONFORMING and K if the face is NONBINARY,Gender-conforming means that the face appears to be a typical example of its gender. Nonbinary means that the face does not conform to any particular gender norms.,JK,,,,,,,,,,,,,,,,,,,,,,,,,,,,,,,,,,,,,,,,,,,,,,816.3092,0,11,11,50,1,109,0,0,0,0,1,98,,,,,,,,,,,,,,,,,,,,,,,,,,,,,,,,,,,,,,,,,,,,,,,,,,,,,,,,,,,,,,,,,,,,,,,,,,
,,,,814770,001,2023-09-28_13h03.44.788,fluency,2022.2.5,Win32,19.99680051,,,,,,,,,,,,,,,,,,,,,,,,,,,,,,,,,,,,,,,,,,,,,,,,,,,,,,,,,,,,,,,,,,,,,,,,,,,,,,,,,,,,,,,,,,3,,,,,space,3.6958,0,0,0,0,1,,,,,,,,,,,,,,,,,,,,,,,,,,,,,,,,,,,,,,,,,,,,,,,,,,,,,,,,,,,,
,,,,814770,001,2023-09-28_13h03.44.788,fluency,2022.2.5,Win32,19.99680051,,,,,,,,,,,,,,,,,,,,,,,,,,,,,,,,,,,,,,,,,,,,,,,,,,,,,,,,,,,,,,,,,,,,,,,,,,,,,,,,,,0,0,0,0,1,,,,,,,,,,,,,,,,,,,,,,,,,,,,,,,,,,,,,,,,,,,,,,,,,,,,,,,,,,,,,,,,,,,,,,,,,,,
,,,,814770,001,2023-09-28_13h03.44.788,fluency,2022.2.5,Win32,19.99680051,,,,,,,,,,,,,,,,,,,,,,,6,5,img/B05_06.jpg,GCNB,Press J if the face is GENDER-CONFORMING and K if the face is NONBINARY,Gender-conforming means that the face appears to be a typical example of its gender. Nonbinary means that the face does not conform to any particular gender norms.,JK,,,,,,,,,,,,,,,,,,,,,,,,,,,,,,,,,,,,,,,,,,,,,,825.1552,0,11,11,50,1,109,1,0,1,0,1,98,,,,,,,,,,,,,,,,,,,,,,,,,,,,,,,,,,,,,,,,,,,,,,,,,,,,,,,,,,,,,,,,,,,,,,,,,,
,,,,814770,001,2023-09-28_13h03.44.788,fluency,2022.2.5,Win32,19.99680051,,,,,,,,,,,,,,,,,,,,,,,,,,,,,,,,,,,,,,,,,,,,,,,,,,,,,,,,,,,,,,,,,,,,,,,,,,,,,,,,,,1,0,1,0,1,,"[""j""]",[0.44849999999996726],3,"[""j""]",[0.44849999999996726],,,,,,,,,,,,,,,,,,,,,,,,,,,,,,,,,,,,,,,,,,,,,,,,,,,,,,,,,,,,,,,,,,,,,
,,,,814770,001,2023-09-28_13h03.44.788,fluency,2022.2.5,Win32,19.99680051,,,,,,,,,,,,,,,,,,,,,,,6,5,img/B05_06.jpg,GCNB,Press J if the face is GENDER-CONFORMING and K if the face is NONBINARY,Gender-conforming means that the face appears to be a typical example of its gender. Nonbinary means that the face does not conform to any particular gender norms.,JK,,,,,,,,,,,,,,,,,,,,,,,,,,,,,,,,3,0.3568,,,,,,,,,,,,,,0,11,11,50,1,,,,,,,,,,,,,space,0.823,,,,,,,,,,,,,,,,,,,,,,,,,,,,,,,,,,,,,,,,,,,,,,,,,,,,,,,,,,,,,,,,,,,
,,,,814770,001,2023-09-28_13h03.44.788,fluency,2022.2.5,Win32,19.99680051,,,,,,,,,,,,,,,,,,,,,,,1,7,img/B07_01.jpg,GCNB,Press J if the face is GENDER-CONFORMING and K if the face is NONBINARY,Gender-conforming means that the face appears to be a typical example of its gender. Nonbinary means that the face does not conform to any particular gender norms.,JK,,,,,,,,,,,,,,,,,,,,,,,,,,,,,,,,,,,,,,,,,,,,,,830.5291,0,12,12,67,1,109,0,0,0,0,1,98,,,,,,,,,,,,,,,,,,,,,,,,,,,,,,,,,,,,,,,,,,,,,,,,,,,,,,,,,,,,,,,,,,,,,,,,,,
,,,,814770,001,2023-09-28_13h03.44.788,fluency,2022.2.5,Win32,19.99680051,,,,,,,,,,,,,,,,,,,,,,,,,,,,,,,,,,,,,,,,,,,,,,,,,,,,,,,,,,,,,,,,,,,,,,,,,,,,,,,,,,0,0,0,0,1,,"[""j""]",[1.4043000000119719],3,"[""j""]",[1.4042000000179087],,,,,,,,,,,,,,,,,,,,,,,,,,,,,,,,,,,,,,,,,,,,,,,,,,,,,,,,,,,,,,,,,,,,,
,,,,814770,001,2023-09-28_13h03.44.788,fluency,2022.2.5,Win32,19.99680051,,,,,,,,,,,,,,,,,,,,,,,1,7,img/B07_01.jpg,GCNB,Press J if the face is GENDER-CONFORMING and K if the face is NONBINARY,Gender-conforming means that the face appears to be a typical example of its gender. Nonbinary means that the face does not conform to any particular gender norms.,JK,,,,,,,,,,,,,,,,,,,,,,,,,,,,,,,,2,0.3675,,,,,,,,,,,,,,0,12,12,67,1,,,,,,,,,,,,,space,0.4526,,,,,,,,,,,,,,,,,,,,,,,,,,,,,,,,,,,,,,,,,,,,,,,,,,,,,,,,,,,,,,,,,,,
,,,,814770,001,2023-09-28_13h03.44.788,fluency,2022.2.5,Win32,19.99680051,,,,,,,,,,,,,,,,,,,,,,,8,6,img/B06_08.jpg,GCNB,Press J if the face is GENDER-CONFORMING and K if the face is NONBINARY,Gender-conforming means that the face appears to be a typical example of its gender. Nonbinary means that the face does not conform to any particular gender norms.,JK,,,,,,,,,,,,,,,,,,,,,,,,,,,,,,,,,,,,,,,,,,,,,,836.4754,0,13,13,63,1,109,0,0,0,0,1,98,,,,,,,,,,,,,,,,,,,,,,,,,,,,,,,,,,,,,,,,,,,,,,,,,,,,,,,,,,,,,,,,,,,,,,,,,,
,,,,814770,001,2023-09-28_13h03.44.788,fluency,2022.2.5,Win32,19.99680051,,,,,,,,,,,,,,,,,,,,,,,,,,,,,,,,,,,,,,,,,,,,,,,,,,,,,,,,,,,,,,,,,,,,,,,,,,,,,,,,,,0,0,0,0,1,,"[""j""]",[1.0959000000059405],3,"[""j""]",[1.0959000000059405],,,,,,,,,,,,,,,,,,,,,,,,,,,,,,,,,,,,,,,,,,,,,,,,,,,,,,,,,,,,,,,,,,,,,
,,,,814770,001,2023-09-28_13h03.44.788,fluency,2022.2.5,Win32,19.99680051,,,,,,,,,,,,,,,,,,,,,,,8,6,img/B06_08.jpg,GCNB,Press J if the face is GENDER-CONFORMING and K if the face is NONBINARY,Gender-conforming means that the face appears to be a typical example of its gender. Nonbinary means that the face does not conform to any particular gender norms.,JK,,,,,,,,,,,,,,,,,,,,,,,,,,,,,,,,3,0.4312,,,,,,,,,,,,,,0,13,13,63,1,,,,,,,,,,,,,space,0.6,,,,,,,,,,,,,,,,,,,,,,,,,,,,,,,,,,,,,,,,,,,,,,,,,,,,,,,,,,,,,,,,,,,
,,,,814770,001,2023-09-28_13h03.44.788,fluency,2022.2.5,Win32,19.99680051,,,,,,,,,,,,,,,,,,,,,,,1,9,img/B09_01.jpg,GCNB,Press J if the face is GENDER-CONFORMING and K if the face is NONBINARY,Gender-conforming means that the face appears to be a typical example of its gender. Nonbinary means that the face does not conform to any particular gender norms.,JK,,,,,,,,,,,,,,,,,,,,,,,,,,,,,,,,,,,,,,,,,,,,,,842.7108,0,14,14,89,1,109,0,0,0,0,1,98,,,,,,,,,,,,,,,,,,,,,,,,,,,,,,,,,,,,,,,,,,,,,,,,,,,,,,,,,,,,,,,,,,,,,,,,,,
,,,,814770,001,2023-09-28_13h03.44.788,fluency,2022.2.5,Win32,19.99680051,,,,,,,,,,,,,,,,,,,,,,,,,,,,,,,,,,,,,,,,,,,,,,,,,,,,,,,,,,,,,,,,,,,,,,,,,,,,,,,,,,0,0,0,0,1,,"[""j""]",[1.1882000000180142],3,"[""j""]",[1.1882000000180142],,,,,,,,,,,,,,,,,,,,,,,,,,,,,,,,,,,,,,,,,,,,,,,,,,,,,,,,,,,,,,,,,,,,,
,,,,814770,001,2023-09-28_13h03.44.788,fluency,2022.2.5,Win32,19.99680051,,,,,,,,,,,,,,,,,,,,,,,1,9,img/B09_01.jpg,GCNB,Press J if the face is GENDER-CONFORMING and K if the face is NONBINARY,Gender-conforming means that the face appears to be a typical example of its gender. Nonbinary means that the face does not conform to any particular gender norms.,JK,,,,,,,,,,,,,,,,,,,,,,,,,,,,,,,,5,0.6557,,,,,,,,,,,,,,0,14,14,89,1,,,,,,,,,,,,,space,0.8732,,,,,,,,,,,,,,,,,,,,,,,,,,,,,,,,,,,,,,,,,,,,,,,,,,,,,,,,,,,,,,,,,,,
,,,,814770,001,2023-09-28_13h03.44.788,fluency,2022.2.5,Win32,19.99680051,,,,,,,,,,,,,,,,,,,,,,,10,5,img/B05_10.jpg,GCNB,Press J if the face is GENDER-CONFORMING and K if the face is NONBINARY,Gender-conforming means that the face appears to be a typical example of its gender. Nonbinary means that the face does not conform to any particular gender norms.,JK,,,,,,,,,,,,,,,,,,,,,,,,,,,,,,,,,,,,,,,,,,,,,,849.3647,0,15,15,54,1,109,0,0,0,0,1,98,,,,,,,,,,,,,,,,,,,,,,,,,,,,,,,,,,,,,,,,,,,,,,,,,,,,,,,,,,,,,,,,,,,,,,,,,,
,,,,814770,001,2023-09-28_13h03.44.788,fluency,2022.2.5,Win32,19.99680051,,,,,,,,,,,,,,,,,,,,,,,,,,,,,,,,,,,,,,,,,,,,,,,,,,,,,,,,,,,,,,,,,,,,,,,,,,,,,,,,,,0,0,0,0,1,,"[""j""]",[2.1346999999880154],3,"[""j""]",[2.1346999999880154],,,,,,,,,,,,,,,,,,,,,,,,,,,,,,,,,,,,,,,,,,,,,,,,,,,,,,,,,,,,,,,,,,,,,
,,,,814770,001,2023-09-28_13h03.44.788,fluency,2022.2.5,Win32,19.99680051,,,,,,,,,,,,,,,,,,,,,,,10,5,img/B05_10.jpg,GCNB,Press J if the face is GENDER-CONFORMING and K if the face is NONBINARY,Gender-conforming means that the face appears to be a typical example of its gender. Nonbinary means that the face does not conform to any particular gender norms.,JK,,,,,,,,,,,,,,,,,,,,,,,,,,,,,,,,2,1.0295,,,,,,,,,,,,,,0,15,15,54,1,,,,,,,,,,,,,space,0.576,,,,,,,,,,,,,,,,,,,,,,,,,,,,,,,,,,,,,,,,,,,,,,,,,,,,,,,,,,,,,,,,,,,
,,,,814770,001,2023-09-28_13h03.44.788,fluency,2022.2.5,Win32,19.99680051,,,,,,,,,,,,,,,,,,,,,,,4,1,img/B01_04.jpg,GCNB,Press J if the face is GENDER-CONFORMING and K if the face is NONBINARY,Gender-conforming means that the face appears to be a typical example of its gender. Nonbinary means that the face does not conform to any particular gender norms.,JK,,,,,,,,,,,,,,,,,,,,,,,,,,,,,,,,,,,,,,,,,,,,,,856.1089,0,16,16,4,1,109,0,0,0,0,1,98,,,,,,,,,,,,,,,,,,,,,,,,,,,,,,,,,,,,,,,,,,,,,,,,,,,,,,,,,,,,,,,,,,,,,,,,,,
,,,,814770,001,2023-09-28_13h03.44.788,fluency,2022.2.5,Win32,19.99680051,,,,,,,,,,,,,,,,,,,,,,,,,,,,,,,,,,,,,,,,,,,,,,,,,,,,,,,,,,,,,,,,,,,,,,,,,,,,,,,,,,0,0,0,0,1,,"[""k""]",[2.4423000000119828],3,"[""k""]",[2.4423000000119828],,,,,,,,,,,,,,,,,,,,,,,,,,,,,,,,,,,,,,,,,,,,,,,,,,,,,,,,,,,,,,,,,,,,,
,,,,814770,001,2023-09-28_13h03.44.788,fluency,2022.2.5,Win32,19.99680051,,,,,,,,,,,,,,,,,,,,,,,4,1,img/B01_04.jpg,GCNB,Press J if the face is GENDER-CONFORMING and K if the face is NONBINARY,Gender-conforming means that the face appears to be a typical example of its gender. Nonbinary means that the face does not conform to any particular gender norms.,JK,,,,,,,,,,,,,,,,,,,,,,,,,,,,,,,,2,2.6949,,,,,,,,,,,,,,0,16,16,4,1,,,,,,,,,,,,,space,2.2146,,,,,,,,,,,,,,,,,,,,,,,,,,,,,,,,,,,,,,,,,,,,,,,,,,,,,,,,,,,,,,,,,,,
,,,,814770,001,2023-09-28_13h03.44.788,fluency,2022.2.5,Win32,19.99680051,,,,,,,,,,,,,,,,,,,,,,,0,1,img/B01_00.jpg,GCNB,Press J if the face is GENDER-CONFORMING and K if the face is NONBINARY,Gender-conforming means that the face appears to be a typical example of its gender. Nonbinary means that the face does not conform to any particular gender norms.,JK,,,,,,,,,,,,,,,,,,,,,,,,,,,,,,,,,,,,,,,,,,,,,,865.1882,0,17,17,0,1,109,0,0,0,0,1,98,,,,,,,,,,,,,,,,,,,,,,,,,,,,,,,,,,,,,,,,,,,,,,,,,,,,,,,,,,,,,,,,,,,,,,,,,,
,,,,814770,001,2023-09-28_13h03.44.788,fluency,2022.2.5,Win32,19.99680051,,,,,,,,,,,,,,,,,,,,,,,,,,,,,,,,,,,,,,,,,,,,,,,,,,,,,,,,,,,,,,,,,,,,,,,,,,,,,,,,,,0,0,0,0,1,,"[""j""]",[1.4920999999942524],3,"[""j""]",[1.4920999999942524],,,,,,,,,,,,,,,,,,,,,,,,,,,,,,,,,,,,,,,,,,,,,,,,,,,,,,,,,,,,,,,,,,,,,
,,,,814770,001,2023-09-28_13h03.44.788,fluency,2022.2.5,Win32,19.99680051,,,,,,,,,,,,,,,,,,,,,,,0,1,img/B01_00.jpg,GCNB,Press J if the face is GENDER-CONFORMING and K if the face is NONBINARY,Gender-conforming means that the face appears to be a typical example of its gender. Nonbinary means that the face does not conform to any particular gender norms.,JK,,,,,,,,,,,,,,,,,,,,,,,,,,,,,,,,1,0.3774,,,,,,,,,,,,,,0,17,17,0,1,,,,,,,,,,,,,space,0.5203,,,,,,,,,,,,,,,,,,,,,,,,,,,,,,,,,,,,,,,,,,,,,,,,,,,,,,,,,,,,,,,,,,,
,,,,814770,001,2023-09-28_13h03.44.788,fluency,2022.2.5,Win32,19.99680051,,,,,,,,,,,,,,,,,,,,,,,10,1,img/B01_10.jpg,GCNB,Press J if the face is GENDER-CONFORMING and K if the face is NONBINARY,Gender-conforming means that the face appears to be a typical example of its gender. Nonbinary means that the face does not conform to any particular gender norms.,JK,,,,,,,,,,,,,,,,,,,,,,,,,,,,,,,,,,,,,,,,,,,,,,870.2416,0,18,18,10,1,109,0,0,0,0,1,98,,,,,,,,,,,,,,,,,,,,,,,,,,,,,,,,,,,,,,,,,,,,,,,,,,,,,,,,,,,,,,,,,,,,,,,,,,
,,,,814770,001,2023-09-28_13h03.44.788,fluency,2022.2.5,Win32,19.99680051,,,,,,,,,,,,,,,,,,,,,,,,,,,,,,,,,,,,,,,,,,,,,,,,,,,,,,,,,,,,,,,,,,,,,,,,,,,,,,,,,,0,0,0,0,1,,"[""k""]",[2.041599999994105],3,"[""k""]",[2.041599999994105],,,,,,,,,,,,,,,,,,,,,,,,,,,,,,,,,,,,,,,,,,,,,,,,,,,,,,,,,,,,,,,,,,,,,
,,,,814770,001,2023-09-28_13h03.44.788,fluency,2022.2.5,Win32,19.99680051,,,,,,,,,,,,,,,,,,,,,,,10,1,img/B01_10.jpg,GCNB,Press J if the face is GENDER-CONFORMING and K if the face is NONBINARY,Gender-conforming means that the face appears to be a typical example of its gender. Nonbinary means that the face does not conform to any particular gender norms.,JK,,,,,,,,,,,,,,,,,,,,,,,,,,,,,,,,4,1.2495,,,,,,,,,,,,,,0,18,18,10,1,,,,,,,,,,,,,space,2.4882,,,,,,,,,,,,,,,,,,,,,,,,,,,,,,,,,,,,,,,,,,,,,,,,,,,,,,,,,,,,,,,,,,,
,,,,814770,001,2023-09-28_13h03.44.788,fluency,2022.2.5,Win32,19.99680051,,,,,,,,,,,,,,,,,,,,,,,2,3,img/B03_02.jpg,GCNB,Press J if the face is GENDER-CONFORMING and K if the face is NONBINARY,Gender-conforming means that the face appears to be a typical example of its gender. Nonbinary means that the face does not conform to any particular gender norms.,JK,,,,,,,,,,,,,,,,,,,,,,,,,,,,,,,,,,,,,,,,,,,,,,879.1297,0,19,19,24,1,109,0,0,0,0,1,98,,,,,,,,,,,,,,,,,,,,,,,,,,,,,,,,,,,,,,,,,,,,,,,,,,,,,,,,,,,,,,,,,,,,,,,,,,
,,,,814770,001,2023-09-28_13h03.44.788,fluency,2022.2.5,Win32,19.99680051,,,,,,,,,,,,,,,,,,,,,,,,,,,,,,,,,,,,,,,,,,,,,,,,,,,,,,,,,,,,,,,,,,,,,,,,,,,,,,,,,,0,0,0,0,1,,"[""j""]",[1.040800000012041],3,"[""j""]",[1.040800000012041],,,,,,,,,,,,,,,,,,,,,,,,,,,,,,,,,,,,,,,,,,,,,,,,,,,,,,,,,,,,,,,,,,,,,
,,,,814770,001,2023-09-28_13h03.44.788,fluency,2022.2.5,Win32,19.99680051,,,,,,,,,,,,,,,,,,,,,,,2,3,img/B03_02.jpg,GCNB,Press J if the face is GENDER-CONFORMING and K if the face is NONBINARY,Gender-conforming means that the face appears to be a typical example of its gender. Nonbinary means that the face does not conform to any particular gender norms.,JK,,,,,,,,,,,,,,,,,,,,,,,,,,,,,,,,5,0.3016,,,,,,,,,,,,,,0,19,19,24,1,,,,,,,,,,,,,space,0.5049,,,,,,,,,,,,,,,,,,,,,,,,,,,,,,,,,,,,,,,,,,,,,,,,,,,,,,,,,,,,,,,,,,,
,,,,814770,001,2023-09-28_13h03.44.788,fluency,2022.2.5,Win32,19.99680051,,,,,,,,,,,,,,,,,,,,,,,3,7,img/B07_03.jpg,GCNB,Press J if the face is GENDER-CONFORMING and K if the face is NONBINARY,Gender-conforming means that the face appears to be a typical example of its gender. Nonbinary means that the face does not conform to any particular gender norms.,JK,,,,,,,,,,,,,,,,,,,,,,,,,,,,,,,,,,,,,,,,,,,,,,884.151,0,20,20,69,1,109,0,0,0,0,1,98,,,,,,,,,,,,,,,,,,,,,,,,,,,,,,,,,,,,,,,,,,,,,,,,,,,,,,,,,,,,,,,,,,,,,,,,,,
,,,,814770,001,2023-09-28_13h03.44.788,fluency,2022.2.5,Win32,19.99680051,,,,,,,,,,,,,,,,,,,,,,,,,,,,,,,,,,,,,,,,,,,,,,,,,,,,,,,,,,,,,,,,,,,,,,,,,,,,,,,,,,0,0,0,0,1,,"[""j""]",[1.0960000000000036],3,"[""j""]",[1.0960000000000036],,,,,,,,,,,,,,,,,,,,,,,,,,,,,,,,,,,,,,,,,,,,,,,,,,,,,,,,,,,,,,,,,,,,,
,,,,814770,001,2023-09-28_13h03.44.788,fluency,2022.2.5,Win32,19.99680051,,,,,,,,,,,,,,,,,,,,,,,3,7,img/B07_03.jpg,GCNB,Press J if the face is GENDER-CONFORMING and K if the face is NONBINARY,Gender-conforming means that the face appears to be a typical example of its gender. Nonbinary means that the face does not conform to any particular gender norms.,JK,,,,,,,,,,,,,,,,,,,,,,,,,,,,,,,,1,0.3652,,,,,,,,,,,,,,0,20,20,69,1,,,,,,,,,,,,,space,0.5937,,,,,,,,,,,,,,,,,,,,,,,,,,,,,,,,,,,,,,,,,,,,,,,,,,,,,,,,,,,,,,,,,,,
,,,,814770,001,2023-09-28_13h03.44.788,fluency,2022.2.5,Win32,19.99680051,,,,,,,,,,,,,,,,,,,,,,,8,5,img/B05_08.jpg,GCNB,Press J if the face is GENDER-CONFORMING and K if the face is NONBINARY,Gender-conforming means that the face appears to be a typical example of its gender. Nonbinary means that the face does not conform to any particular gender norms.,JK,,,,,,,,,,,,,,,,,,,,,,,,,,,,,,,,,,,,,,,,,,,,,,889.2714,0,21,21,52,1,109,0,0,0,0,1,98,,,,,,,,,,,,,,,,,,,,,,,,,,,,,,,,,,,,,,,,,,,,,,,,,,,,,,,,,,,,,,,,,,,,,,,,,,
,,,,814770,001,2023-09-28_13h03.44.788,fluency,2022.2.5,Win32,19.99680051,,,,,,,,,,,,,,,,,,,,,,,,,,,,,,,,,,,,,,,,,,,,,,,,,,,,,,,,,,,,,,,,,,,,,,,,,,,,,,,,,,0,0,0,0,1,,"[""j""]",[1.0448999999762236],3,"[""j""]",[1.0448999999762236],,,,,,,,,,,,,,,,,,,,,,,,,,,,,,,,,,,,,,,,,,,,,,,,,,,,,,,,,,,,,,,,,,,,,
,,,,814770,001,2023-09-28_13h03.44.788,fluency,2022.2.5,Win32,19.99680051,,,,,,,,,,,,,,,,,,,,,,,8,5,img/B05_08.jpg,GCNB,Press J if the face is GENDER-CONFORMING and K if the face is NONBINARY,Gender-conforming means that the face appears to be a typical example of its gender. Nonbinary means that the face does not conform to any particular gender norms.,JK,,,,,,,,,,,,,,,,,,,,,,,,,,,,,,,,4,0.4424,,,,,,,,,,,,,,0,21,21,52,1,,,,,,,,,,,,,space,0.449,,,,,,,,,,,,,,,,,,,,,,,,,,,,,,,,,,,,,,,,,,,,,,,,,,,,,,,,,,,,,,,,,,,
,,,,814770,001,2023-09-28_13h03.44.788,fluency,2022.2.5,Win32,19.99680051,,,,,,,,,,,,,,,,,,,,,,,4,7,img/B07_04.jpg,GCNB,Press J if the face is GENDER-CONFORMING and K if the face is NONBINARY,Gender-conforming means that the face appears to be a typical example of its gender. Nonbinary means that the face does not conform to any particular gender norms.,JK,,,,,,,,,,,,,,,,,,,,,,,,,,,,,,,,,,,,,,,,,,,,,,895.3867,0,22,22,70,1,109,0,0,0,0,1,98,,,,,,,,,,,,,,,,,,,,,,,,,,,,,,,,,,,,,,,,,,,,,,,,,,,,,,,,,,,,,,,,,,,,,,,,,,
,,,,814770,001,2023-09-28_13h03.44.788,fluency,2022.2.5,Win32,19.99680051,,,,,,,,,,,,,,,,,,,,,,,,,,,,,,,,,,,,,,,,,,,,,,,,,,,,,,,,,,,,,,,,,,,,,,,,,,,,,,,,,,0,0,0,0,1,,"[""k""]",[1.7584999999999127],3,"[""k""]",[1.7584000000058495],,,,,,,,,,,,,,,,,,,,,,,,,,,,,,,,,,,,,,,,,,,,,,,,,,,,,,,,,,,,,,,,,,,,,
,,,,814770,001,2023-09-28_13h03.44.788,fluency,2022.2.5,Win32,19.99680051,,,,,,,,,,,,,,,,,,,,,,,4,7,img/B07_04.jpg,GCNB,Press J if the face is GENDER-CONFORMING and K if the face is NONBINARY,Gender-conforming means that the face appears to be a typical example of its gender. Nonbinary means that the face does not conform to any particular gender norms.,JK,,,,,,,,,,,,,,,,,,,,,,,,,,,,,,,,4,0.5085,,,,,,,,,,,,,,0,22,22,70,1,,,,,,,,,,,,,space,0.5199,,,,,,,,,,,,,,,,,,,,,,,,,,,,,,,,,,,,,,,,,,,,,,,,,,,,,,,,,,,,,,,,,,,
,,,,814770,001,2023-09-28_13h03.44.788,fluency,2022.2.5,Win32,19.99680051,,,,,,,,,,,,,,,,,,,,,,,2,1,img/B01_02.jpg,GCNB,Press J if the face is GENDER-CONFORMING and K if the face is NONBINARY,Gender-conforming means that the face appears to be a typical example of its gender. Nonbinary means that the face does not conform to any particular gender norms.,JK,,,,,,,,,,,,,,,,,,,,,,,,,,,,,,,,,,,,,,,,,,,,,,901.5623,0,23,23,2,1,109,0,0,0,0,1,98,,,,,,,,,,,,,,,,,,,,,,,,,,,,,,,,,,,,,,,,,,,,,,,,,,,,,,,,,,,,,,,,,,,,,,,,,,
,,,,814770,001,2023-09-28_13h03.44.788,fluency,2022.2.5,Win32,19.99680051,,,,,,,,,,,,,,,,,,,,,,,,,,,,,,,,,,,,,,,,,,,,,,,,,,,,,,,,,,,,,,,,,,,,,,,,,,,,,,,,,,,,,,,,,,4,,,,,space,1.0933,0,0,0,0,1,,,,,,,,,,,,,,,,,,,,,,,,,,,,,,,,,,,,,,,,,,,,,,,,,,,,,,,,,,,,
,,,,814770,001,2023-09-28_13h03.44.788,fluency,2022.2.5,Win32,19.99680051,,,,,,,,,,,,,,,,,,,,,,,,,,,,,,,,,,,,,,,,,,,,,,,,,,,,,,,,,,,,,,,,,,,,,,,,,,,,,,,,,,0,0,0,0,1,,,,,,,,,,,,,,,,,,,,,,,,,,,,,,,,,,,,,,,,,,,,,,,,,,,,,,,,,,,,,,,,,,,,,,,,,,,
,,,,814770,001,2023-09-28_13h03.44.788,fluency,2022.2.5,Win32,19.99680051,,,,,,,,,,,,,,,,,,,,,,,2,1,img/B01_02.jpg,GCNB,Press J if the face is GENDER-CONFORMING and K if the face is NONBINARY,Gender-conforming means that the face appears to be a typical example of its gender. Nonbinary means that the face does not conform to any particular gender norms.,JK,,,,,,,,,,,,,,,,,,,,,,,,,,,,,,,,,,,,,,,,,,,,,,907.7219,0,23,23,2,1,109,1,0,1,0,1,98,,,,,,,,,,,,,,,,,,,,,,,,,,,,,,,,,,,,,,,,,,,,,,,,,,,,,,,,,,,,,,,,,,,,,,,,,,
,,,,814770,001,2023-09-28_13h03.44.788,fluency,2022.2.5,Win32,19.99680051,,,,,,,,,,,,,,,,,,,,,,,,,,,,,,,,,,,,,,,,,,,,,,,,,,,,,,,,,,,,,,,,,,,,,,,,,,,,,,,,,,1,0,1,0,1,,"[""j""]",[0.44219999998813364],4,"[""j""]",[0.44219999998813364],,,,,,,,,,,,,,,,,,,,,,,,,,,,,,,,,,,,,,,,,,,,,,,,,,,,,,,,,,,,,,,,,,,,,
,,,,814770,001,2023-09-28_13h03.44.788,fluency,2022.2.5,Win32,19.99680051,,,,,,,,,,,,,,,,,,,,,,,2,1,img/B01_02.jpg,GCNB,Press J if the face is GENDER-CONFORMING and K if the face is NONBINARY,Gender-conforming means that the face appears to be a typical example of its gender. Nonbinary means that the face does not conform to any particular gender norms.,JK,,,,,,,,,,,,,,,,,,,,,,,,,,,,,,,,2,0.3754,,,,,,,,,,,,,,0,23,23,2,1,,,,,,,,,,,,,space,1.0331,,,,,,,,,,,,,,,,,,,,,,,,,,,,,,,,,,,,,,,,,,,,,,,,,,,,,,,,,,,,,,,,,,,
,,,,814770,001,2023-09-28_13h03.44.788,fluency,2022.2.5,Win32,19.99680051,,,,,,,,,,,,,,,,,,,,,,,9,6,img/B06_09.jpg,GCNB,Press J if the face is GENDER-CONFORMING and K if the face is NONBINARY,Gender-conforming means that the face appears to be a typical example of its gender. Nonbinary means that the face does not conform to any particular gender norms.,JK,,,,,,,,,,,,,,,,,,,,,,,,,,,,,,,,,,,,,,,,,,,,,,913.3081,0,24,24,64,1,109,0,0,0,0,1,98,,,,,,,,,,,,,,,,,,,,,,,,,,,,,,,,,,,,,,,,,,,,,,,,,,,,,,,,,,,,,,,,,,,,,,,,,,
,,,,814770,001,2023-09-28_13h03.44.788,fluency,2022.2.5,Win32,19.99680051,,,,,,,,,,,,,,,,,,,,,,,,,,,,,,,,,,,,,,,,,,,,,,,,,,,,,,,,,,,,,,,,,,,,,,,,,,,,,,,,,,0,0,0,0,1,,"[""j""]",[1.484000000000151],4,"[""j""]",[1.4838999999763018],,,,,,,,,,,,,,,,,,,,,,,,,,,,,,,,,,,,,,,,,,,,,,,,,,,,,,,,,,,,,,,,,,,,,
,,,,814770,001,2023-09-28_13h03.44.788,fluency,2022.2.5,Win32,19.99680051,,,,,,,,,,,,,,,,,,,,,,,9,6,img/B06_09.jpg,GCNB,Press J if the face is GENDER-CONFORMING and K if the face is NONBINARY,Gender-conforming means that the face appears to be a typical example of its gender. Nonbinary means that the face does not conform to any particular gender norms.,JK,,,,,,,,,,,,,,,,,,,,,,,,,,,,,,,,3,0.3017,,,,,,,,,,,,,,0,24,24,64,1,,,,,,,,,,,,,space,0.5172,,,,,,,,,,,,,,,,,,,,,,,,,,,,,,,,,,,,,,,,,,,,,,,,,,,,,,,,,,,,,,,,,,,
,,,,814770,001,2023-09-28_13h03.44.788,fluency,2022.2.5,Win32,19.99680051,,,,,,,,,,,,,,,,,,,,,,,5,8,img/B08_05.jpg,GCNB,Press J if the face is GENDER-CONFORMING and K if the face is NONBINARY,Gender-conforming means that the face appears to be a typical example of its gender. Nonbinary means that the face does not conform to any particular gender norms.,JK,,,,,,,,,,,,,,,,,,,,,,,,,,,,,,,,,,,,,,,,,,,,,,918.3169,0,25,25,82,1,109,0,0,0,0,1,98,,,,,,,,,,,,,,,,,,,,,,,,,,,,,,,,,,,,,,,,,,,,,,,,,,,,,,,,,,,,,,,,,,,,,,,,,,
,,,,814770,001,2023-09-28_13h03.44.788,fluency,2022.2.5,Win32,19.99680051,,,,,,,,,,,,,,,,,,,,,,,,,,,,,,,,,,,,,,,,,,,,,,,,,,,,,,,,,,,,,,,,,,,,,,,,,,,,,,,,,,0,0,0,0,1,,"[""k""]",[1.877200000017865],4,"[""k""]",[1.877200000017865],,,,,,,,,,,,,,,,,,,,,,,,,,,,,,,,,,,,,,,,,,,,,,,,,,,,,,,,,,,,,,,,,,,,,
,,,,814770,001,2023-09-28_13h03.44.788,fluency,2022.2.5,Win32,19.99680051,,,,,,,,,,,,,,,,,,,,,,,5,8,img/B08_05.jpg,GCNB,Press J if the face is GENDER-CONFORMING and K if the face is NONBINARY,Gender-conforming means that the face appears to be a typical example of its gender. Nonbinary means that the face does not conform to any particular gender norms.,JK,,,,,,,,,,,,,,,,,,,,,,,,,,,,,,,,4,1.5272,,,,,,,,,,,,,,0,25,25,82,1,,,,,,,,,,,,,space,0.6591,,,,,,,,,,,,,,,,,,,,,,,,,,,,,,,,,,,,,,,,,,,,,,,,,,,,,,,,,,,,,,,,,,,
,,,,814770,001,2023-09-28_13h03.44.788,fluency,2022.2.5,Win32,19.99680051,,,,,,,,,,,,,,,,,,,,,,,0,4,img/B04_00.jpg,GCNB,Press J if the face is GENDER-CONFORMING and K if the face is NONBINARY,Gender-conforming means that the face appears to be a typical example of its gender. Nonbinary means that the face does not conform to any particular gender norms.,JK,,,,,,,,,,,,,,,,,,,,,,,,,,,,,,,,,,,,,,,,,,,,,,924.6794,0,26,26,33,1,109,0,0,0,0,1,98,,,,,,,,,,,,,,,,,,,,,,,,,,,,,,,,,,,,,,,,,,,,,,,,,,,,,,,,,,,,,,,,,,,,,,,,,,
,,,,814770,001,2023-09-28_13h03.44.788,fluency,2022.2.5,Win32,19.99680051,,,,,,,,,,,,,,,,,,,,,,,,,,,,,,,,,,,,,,,,,,,,,,,,,,,,,,,,,,,,,,,,,,,,,,,,,,,,,,,,,,0,0,0,0,1,,"[""j""]",[1.0585999999941578],4,"[""j""]",[1.0585999999941578],,,,,,,,,,,,,,,,,,,,,,,,,,,,,,,,,,,,,,,,,,,,,,,,,,,,,,,,,,,,,,,,,,,,,
,,,,814770,001,2023-09-28_13h03.44.788,fluency,2022.2.5,Win32,19.99680051,,,,,,,,,,,,,,,,,,,,,,,0,4,img/B04_00.jpg,GCNB,Press J if the face is GENDER-CONFORMING and K if the face is NONBINARY,Gender-conforming means that the face appears to be a typical example of its gender. Nonbinary means that the face does not conform to any particular gender norms.,JK,,,,,,,,,,,,,,,,,,,,,,,,,,,,,,,,1,0.3752,,,,,,,,,,,,,,0,26,26,33,1,,,,,,,,,,,,,space,0.745,,,,,,,,,,,,,,,,,,,,,,,,,,,,,,,,,,,,,,,,,,,,,,,,,,,,,,,,,,,,,,,,,,,
,,,,814770,001,2023-09-28_13h03.44.788,fluency,2022.2.5,Win32,19.99680051,,,,,,,,,,,,,,,,,,,,,,,8,1,img/B01_08.jpg,GCNB,Press J if the face is GENDER-CONFORMING and K if the face is NONBINARY,Gender-conforming means that the face appears to be a typical example of its gender. Nonbinary means that the face does not conform to any particular gender norms.,JK,,,,,,,,,,,,,,,,,,,,,,,,,,,,,,,,,,,,,,,,,,,,,,930.9657,0,27,27,8,1,109,0,0,0,0,1,98,,,,,,,,,,,,,,,,,,,,,,,,,,,,,,,,,,,,,,,,,,,,,,,,,,,,,,,,,,,,,,,,,,,,,,,,,,
,,,,814770,001,2023-09-28_13h03.44.788,fluency,2022.2.5,Win32,19.99680051,,,,,,,,,,,,,,,,,,,,,,,,,,,,,,,,,,,,,,,,,,,,,,,,,,,,,,,,,,,,,,,,,,,,,,,,,,,,,,,,,,0,0,0,0,1,,"[""k""]",[1.973599999993894],4,"[""k""]",[1.973599999993894],,,,,,,,,,,,,,,,,,,,,,,,,,,,,,,,,,,,,,,,,,,,,,,,,,,,,,,,,,,,,,,,,,,,,
,,,,814770,001,2023-09-28_13h03.44.788,fluency,2022.2.5,Win32,19.99680051,,,,,,,,,,,,,,,,,,,,,,,8,1,img/B01_08.jpg,GCNB,Press J if the face is GENDER-CONFORMING and K if the face is NONBINARY,Gender-conforming means that the face appears to be a typical example of its gender. Nonbinary means that the face does not conform to any particular gender norms.,JK,,,,,,,,,,,,,,,,,,,,,,,,,,,,,,,,4,0.9406,,,,,,,,,,,,,,0,27,27,8,1,,,,,,,,,,,,,space,0.3598,,,,,,,,,,,,,,,,,,,,,,,,,,,,,,,,,,,,,,,,,,,,,,,,,,,,,,,,,,,,,,,,,,,
,,,,814770,001,2023-09-28_13h03.44.788,fluency,2022.2.5,Win32,19.99680051,,,,,,,,,,,,,,,,,,,,,,,7,8,img/B08_07.jpg,GCNB,Press J if the face is GENDER-CONFORMING and K if the face is NONBINARY,Gender-conforming means that the face appears to be a typical example of its gender. Nonbinary means that the face does not conform to any particular gender norms.,JK,,,,,,,,,,,,,,,,,,,,,,,,,,,,,,,,,,,,,,,,,,,,,,937.4163,0,28,28,84,1,109,0,0,0,0,1,98,,,,,,,,,,,,,,,,,,,,,,,,,,,,,,,,,,,,,,,,,,,,,,,,,,,,,,,,,,,,,,,,,,,,,,,,,,
,,,,814770,001,2023-09-28_13h03.44.788,fluency,2022.2.5,Win32,19.99680051,,,,,,,,,,,,,,,,,,,,,,,,,,,,,,,,,,,,,,,,,,,,,,,,,,,,,,,,,,,,,,,,,,,,,,,,,,,,,,,,,,0,0,0,0,1,,"[""j""]",[2.3710999999939304],4,"[""j""]",[2.370999999999867],,,,,,,,,,,,,,,,,,,,,,,,,,,,,,,,,,,,,,,,,,,,,,,,,,,,,,,,,,,,,,,,,,,,,
,,,,814770,001,2023-09-28_13h03.44.788,fluency,2022.2.5,Win32,19.99680051,,,,,,,,,,,,,,,,,,,,,,,7,8,img/B08_07.jpg,GCNB,Press J if the face is GENDER-CONFORMING and K if the face is NONBINARY,Gender-conforming means that the face appears to be a typical example of its gender. Nonbinary means that the face does not conform to any particular gender norms.,JK,,,,,,,,,,,,,,,,,,,,,,,,,,,,,,,,4,1.0056,,,,,,,,,,,,,,0,28,28,84,1,,,,,,,,,,,,,space,0.4415,,,,,,,,,,,,,,,,,,,,,,,,,,,,,,,,,,,,,,,,,,,,,,,,,,,,,,,,,,,,,,,,,,,
,,,,814770,001,2023-09-28_13h03.44.788,fluency,2022.2.5,Win32,19.99680051,,,,,,,,,,,,,,,,,,,,,,,7,6,img/B06_07.jpg,GCNB,Press J if the face is GENDER-CONFORMING and K if the face is NONBINARY,Gender-conforming means that the face appears to be a typical example of its gender. Nonbinary means that the face does not conform to any particular gender norms.,JK,,,,,,,,,,,,,,,,,,,,,,,,,,,,,,,,,,,,,,,,,,,,,,943.9993,0,29,29,62,1,109,0,0,0,0,1,98,,,,,,,,,,,,,,,,,,,,,,,,,,,,,,,,,,,,,,,,,,,,,,,,,,,,,,,,,,,,,,,,,,,,,,,,,,
,,,,814770,001,2023-09-28_13h03.44.788,fluency,2022.2.5,Win32,19.99680051,,,,,,,,,,,,,,,,,,,,,,,,,,,,,,,,,,,,,,,,,,,,,,,,,,,,,,,,,,,,,,,,,,,,,,,,,,,,,,,,,,0,0,0,0,1,,"[""j""]",[0.9894000000060714],4,"[""j""]",[0.9893000000120082],,,,,,,,,,,,,,,,,,,,,,,,,,,,,,,,,,,,,,,,,,,,,,,,,,,,,,,,,,,,,,,,,,,,,
,,,,814770,001,2023-09-28_13h03.44.788,fluency,2022.2.5,Win32,19.99680051,,,,,,,,,,,,,,,,,,,,,,,7,6,img/B06_07.jpg,GCNB,Press J if the face is GENDER-CONFORMING and K if the face is NONBINARY,Gender-conforming means that the face appears to be a typical example of its gender. Nonbinary means that the face does not conform to any particular gender norms.,JK,,,,,,,,,,,,,,,,,,,,,,,,,,,,,,,,2,0.2919,,,,,,,,,,,,,,0,29,29,62,1,,,,,,,,,,,,,space,0.5086,,,,,,,,,,,,,,,,,,,,,,,,,,,,,,,,,,,,,,,,,,,,,,,,,,,,,,,,,,,,,,,,,,,
,,,,814770,001,2023-09-28_13h03.44.788,fluency,2022.2.5,Win32,19.99680051,,,,,,,,,,,,,,,,,,,,,,,6,6,img/B06_06.jpg,GCNB,Press J if the face is GENDER-CONFORMING and K if the face is NONBINARY,Gender-conforming means that the face appears to be a typical example of its gender. Nonbinary means that the face does not conform to any particular gender norms.,JK,,,,,,,,,,,,,,,,,,,,,,,,,,,,,,,,,,,,,,,,,,,,,,948.9313,0,30,30,61,1,109,0,0,0,0,1,98,,,,,,,,,,,,,,,,,,,,,,,,,,,,,,,,,,,,,,,,,,,,,,,,,,,,,,,,,,,,,,,,,,,,,,,,,,
,,,,814770,001,2023-09-28_13h03.44.788,fluency,2022.2.5,Win32,19.99680051,,,,,,,,,,,,,,,,,,,,,,,,,,,,,,,,,,,,,,,,,,,,,,,,,,,,,,,,,,,,,,,,,,,,,,,,,,,,,,,,,,0,0,0,0,1,,"[""k""]",[1.384199999988141],4,"[""k""]",[1.384199999988141],,,,,,,,,,,,,,,,,,,,,,,,,,,,,,,,,,,,,,,,,,,,,,,,,,,,,,,,,,,,,,,,,,,,,
,,,,814770,001,2023-09-28_13h03.44.788,fluency,2022.2.5,Win32,19.99680051,,,,,,,,,,,,,,,,,,,,,,,6,6,img/B06_06.jpg,GCNB,Press J if the face is GENDER-CONFORMING and K if the face is NONBINARY,Gender-conforming means that the face appears to be a typical example of its gender. Nonbinary means that the face does not conform to any particular gender norms.,JK,,,,,,,,,,,,,,,,,,,,,,,,,,,,,,,,3,0.3527,,,,,,,,,,,,,,0,30,30,61,1,,,,,,,,,,,,,space,0.5809,,,,,,,,,,,,,,,,,,,,,,,,,,,,,,,,,,,,,,,,,,,,,,,,,,,,,,,,,,,,,,,,,,,
,,,,814770,001,2023-09-28_13h03.44.788,fluency,2022.2.5,Win32,19.99680051,,,,,,,,,,,,,,,,,,,,,,,0,10,img/B10_00.jpg,GCNB,Press J if the face is GENDER-CONFORMING and K if the face is NONBINARY,Gender-conforming means that the face appears to be a typical example of its gender. Nonbinary means that the face does not conform to any particular gender norms.,JK,,,,,,,,,,,,,,,,,,,,,,,,,,,,,,,,,,,,,,,,,,,,,,955.0217,0,31,31,99,1,109,0,0,0,0,1,98,,,,,,,,,,,,,,,,,,,,,,,,,,,,,,,,,,,,,,,,,,,,,,,,,,,,,,,,,,,,,,,,,,,,,,,,,,
,,,,814770,001,2023-09-28_13h03.44.788,fluency,2022.2.5,Win32,19.99680051,,,,,,,,,,,,,,,,,,,,,,,,,,,,,,,,,,,,,,,,,,,,,,,,,,,,,,,,,,,,,,,,,,,,,,,,,,,,,,,,,,0,0,0,0,1,,"[""j""]",[1.5020999999940159],4,"[""j""]",[1.5020999999940159],,,,,,,,,,,,,,,,,,,,,,,,,,,,,,,,,,,,,,,,,,,,,,,,,,,,,,,,,,,,,,,,,,,,,
,,,,814770,001,2023-09-28_13h03.44.788,fluency,2022.2.5,Win32,19.99680051,,,,,,,,,,,,,,,,,,,,,,,0,10,img/B10_00.jpg,GCNB,Press J if the face is GENDER-CONFORMING and K if the face is NONBINARY,Gender-conforming means that the face appears to be a typical example of its gender. Nonbinary means that the face does not conform to any particular gender norms.,JK,,,,,,,,,,,,,,,,,,,,,,,,,,,,,,,,1,0.1561,,,,,,,,,,,,,,0,31,31,99,1,,,,,,,,,,,,,space,0.6641,,,,,,,,,,,,,,,,,,,,,,,,,,,,,,,,,,,,,,,,,,,,,,,,,,,,,,,,,,,,,,,,,,,
,,,,814770,001,2023-09-28_13h03.44.788,fluency,2022.2.5,Win32,19.99680051,,,,,,,,,,,,,,,,,,,,,,,4,3,img/B03_04.jpg,GCNB,Press J if the face is GENDER-CONFORMING and K if the face is NONBINARY,Gender-conforming means that the face appears to be a typical example of its gender. Nonbinary means that the face does not conform to any particular gender norms.,JK,,,,,,,,,,,,,,,,,,,,,,,,,,,,,,,,,,,,,,,,,,,,,,960.013,0,32,32,26,1,109,0,0,0,0,1,98,,,,,,,,,,,,,,,,,,,,,,,,,,,,,,,,,,,,,,,,,,,,,,,,,,,,,,,,,,,,,,,,,,,,,,,,,,
,,,,814770,001,2023-09-28_13h03.44.788,fluency,2022.2.5,Win32,19.99680051,,,,,,,,,,,,,,,,,,,,,,,,,,,,,,,,,,,,,,,,,,,,,,,,,,,,,,,,,,,,,,,,,,,,,,,,,,,,,,,,,,0,0,0,0,1,,"[""k""]",[1.9925999999938995],4,"[""1"",""k""]","[-2.067400000006046,1.9925999999938995]",,,,,,,,,,,,,,,,,,,,,,,,,,,,,,,,,,,,,,,,,,,,,,,,,,,,,,,,,,,,,,,,,,,,,
,,,,814770,001,2023-09-28_13h03.44.788,fluency,2022.2.5,Win32,19.99680051,,,,,,,,,,,,,,,,,,,,,,,4,3,img/B03_04.jpg,GCNB,Press J if the face is GENDER-CONFORMING and K if the face is NONBINARY,Gender-conforming means that the face appears to be a typical example of its gender. Nonbinary means that the face does not conform to any particular gender norms.,JK,,,,,,,,,,,,,,,,,,,,,,,,,,,,,,,,3,0.3624,,,,,,,,,,,,,,0,32,32,26,1,,,,,,,,,,,,,space,0.4456,,,,,,,,,,,,,,,,,,,,,,,,,,,,,,,,,,,,,,,,,,,,,,,,,,,,,,,,,,,,,,,,,,,
,,,,814770,001,2023-09-28_13h03.44.788,fluency,2022.2.5,Win32,19.99680051,,,,,,,,,,,,,,,,,,,,,,,9,3,img/B03_09.jpg,GCNB,Press J if the face is GENDER-CONFORMING and K if the face is NONBINARY,Gender-conforming means that the face appears to be a typical example of its gender. Nonbinary means that the face does not conform to any particular gender norms.,JK,,,,,,,,,,,,,,,,,,,,,,,,,,,,,,,,,,,,,,,,,,,,,,965.0045,0,33,33,31,1,109,0,0,0,0,1,98,,,,,,,,,,,,,,,,,,,,,,,,,,,,,,,,,,,,,,,,,,,,,,,,,,,,,,,,,,,,,,,,,,,,,,,,,,
,,,,814770,001,2023-09-28_13h03.44.788,fluency,2022.2.5,Win32,19.99680051,,,,,,,,,,,,,,,,,,,,,,,,,,,,,,,,,,,,,,,,,,,,,,,,,,,,,,,,,,,,,,,,,,,,,,,,,,,,,,,,,,0,0,0,0,1,,"[""j""]",[1.1349000000059277],4,"[""j""]",[1.1349000000059277],,,,,,,,,,,,,,,,,,,,,,,,,,,,,,,,,,,,,,,,,,,,,,,,,,,,,,,,,,,,,,,,,,,,,
,,,,814770,001,2023-09-28_13h03.44.788,fluency,2022.2.5,Win32,19.99680051,,,,,,,,,,,,,,,,,,,,,,,9,3,img/B03_09.jpg,GCNB,Press J if the face is GENDER-CONFORMING and K if the face is NONBINARY,Gender-conforming means that the face appears to be a typical example of its gender. Nonbinary means that the face does not conform to any particular gender norms.,JK,,,,,,,,,,,,,,,,,,,,,,,,,,,,,,,,4,0.0755,,,,,,,,,,,,,,0,33,33,31,1,,,,,,,,,,,,,space,0.6223,,,,,,,,,,,,,,,,,,,,,,,,,,,,,,,,,,,,,,,,,,,,,,,,,,,,,,,,,,,,,,,,,,,
,,,,814770,001,2023-09-28_13h03.44.788,fluency,2022.2.5,Win32,19.99680051,,,,,,,,,,,,,,,,,,,,,,,6,10,img/B10_06.jpg,GCNB,Press J if the face is GENDER-CONFORMING and K if the face is NONBINARY,Gender-conforming means that the face appears to be a typical example of its gender. Nonbinary means that the face does not conform to any particular gender norms.,JK,,,,,,,,,,,,,,,,,,,,,,,,,,,,,,,,,,,,,,,,,,,,,,969.8271,0,34,34,105,1,109,0,0,0,0,1,98,,,,,,,,,,,,,,,,,,,,,,,,,,,,,,,,,,,,,,,,,,,,,,,,,,,,,,,,,,,,,,,,,,,,,,,,,,
,,,,814770,001,2023-09-28_13h03.44.788,fluency,2022.2.5,Win32,19.99680051,,,,,,,,,,,,,,,,,,,,,,,,,,,,,,,,,,,,,,,,,,,,,,,,,,,,,,,,,,,,,,,,,,,,,,,,,,,,,,,,,,0,0,0,0,1,,"[""k""]",[1.4125999999939722],4,"[""k""]",[1.412499999999909],,,,,,,,,,,,,,,,,,,,,,,,,,,,,,,,,,,,,,,,,,,,,,,,,,,,,,,,,,,,,,,,,,,,,
,,,,814770,001,2023-09-28_13h03.44.788,fluency,2022.2.5,Win32,19.99680051,,,,,,,,,,,,,,,,,,,,,,,6,10,img/B10_06.jpg,GCNB,Press J if the face is GENDER-CONFORMING and K if the face is NONBINARY,Gender-conforming means that the face appears to be a typical example of its gender. Nonbinary means that the face does not conform to any particular gender norms.,JK,,,,,,,,,,,,,,,,,,,,,,,,,,,,,,,,1,0.3736,,,,,,,,,,,,,,0,34,34,105,1,,,,,,,,,,,,,space,0.5234,,,,,,,,,,,,,,,,,,,,,,,,,,,,,,,,,,,,,,,,,,,,,,,,,,,,,,,,,,,,,,,,,,,
,,,,814770,001,2023-09-28_13h03.44.788,fluency,2022.2.5,Win32,19.99680051,,,,,,,,,,,,,,,,,,,,,,,4,6,img/B06_04.jpg,GCNB,Press J if the face is GENDER-CONFORMING and K if the face is NONBINARY,Gender-conforming means that the face appears to be a typical example of its gender. Nonbinary means that the face does not conform to any particular gender norms.,JK,,,,,,,,,,,,,,,,,,,,,,,,,,,,,,,,,,,,,,,,,,,,,,974.8633,0,35,35,59,1,109,0,0,0,0,1,98,,,,,,,,,,,,,,,,,,,,,,,,,,,,,,,,,,,,,,,,,,,,,,,,,,,,,,,,,,,,,,,,,,,,,,,,,,
,,,,814770,001,2023-09-28_13h03.44.788,fluency,2022.2.5,Win32,19.99680051,,,,,,,,,,,,,,,,,,,,,,,,,,,,,,,,,,,,,,,,,,,,,,,,,,,,,,,,,,,,,,,,,,,,,,,,,,,,,,,,,,0,0,0,0,1,,"[""k""]",[1.591899999976249],4,"[""k""]",[1.591799999982186],,,,,,,,,,,,,,,,,,,,,,,,,,,,,,,,,,,,,,,,,,,,,,,,,,,,,,,,,,,,,,,,,,,,,
,,,,814770,001,2023-09-28_13h03.44.788,fluency,2022.2.5,Win32,19.99680051,,,,,,,,,,,,,,,,,,,,,,,4,6,img/B06_04.jpg,GCNB,Press J if the face is GENDER-CONFORMING and K if the face is NONBINARY,Gender-conforming means that the face appears to be a typical example of its gender. Nonbinary means that the face does not conform to any particular gender norms.,JK,,,,,,,,,,,,,,,,,,,,,,,,,,,,,,,,4,0.7419,,,,,,,,,,,,,,0,35,35,59,1,,,,,,,,,,,,,space,0.4486,,,,,,,,,,,,,,,,,,,,,,,,,,,,,,,,,,,,,,,,,,,,,,,,,,,,,,,,,,,,,,,,,,,
,,,,814770,001,2023-09-28_13h03.44.788,fluency,2022.2.5,Win32,19.99680051,,,,,,,,,,,,,,,,,,,,,,,0,3,img/B03_00.jpg,GCNB,Press J if the face is GENDER-CONFORMING and K if the face is NONBINARY,Gender-conforming means that the face appears to be a typical example of its gender. Nonbinary means that the face does not conform to any particular gender norms.,JK,,,,,,,,,,,,,,,,,,,,,,,,,,,,,,,,,,,,,,,,,,,,,,981.2521,0,36,36,22,1,109,0,0,0,0,1,98,,,,,,,,,,,,,,,,,,,,,,,,,,,,,,,,,,,,,,,,,,,,,,,,,,,,,,,,,,,,,,,,,,,,,,,,,,
,,,,814770,001,2023-09-28_13h03.44.788,fluency,2022.2.5,Win32,19.99680051,,,,,,,,,,,,,,,,,,,,,,,,,,,,,,,,,,,,,,,,,,,,,,,,,,,,,,,,,,,,,,,,,,,,,,,,,,,,,,,,,,0,0,0,0,1,,"[""j""]",[1.1596000000238291],4,"[""j""]",[1.15949999999998],,,,,,,,,,,,,,,,,,,,,,,,,,,,,,,,,,,,,,,,,,,,,,,,,,,,,,,,,,,,,,,,,,,,,
,,,,814770,001,2023-09-28_13h03.44.788,fluency,2022.2.5,Win32,19.99680051,,,,,,,,,,,,,,,,,,,,,,,0,3,img/B03_00.jpg,GCNB,Press J if the face is GENDER-CONFORMING and K if the face is NONBINARY,Gender-conforming means that the face appears to be a typical example of its gender. Nonbinary means that the face does not conform to any particular gender norms.,JK,,,,,,,,,,,,,,,,,,,,,,,,,,,,,,,,5,0.304,,,,,,,,,,,,,,0,36,36,22,1,,,,,,,,,,,,,space,0.3816,,,,,,,,,,,,,,,,,,,,,,,,,,,,,,,,,,,,,,,,,,,,,,,,,,,,,,,,,,,,,,,,,,,
,,,,814770,001,2023-09-28_13h03.44.788,fluency,2022.2.5,Win32,19.99680051,,,,,,,,,,,,,,,,,,,,,,,5,2,img/B02_05.jpg,GCNB,Press J if the face is GENDER-CONFORMING and K if the face is NONBINARY,Gender-conforming means that the face appears to be a typical example of its gender. Nonbinary means that the face does not conform to any particular gender norms.,JK,,,,,,,,,,,,,,,,,,,,,,,,,,,,,,,,,,,,,,,,,,,,,,987.1452,0,37,37,16,1,109,0,0,0,0,1,98,,,,,,,,,,,,,,,,,,,,,,,,,,,,,,,,,,,,,,,,,,,,,,,,,,,,,,,,,,,,,,,,,,,,,,,,,,
,,,,814770,001,2023-09-28_13h03.44.788,fluency,2022.2.5,Win32,19.99680051,,,,,,,,,,,,,,,,,,,,,,,,,,,,,,,,,,,,,,,,,,,,,,,,,,,,,,,,,,,,,,,,,,,,,,,,,,,,,,,,,,0,0,0,0,1,,"[""k""]",[2.2729000000058477],4,"[""k""]",[2.2727999999819986],,,,,,,,,,,,,,,,,,,,,,,,,,,,,,,,,,,,,,,,,,,,,,,,,,,,,,,,,,,,,,,,,,,,,
,,,,814770,001,2023-09-28_13h03.44.788,fluency,2022.2.5,Win32,19.99680051,,,,,,,,,,,,,,,,,,,,,,,5,2,img/B02_05.jpg,GCNB,Press J if the face is GENDER-CONFORMING and K if the face is NONBINARY,Gender-conforming means that the face appears to be a typical example of its gender. Nonbinary means that the face does not conform to any particular gender norms.,JK,,,,,,,,,,,,,,,,,,,,,,,,,,,,,,,,2,0.3604,,,,,,,,,,,,,,0,37,37,16,1,,,,,,,,,,,,,space,0.4514,,,,,,,,,,,,,,,,,,,,,,,,,,,,,,,,,,,,,,,,,,,,,,,,,,,,,,,,,,,,,,,,,,,
,,,,814770,001,2023-09-28_13h03.44.788,fluency,2022.2.5,Win32,19.99680051,,,,,,,,,,,,,,,,,,,,,,,5,10,img/B10_05.jpg,GCNB,Press J if the face is GENDER-CONFORMING and K if the face is NONBINARY,Gender-conforming means that the face appears to be a typical example of its gender. Nonbinary means that the face does not conform to any particular gender norms.,JK,,,,,,,,,,,,,,,,,,,,,,,,,,,,,,,,,,,,,,,,,,,,,,993.1765,0,38,38,104,1,109,0,0,0,0,1,98,,,,,,,,,,,,,,,,,,,,,,,,,,,,,,,,,,,,,,,,,,,,,,,,,,,,,,,,,,,,,,,,,,,,,,,,,,
,,,,814770,001,2023-09-28_13h03.44.788,fluency,2022.2.5,Win32,19.99680051,,,,,,,,,,,,,,,,,,,,,,,,,,,,,,,,,,,,,,,,,,,,,,,,,,,,,,,,,,,,,,,,,,,,,,,,,,,,,,,,,,,,,,,,,,5,,,,,space,1.0253,0,0,0,0,1,,,,,,,,,,,,,,,,,,,,,,,,,,,,,,,,,,,,,,,,,,,,,,,,,,,,,,,,,,,,
,,,,814770,001,2023-09-28_13h03.44.788,fluency,2022.2.5,Win32,19.99680051,,,,,,,,,,,,,,,,,,,,,,,,,,,,,,,,,,,,,,,,,,,,,,,,,,,,,,,,,,,,,,,,,,,,,,,,,,,,,,,,,,0,0,0,0,1,,,,,,,,,,,,,,,,,,,,,,,,,,,,,,,,,,,,,,,,,,,,,,,,,,,,,,,,,,,,,,,,,,,,,,,,,,,
,,,,814770,001,2023-09-28_13h03.44.788,fluency,2022.2.5,Win32,19.99680051,,,,,,,,,,,,,,,,,,,,,,,5,10,img/B10_05.jpg,GCNB,Press J if the face is GENDER-CONFORMING and K if the face is NONBINARY,Gender-conforming means that the face appears to be a typical example of its gender. Nonbinary means that the face does not conform to any particular gender norms.,JK,,,,,,,,,,,,,,,,,,,,,,,,,,,,,,,,,,,,,,,,,,,,,,999.3364,0,38,38,104,1,109,1,0,1,0,1,98,,,,,,,,,,,,,,,,,,,,,,,,,,,,,,,,,,,,,,,,,,,,,,,,,,,,,,,,,,,,,,,,,,,,,,,,,,
,,,,814770,001,2023-09-28_13h03.44.788,fluency,2022.2.5,Win32,19.99680051,,,,,,,,,,,,,,,,,,,,,,,,,,,,,,,,,,,,,,,,,,,,,,,,,,,,,,,,,,,,,,,,,,,,,,,,,,,,,,,,,,1,0,1,0,1,,"[""j""]",[0.3658000000118591],5,"[""j"",""2"",""1"",""1"",""1"",""1""]","[0.3658000000118591,1.625,2.0895000000000437,2.24430000001189,2.396400000005997,2.556300000011788]",,,,,,,,,,,,,,,,,,,,,,,,,,,,,,,,,,,,,,,,,,,,,,,,,,,,,,,,,,,,,,,,,,,,,
,,,,814770,001,2023-09-28_13h03.44.788,fluency,2022.2.5,Win32,19.99680051,,,,,,,,,,,,,,,,,,,,,,,5,10,img/B10_05.jpg,GCNB,Press J if the face is GENDER-CONFORMING and K if the face is NONBINARY,Gender-conforming means that the face appears to be a typical example of its gender. Nonbinary means that the face does not conform to any particular gender norms.,JK,,,,,,,,,,,,,,,,,,,,,,,,,,,,,,,,2,0.5056,,,,,,,,,,,,,,0,38,38,104,1,,,,,,,,,,,,,space,0.3726,,,,,,,,,,,,,,,,,,,,,,,,,,,,,,,,,,,,,,,,,,,,,,,,,,,,,,,,,,,,,,,,,,,
,,,,814770,001,2023-09-28_13h03.44.788,fluency,2022.2.5,Win32,19.99680051,,,,,,,,,,,,,,,,,,,,,,,6,4,img/B04_06.jpg,GCNB,Press J if the face is GENDER-CONFORMING and K if the face is NONBINARY,Gender-conforming means that the face appears to be a typical example of its gender. Nonbinary means that the face does not conform to any particular gender norms.,JK,,,,,,,,,,,,,,,,,,,,,,,,,,,,,,,,,,,,,,,,,,,,,,1005.3156,0,39,39,39,1,109,0,0,0,0,1,98,,,,,,,,,,,,,,,,,,,,,,,,,,,,,,,,,,,,,,,,,,,,,,,,,,,,,,,,,,,,,,,,,,,,,,,,,,
,,,,814770,001,2023-09-28_13h03.44.788,fluency,2022.2.5,Win32,19.99680051,,,,,,,,,,,,,,,,,,,,,,,,,,,,,,,,,,,,,,,,,,,,,,,,,,,,,,,,,,,,,,,,,,,,,,,,,,,,,,,,,,0,0,0,0,1,,"[""j""]",[1.3360000000000127],5,"[""j""]",[1.3360000000000127],,,,,,,,,,,,,,,,,,,,,,,,,,,,,,,,,,,,,,,,,,,,,,,,,,,,,,,,,,,,,,,,,,,,,
,,,,814770,001,2023-09-28_13h03.44.788,fluency,2022.2.5,Win32,19.99680051,,,,,,,,,,,,,,,,,,,,,,,6,4,img/B04_06.jpg,GCNB,Press J if the face is GENDER-CONFORMING and K if the face is NONBINARY,Gender-conforming means that the face appears to be a typical example of its gender. Nonbinary means that the face does not conform to any particular gender norms.,JK,,,,,,,,,,,,,,,,,,,,,,,,,,,,,,,,2,1.6735,,,,,,,,,,,,,,0,39,39,39,1,,,,,,,,,,,,,space,0.7597,,,,,,,,,,,,,,,,,,,,,,,,,,,,,,,,,,,,,,,,,,,,,,,,,,,,,,,,,,,,,,,,,,,
,,,,814770,001,2023-09-28_13h03.44.788,fluency,2022.2.5,Win32,19.99680051,,,,,,,,,,,,,,,,,,,,,,,9,7,img/B07_09.jpg,GCNB,Press J if the face is GENDER-CONFORMING and K if the face is NONBINARY,Gender-conforming means that the face appears to be a typical example of its gender. Nonbinary means that the face does not conform to any particular gender norms.,JK,,,,,,,,,,,,,,,,,,,,,,,,,,,,,,,,,,,,,,,,,,,,,,1011.901,0,40,40,75,1,109,0,0,0,0,1,98,,,,,,,,,,,,,,,,,,,,,,,,,,,,,,,,,,,,,,,,,,,,,,,,,,,,,,,,,,,,,,,,,,,,,,,,,,
,,,,814770,001,2023-09-28_13h03.44.788,fluency,2022.2.5,Win32,19.99680051,,,,,,,,,,,,,,,,,,,,,,,,,,,,,,,,,,,,,,,,,,,,,,,,,,,,,,,,,,,,,,,,,,,,,,,,,,,,,,,,,,0,0,0,0,1,,"[""j""]",[1.5217999999820222],5,"[""j""]",[1.5217999999820222],,,,,,,,,,,,,,,,,,,,,,,,,,,,,,,,,,,,,,,,,,,,,,,,,,,,,,,,,,,,,,,,,,,,,
,,,,814770,001,2023-09-28_13h03.44.788,fluency,2022.2.5,Win32,19.99680051,,,,,,,,,,,,,,,,,,,,,,,9,7,img/B07_09.jpg,GCNB,Press J if the face is GENDER-CONFORMING and K if the face is NONBINARY,Gender-conforming means that the face appears to be a typical example of its gender. Nonbinary means that the face does not conform to any particular gender norms.,JK,,,,,,,,,,,,,,,,,,,,,,,,,,,,,,,,3,0.3524,,,,,,,,,,,,,,0,40,40,75,1,,,,,,,,,,,,,space,0.4525,,,,,,,,,,,,,,,,,,,,,,,,,,,,,,,,,,,,,,,,,,,,,,,,,,,,,,,,,,,,,,,,,,,
,,,,814770,001,2023-09-28_13h03.44.788,fluency,2022.2.5,Win32,19.99680051,,,,,,,,,,,,,,,,,,,,,,,4,8,img/B08_04.jpg,GCNB,Press J if the face is GENDER-CONFORMING and K if the face is NONBINARY,Gender-conforming means that the face appears to be a typical example of its gender. Nonbinary means that the face does not conform to any particular gender norms.,JK,,,,,,,,,,,,,,,,,,,,,,,,,,,,,,,,,,,,,,,,,,,,,,1017.8369,0,41,41,81,1,109,0,0,0,0,1,98,,,,,,,,,,,,,,,,,,,,,,,,,,,,,,,,,,,,,,,,,,,,,,,,,,,,,,,,,,,,,,,,,,,,,,,,,,
,,,,814770,001,2023-09-28_13h03.44.788,fluency,2022.2.5,Win32,19.99680051,,,,,,,,,,,,,,,,,,,,,,,,,,,,,,,,,,,,,,,,,,,,,,,,,,,,,,,,,,,,,,,,,,,,,,,,,,,,,,,,,,0,0,0,0,1,,"[""k"",""k""]","[2.0505999999941196,2.4210999999941123]",5,"[""k"",""k""]","[2.0505999999941196,2.4212000000179614]",,,,,,,,,,,,,,,,,,,,,,,,,,,,,,,,,,,,,,,,,,,,,,,,,,,,,,,,,,,,,,,,,,,,,
,,,,814770,001,2023-09-28_13h03.44.788,fluency,2022.2.5,Win32,19.99680051,,,,,,,,,,,,,,,,,,,,,,,4,8,img/B08_04.jpg,GCNB,Press J if the face is GENDER-CONFORMING and K if the face is NONBINARY,Gender-conforming means that the face appears to be a typical example of its gender. Nonbinary means that the face does not conform to any particular gender norms.,JK,,,,,,,,,,,,,,,,,,,,,,,,,,,,,,,,5,1.0142,,,,,,,,,,,,,,0,41,41,81,1,,,,,,,,,,,,,space,0.3829,,,,,,,,,,,,,,,,,,,,,,,,,,,,,,,,,,,,,,,,,,,,,,,,,,,,,,,,,,,,,,,,,,,
,,,,814770,001,2023-09-28_13h03.44.788,fluency,2022.2.5,Win32,19.99680051,,,,,,,,,,,,,,,,,,,,,,,3,5,img/B05_03.jpg,GCNB,Press J if the face is GENDER-CONFORMING and K if the face is NONBINARY,Gender-conforming means that the face appears to be a typical example of its gender. Nonbinary means that the face does not conform to any particular gender norms.,JK,,,,,,,,,,,,,,,,,,,,,,,,,,,,,,,,,,,,,,,,,,,,,,1023.3717,0,42,42,47,1,109,0,0,0,0,1,98,,,,,,,,,,,,,,,,,,,,,,,,,,,,,,,,,,,,,,,,,,,,,,,,,,,,,,,,,,,,,,,,,,,,,,,,,,
,,,,814770,001,2023-09-28_13h03.44.788,fluency,2022.2.5,Win32,19.99680051,,,,,,,,,,,,,,,,,,,,,,,,,,,,,,,,,,,,,,,,,,,,,,,,,,,,,,,,,,,,,,,,,,,,,,,,,,,,,,,,,,0,0,0,0,1,,"[""k""]",[1.7851999999879808],5,"[""k""]",[1.7851999999879808],,,,,,,,,,,,,,,,,,,,,,,,,,,,,,,,,,,,,,,,,,,,,,,,,,,,,,,,,,,,,,,,,,,,,
,,,,814770,001,2023-09-28_13h03.44.788,fluency,2022.2.5,Win32,19.99680051,,,,,,,,,,,,,,,,,,,,,,,3,5,img/B05_03.jpg,GCNB,Press J if the face is GENDER-CONFORMING and K if the face is NONBINARY,Gender-conforming means that the face appears to be a typical example of its gender. Nonbinary means that the face does not conform to any particular gender norms.,JK,,,,,,,,,,,,,,,,,,,,,,,,,,,,,,,,2,0.296,,,,,,,,,,,,,,0,42,42,47,1,,,,,,,,,,,,,space,0.5198,,,,,,,,,,,,,,,,,,,,,,,,,,,,,,,,,,,,,,,,,,,,,,,,,,,,,,,,,,,,,,,,,,,
,,,,814770,001,2023-09-28_13h03.44.788,fluency,2022.2.5,Win32,19.99680051,,,,,,,,,,,,,,,,,,,,,,,8,9,img/B09_08.jpg,GCNB,Press J if the face is GENDER-CONFORMING and K if the face is NONBINARY,Gender-conforming means that the face appears to be a typical example of its gender. Nonbinary means that the face does not conform to any particular gender norms.,JK,,,,,,,,,,,,,,,,,,,,,,,,,,,,,,,,,,,,,,,,,,,,,,1028.4107,0,43,43,96,1,109,0,0,0,0,1,98,,,,,,,,,,,,,,,,,,,,,,,,,,,,,,,,,,,,,,,,,,,,,,,,,,,,,,,,,,,,,,,,,,,,,,,,,,
,,,,814770,001,2023-09-28_13h03.44.788,fluency,2022.2.5,Win32,19.99680051,,,,,,,,,,,,,,,,,,,,,,,,,,,,,,,,,,,,,,,,,,,,,,,,,,,,,,,,,,,,,,,,,,,,,,,,,,,,,,,,,,0,0,0,0,1,,"[""j""]",[1.7160999999939577],5,"[""j""]",[1.7160999999939577],,,,,,,,,,,,,,,,,,,,,,,,,,,,,,,,,,,,,,,,,,,,,,,,,,,,,,,,,,,,,,,,,,,,,
,,,,814770,001,2023-09-28_13h03.44.788,fluency,2022.2.5,Win32,19.99680051,,,,,,,,,,,,,,,,,,,,,,,8,9,img/B09_08.jpg,GCNB,Press J if the face is GENDER-CONFORMING and K if the face is NONBINARY,Gender-conforming means that the face appears to be a typical example of its gender. Nonbinary means that the face does not conform to any particular gender norms.,JK,,,,,,,,,,,,,,,,,,,,,,,,,,,,,,,,2,0.2248,,,,,,,,,,,,,,0,43,43,96,1,,,,,,,,,,,,,space,0.5219,,,,,,,,,,,,,,,,,,,,,,,,,,,,,,,,,,,,,,,,,,,,,,,,,,,,,,,,,,,,,,,,,,,
,,,,814770,001,2023-09-28_13h03.44.788,fluency,2022.2.5,Win32,19.99680051,,,,,,,,,,,,,,,,,,,,,,,2,7,img/B07_02.jpg,GCNB,Press J if the face is GENDER-CONFORMING and K if the face is NONBINARY,Gender-conforming means that the face appears to be a typical example of its gender. Nonbinary means that the face does not conform to any particular gender norms.,JK,,,,,,,,,,,,,,,,,,,,,,,,,,,,,,,,,,,,,,,,,,,,,,1033.3079,0,44,44,68,1,109,0,0,0,0,1,98,,,,,,,,,,,,,,,,,,,,,,,,,,,,,,,,,,,,,,,,,,,,,,,,,,,,,,,,,,,,,,,,,,,,,,,,,,
,,,,814770,001,2023-09-28_13h03.44.788,fluency,2022.2.5,Win32,19.99680051,,,,,,,,,,,,,,,,,,,,,,,,,,,,,,,,,,,,,,,,,,,,,,,,,,,,,,,,,,,,,,,,,,,,,,,,,,,,,,,,,,0,0,0,0,1,,"[""j""]",[1.5300000000002],5,"[""j""]",[1.5300000000002],,,,,,,,,,,,,,,,,,,,,,,,,,,,,,,,,,,,,,,,,,,,,,,,,,,,,,,,,,,,,,,,,,,,,
,,,,814770,001,2023-09-28_13h03.44.788,fluency,2022.2.5,Win32,19.99680051,,,,,,,,,,,,,,,,,,,,,,,2,7,img/B07_02.jpg,GCNB,Press J if the face is GENDER-CONFORMING and K if the face is NONBINARY,Gender-conforming means that the face appears to be a typical example of its gender. Nonbinary means that the face does not conform to any particular gender norms.,JK,,,,,,,,,,,,,,,,,,,,,,,,,,,,,,,,1,0.3074,,,,,,,,,,,,,,0,44,44,68,1,,,,,,,,,,,,,space,0.4995,,,,,,,,,,,,,,,,,,,,,,,,,,,,,,,,,,,,,,,,,,,,,,,,,,,,,,,,,,,,,,,,,,,
,,,,814770,001,2023-09-28_13h03.44.788,fluency,2022.2.5,Win32,19.99680051,,,,,,,,,,,,,,,,,,,,,,,1,10,img/B10_01.jpg,GCNB,Press J if the face is GENDER-CONFORMING and K if the face is NONBINARY,Gender-conforming means that the face appears to be a typical example of its gender. Nonbinary means that the face does not conform to any particular gender norms.,JK,,,,,,,,,,,,,,,,,,,,,,,,,,,,,,,,,,,,,,,,,,,,,,1039.3176,0,45,45,100,1,109,0,0,0,0,1,98,,,,,,,,,,,,,,,,,,,,,,,,,,,,,,,,,,,,,,,,,,,,,,,,,,,,,,,,,,,,,,,,,,,,,,,,,,
,,,,814770,001,2023-09-28_13h03.44.788,fluency,2022.2.5,Win32,19.99680051,,,,,,,,,,,,,,,,,,,,,,,,,,,,,,,,,,,,,,,,,,,,,,,,,,,,,,,,,,,,,,,,,,,,,,,,,,,,,,,,,,0,0,0,0,1,,"[""j""]",[1.0293000000119719],5,"[""j""]",[1.0293000000119719],,,,,,,,,,,,,,,,,,,,,,,,,,,,,,,,,,,,,,,,,,,,,,,,,,,,,,,,,,,,,,,,,,,,,
,,,,814770,001,2023-09-28_13h03.44.788,fluency,2022.2.5,Win32,19.99680051,,,,,,,,,,,,,,,,,,,,,,,1,10,img/B10_01.jpg,GCNB,Press J if the face is GENDER-CONFORMING and K if the face is NONBINARY,Gender-conforming means that the face appears to be a typical example of its gender. Nonbinary means that the face does not conform to any particular gender norms.,JK,,,,,,,,,,,,,,,,,,,,,,,,,,,,,,,,1,0.3838,,,,,,,,,,,,,,0,45,45,100,1,,,,,,,,,,,,,space,0.6868,,,,,,,,,,,,,,,,,,,,,,,,,,,,,,,,,,,,,,,,,,,,,,,,,,,,,,,,,,,,,,,,,,,
,,,,814770,001,2023-09-28_13h03.44.788,fluency,2022.2.5,Win32,19.99680051,,,,,,,,,,,,,,,,,,,,,,,5,3,img/B03_05.jpg,GCNB,Press J if the face is GENDER-CONFORMING and K if the face is NONBINARY,Gender-conforming means that the face appears to be a typical example of its gender. Nonbinary means that the face does not conform to any particular gender norms.,JK,,,,,,,,,,,,,,,,,,,,,,,,,,,,,,,,,,,,,,,,,,,,,,1044.5338,0,46,46,27,1,109,0,0,0,0,1,98,,,,,,,,,,,,,,,,,,,,,,,,,,,,,,,,,,,,,,,,,,,,,,,,,,,,,,,,,,,,,,,,,,,,,,,,,,
,,,,814770,001,2023-09-28_13h03.44.788,fluency,2022.2.5,Win32,19.99680051,,,,,,,,,,,,,,,,,,,,,,,,,,,,,,,,,,,,,,,,,,,,,,,,,,,,,,,,,,,,,,,,,,,,,,,,,,,,,,,,,,0,0,0,0,1,,"[""j""]",[2.3975000000000364],5,"[""j""]",[2.3975000000000364],,,,,,,,,,,,,,,,,,,,,,,,,,,,,,,,,,,,,,,,,,,,,,,,,,,,,,,,,,,,,,,,,,,,,
,,,,814770,001,2023-09-28_13h03.44.788,fluency,2022.2.5,Win32,19.99680051,,,,,,,,,,,,,,,,,,,,,,,5,3,img/B03_05.jpg,GCNB,Press J if the face is GENDER-CONFORMING and K if the face is NONBINARY,Gender-conforming means that the face appears to be a typical example of its gender. Nonbinary means that the face does not conform to any particular gender norms.,JK,,,,,,,,,,,,,,,,,,,,,,,,,,,,,,,,3,1.5236,,,,,,,,,,,,,,0,46,46,27,1,,,,,,,,,,,,,space,0.4686,,,,,,,,,,,,,,,,,,,,,,,,,,,,,,,,,,,,,,,,,,,,,,,,,,,,,,,,,,,,,,,,,,,
,,,,814770,001,2023-09-28_13h03.44.788,fluency,2022.2.5,Win32,19.99680051,,,,,,,,,,,,,,,,,,,,,,,7,5,img/B05_07.jpg,GCNB,Press J if the face is GENDER-CONFORMING and K if the face is NONBINARY,Gender-conforming means that the face appears to be a typical example of its gender. Nonbinary means that the face does not conform to any particular gender norms.,JK,,,,,,,,,,,,,,,,,,,,,,,,,,,,,,,,,,,,,,,,,,,,,,1051.6839,0,47,47,51,1,109,0,0,0,0,1,98,,,,,,,,,,,,,,,,,,,,,,,,,,,,,,,,,,,,,,,,,,,,,,,,,,,,,,,,,,,,,,,,,,,,,,,,,,
,,,,814770,001,2023-09-28_13h03.44.788,fluency,2022.2.5,Win32,19.99680051,,,,,,,,,,,,,,,,,,,,,,,,,,,,,,,,,,,,,,,,,,,,,,,,,,,,,,,,,,,,,,,,,,,,,,,,,,,,,,,,,,0,0,0,0,1,,"[""j""]",[0.979099999994105],5,"[""j"",""3""]","[0.979099999994105,2.538900000005924]",,,,,,,,,,,,,,,,,,,,,,,,,,,,,,,,,,,,,,,,,,,,,,,,,,,,,,,,,,,,,,,,,,,,,
,,,,814770,001,2023-09-28_13h03.44.788,fluency,2022.2.5,Win32,19.99680051,,,,,,,,,,,,,,,,,,,,,,,7,5,img/B05_07.jpg,GCNB,Press J if the face is GENDER-CONFORMING and K if the face is NONBINARY,Gender-conforming means that the face appears to be a typical example of its gender. Nonbinary means that the face does not conform to any particular gender norms.,JK,,,,,,,,,,,,,,,,,,,,,,,,,,,,,,,,3,0.3596,,,,,,,,,,,,,,0,47,47,51,1,,,,,,,,,,,,,space,0.4681,,,,,,,,,,,,,,,,,,,,,,,,,,,,,,,,,,,,,,,,,,,,,,,,,,,,,,,,,,,,,,,,,,,
,,,,814770,001,2023-09-28_13h03.44.788,fluency,2022.2.5,Win32,19.99680051,,,,,,,,,,,,,,,,,,,,,,,2,2,img/B02_02.jpg,GCNB,Press J if the face is GENDER-CONFORMING and K if the face is NONBINARY,Gender-conforming means that the face appears to be a typical example of its gender. Nonbinary means that the face does not conform to any particular gender norms.,JK,,,,,,,,,,,,,,,,,,,,,,,,,,,,,,,,,,,,,,,,,,,,,,1056.6584,0,48,48,13,1,109,0,0,0,0,1,98,,,,,,,,,,,,,,,,,,,,,,,,,,,,,,,,,,,,,,,,,,,,,,,,,,,,,,,,,,,,,,,,,,,,,,,,,,
,,,,814770,001,2023-09-28_13h03.44.788,fluency,2022.2.5,Win32,19.99680051,,,,,,,,,,,,,,,,,,,,,,,,,,,,,,,,,,,,,,,,,,,,,,,,,,,,,,,,,,,,,,,,,,,,,,,,,,,,,,,,,,0,0,0,0,1,,"[""k""]",[1.9845999999940886],5,"[""k""]",[1.9845999999940886],,,,,,,,,,,,,,,,,,,,,,,,,,,,,,,,,,,,,,,,,,,,,,,,,,,,,,,,,,,,,,,,,,,,,
,,,,814770,001,2023-09-28_13h03.44.788,fluency,2022.2.5,Win32,19.99680051,,,,,,,,,,,,,,,,,,,,,,,2,2,img/B02_02.jpg,GCNB,Press J if the face is GENDER-CONFORMING and K if the face is NONBINARY,Gender-conforming means that the face appears to be a typical example of its gender. Nonbinary means that the face does not conform to any particular gender norms.,JK,,,,,,,,,,,,,,,,,,,,,,,,,,,,,,,,2,0.7851,,,,,,,,,,,,,,0,48,48,13,1,,,,,,,,,,,,,space,0.5139,,,,,,,,,,,,,,,,,,,,,,,,,,,,,,,,,,,,,,,,,,,,,,,,,,,,,,,,,,,,,,,,,,,
,,,,814770,001,2023-09-28_13h03.44.788,fluency,2022.2.5,Win32,19.99680051,,,,,,,,,,,,,,,,,,,,,,,3,4,img/B04_03.jpg,GCNB,Press J if the face is GENDER-CONFORMING and K if the face is NONBINARY,Gender-conforming means that the face appears to be a typical example of its gender. Nonbinary means that the face does not conform to any particular gender norms.,JK,,,,,,,,,,,,,,,,,,,,,,,,,,,,,,,,,,,,,,,,,,,,,,1062.1347,0,49,49,36,1,109,0,0,0,0,1,98,,,,,,,,,,,,,,,,,,,,,,,,,,,,,,,,,,,,,,,,,,,,,,,,,,,,,,,,,,,,,,,,,,,,,,,,,,
,,,,814770,001,2023-09-28_13h03.44.788,fluency,2022.2.5,Win32,19.99680051,,,,,,,,,,,,,,,,,,,,,,,,,,,,,,,,,,,,,,,,,,,,,,,,,,,,,,,,,,,,,,,,,,,,,,,,,,,,,,,,,,0,0,0,0,1,,"[""j""]",[1.399499999999989],5,"[""j""]",[1.399400000005926],,,,,,,,,,,,,,,,,,,,,,,,,,,,,,,,,,,,,,,,,,,,,,,,,,,,,,,,,,,,,,,,,,,,,
,,,,814770,001,2023-09-28_13h03.44.788,fluency,2022.2.5,Win32,19.99680051,,,,,,,,,,,,,,,,,,,,,,,3,4,img/B04_03.jpg,GCNB,Press J if the face is GENDER-CONFORMING and K if the face is NONBINARY,Gender-conforming means that the face appears to be a typical example of its gender. Nonbinary means that the face does not conform to any particular gender norms.,JK,,,,,,,,,,,,,,,,,,,,,,,,,,,,,,,,4,0.377,,,,,,,,,,,,,,0,49,49,36,1,,,,,,,,,,,,,space,0.3919,,,,,,,,,,,,,,,,,,,,,,,,,,,,,,,,,,,,,,,,,,,,,,,,,,,,,,,,,,,,,,,,,,,
,,,,814770,001,2023-09-28_13h03.44.788,fluency,2022.2.5,Win32,19.99680051,,,,,,,,,,,,,,,,,,,,,,,10,3,img/B03_10.jpg,GCNB,Press J if the face is GENDER-CONFORMING and K if the face is NONBINARY,Gender-conforming means that the face appears to be a typical example of its gender. Nonbinary means that the face does not conform to any particular gender norms.,JK,,,,,,,,,,,,,,,,,,,,,,,,,,,,,,,,,,,,,,,,,,,,,,1068.1078,0,50,50,32,1,109,0,0,0,0,1,98,,,,,,,,,,,,,,,,,,,,,,,,,,,,,,,,,,,,,,,,,,,,,,,,,,,,,,,,,,,,,,,,,,,,,,,,,,
,,,,814770,001,2023-09-28_13h03.44.788,fluency,2022.2.5,Win32,19.99680051,,,,,,,,,,,,,,,,,,,,,,,,,,,,,,,,,,,,,,,,,,,,,,,,,,,,,,,,,,,,,,,,,,,,,,,,,,,,,,,,,,0,0,0,0,1,,"[""j""]",[1.3149000000059914],5,"[""j""]",[1.3149000000059914],,,,,,,,,,,,,,,,,,,,,,,,,,,,,,,,,,,,,,,,,,,,,,,,,,,,,,,,,,,,,,,,,,,,,
,,,,814770,001,2023-09-28_13h03.44.788,fluency,2022.2.5,Win32,19.99680051,,,,,,,,,,,,,,,,,,,,,,,10,3,img/B03_10.jpg,GCNB,Press J if the face is GENDER-CONFORMING and K if the face is NONBINARY,Gender-conforming means that the face appears to be a typical example of its gender. Nonbinary means that the face does not conform to any particular gender norms.,JK,,,,,,,,,,,,,,,,,,,,,,,,,,,,,,,,3,0.3897,,,,,,,,,,,,,,0,50,50,32,1,,,,,,,,,,,,,space,0.5887,,,,,,,,,,,,,,,,,,,,,,,,,,,,,,,,,,,,,,,,,,,,,,,,,,,,,,,,,,,,,,,,,,,
,,,,814770,001,2023-09-28_13h03.44.788,fluency,2022.2.5,Win32,19.99680051,,,,,,,,,,,,,,,,,,,,,,,0,6,img/B06_00.jpg,GCNB,Press J if the face is GENDER-CONFORMING and K if the face is NONBINARY,Gender-conforming means that the face appears to be a typical example of its gender. Nonbinary means that the face does not conform to any particular gender norms.,JK,,,,,,,,,,,,,,,,,,,,,,,,,,,,,,,,,,,,,,,,,,,,,,1073.2278,0,51,51,55,1,109,0,0,0,0,1,98,,,,,,,,,,,,,,,,,,,,,,,,,,,,,,,,,,,,,,,,,,,,,,,,,,,,,,,,,,,,,,,,,,,,,,,,,,
,,,,814770,001,2023-09-28_13h03.44.788,fluency,2022.2.5,Win32,19.99680051,,,,,,,,,,,,,,,,,,,,,,,,,,,,,,,,,,,,,,,,,,,,,,,,,,,,,,,,,,,,,,,,,,,,,,,,,,,,,,,,,,,,,,,,,,6,,,,,space,1.5065,0,0,0,0,1,,,,,,,,,,,,,,,,,,,,,,,,,,,,,,,,,,,,,,,,,,,,,,,,,,,,,,,,,,,,
,,,,814770,001,2023-09-28_13h03.44.788,fluency,2022.2.5,Win32,19.99680051,,,,,,,,,,,,,,,,,,,,,,,,,,,,,,,,,,,,,,,,,,,,,,,,,,,,,,,,,,,,,,,,,,,,,,,,,,,,,,,,,,0,0,0,0,1,,,,,,,,,,,,,,,,,,,,,,,,,,,,,,,,,,,,,,,,,,,,,,,,,,,,,,,,,,,,,,,,,,,,,,,,,,,
,,,,814770,001,2023-09-28_13h03.44.788,fluency,2022.2.5,Win32,19.99680051,,,,,,,,,,,,,,,,,,,,,,,0,6,img/B06_00.jpg,GCNB,Press J if the face is GENDER-CONFORMING and K if the face is NONBINARY,Gender-conforming means that the face appears to be a typical example of its gender. Nonbinary means that the face does not conform to any particular gender norms.,JK,,,,,,,,,,,,,,,,,,,,,,,,,,,,,,,,,,,,,,,,,,,,,,1079.8909,0,51,51,55,1,109,1,0,1,0,1,98,,,,,,,,,,,,,,,,,,,,,,,,,,,,,,,,,,,,,,,,,,,,,,,,,,,,,,,,,,,,,,,,,,,,,,,,,,
,,,,814770,001,2023-09-28_13h03.44.788,fluency,2022.2.5,Win32,19.99680051,,,,,,,,,,,,,,,,,,,,,,,,,,,,,,,,,,,,,,,,,,,,,,,,,,,,,,,,,,,,,,,,,,,,,,,,,,,,,,,,,,1,0,1,0,1,,"[""k""]",[1.5850999999940996],6,"[""k""]",[1.5850999999940996],,,,,,,,,,,,,,,,,,,,,,,,,,,,,,,,,,,,,,,,,,,,,,,,,,,,,,,,,,,,,,,,,,,,,
,,,,814770,001,2023-09-28_13h03.44.788,fluency,2022.2.5,Win32,19.99680051,,,,,,,,,,,,,,,,,,,,,,,0,6,img/B06_00.jpg,GCNB,Press J if the face is GENDER-CONFORMING and K if the face is NONBINARY,Gender-conforming means that the face appears to be a typical example of its gender. Nonbinary means that the face does not conform to any particular gender norms.,JK,,,,,,,,,,,,,,,,,,,,,,,,,,,,,,,,3,1.0228,,,,,,,,,,,,,,0,51,51,55,1,,,,,,,,,,,,,space,0.6126,,,,,,,,,,,,,,,,,,,,,,,,,,,,,,,,,,,,,,,,,,,,,,,,,,,,,,,,,,,,,,,,,,,
,,,,814770,001,2023-09-28_13h03.44.788,fluency,2022.2.5,Win32,19.99680051,,,,,,,,,,,,,,,,,,,,,,,5,4,img/B04_05.jpg,GCNB,Press J if the face is GENDER-CONFORMING and K if the face is NONBINARY,Gender-conforming means that the face appears to be a typical example of its gender. Nonbinary means that the face does not conform to any particular gender norms.,JK,,,,,,,,,,,,,,,,,,,,,,,,,,,,,,,,,,,,,,,,,,,,,,1086.7333,0,52,52,38,1,109,0,0,0,0,1,98,,,,,,,,,,,,,,,,,,,,,,,,,,,,,,,,,,,,,,,,,,,,,,,,,,,,,,,,,,,,,,,,,,,,,,,,,,
,,,,814770,001,2023-09-28_13h03.44.788,fluency,2022.2.5,Win32,19.99680051,,,,,,,,,,,,,,,,,,,,,,,,,,,,,,,,,,,,,,,,,,,,,,,,,,,,,,,,,,,,,,,,,,,,,,,,,,,,,,,,,,,,,,,,,,7,,,,,space,0.7089,0,0,0,0,1,,,,,,,,,,,,,,,,,,,,,,,,,,,,,,,,,,,,,,,,,,,,,,,,,,,,,,,,,,,,
,,,,814770,001,2023-09-28_13h03.44.788,fluency,2022.2.5,Win32,19.99680051,,,,,,,,,,,,,,,,,,,,,,,,,,,,,,,,,,,,,,,,,,,,,,,,,,,,,,,,,,,,,,,,,,,,,,,,,,,,,,,,,,0,0,0,0,1,,,,,,,,,,,,,,,,,,,,,,,,,,,,,,,,,,,,,,,,,,,,,,,,,,,,,,,,,,,,,,,,,,,,,,,,,,,
,,,,814770,001,2023-09-28_13h03.44.788,fluency,2022.2.5,Win32,19.99680051,,,,,,,,,,,,,,,,,,,,,,,5,4,img/B04_05.jpg,GCNB,Press J if the face is GENDER-CONFORMING and K if the face is NONBINARY,Gender-conforming means that the face appears to be a typical example of its gender. Nonbinary means that the face does not conform to any particular gender norms.,JK,,,,,,,,,,,,,,,,,,,,,,,,,,,,,,,,,,,,,,,,,,,,,,1091.528,0,52,52,38,1,109,1,0,1,0,1,98,,,,,,,,,,,,,,,,,,,,,,,,,,,,,,,,,,,,,,,,,,,,,,,,,,,,,,,,,,,,,,,,,,,,,,,,,,
,,,,814770,001,2023-09-28_13h03.44.788,fluency,2022.2.5,Win32,19.99680051,,,,,,,,,,,,,,,,,,,,,,,,,,,,,,,,,,,,,,,,,,,,,,,,,,,,,,,,,,,,,,,,,,,,,,,,,,,,,,,,,,1,0,1,0,1,,"[""k""]",[1.7903999999762163],7,"[""k""]",[1.7903999999762163],,,,,,,,,,,,,,,,,,,,,,,,,,,,,,,,,,,,,,,,,,,,,,,,,,,,,,,,,,,,,,,,,,,,,
,,,,814770,001,2023-09-28_13h03.44.788,fluency,2022.2.5,Win32,19.99680051,,,,,,,,,,,,,,,,,,,,,,,5,4,img/B04_05.jpg,GCNB,Press J if the face is GENDER-CONFORMING and K if the face is NONBINARY,Gender-conforming means that the face appears to be a typical example of its gender. Nonbinary means that the face does not conform to any particular gender norms.,JK,,,,,,,,,,,,,,,,,,,,,,,,,,,,,,,,3,0.573,,,,,,,,,,,,,,0,52,52,38,1,,,,,,,,,,,,,space,0.3649,,,,,,,,,,,,,,,,,,,,,,,,,,,,,,,,,,,,,,,,,,,,,,,,,,,,,,,,,,,,,,,,,,,
,,,,814770,001,2023-09-28_13h03.44.788,fluency,2022.2.5,Win32,19.99680051,,,,,,,,,,,,,,,,,,,,,,,2,8,img/B08_02.jpg,GCNB,Press J if the face is GENDER-CONFORMING and K if the face is NONBINARY,Gender-conforming means that the face appears to be a typical example of its gender. Nonbinary means that the face does not conform to any particular gender norms.,JK,,,,,,,,,,,,,,,,,,,,,,,,,,,,,,,,,,,,,,,,,,,,,,1097.6641,0,53,53,79,1,109,0,0,0,0,1,98,,,,,,,,,,,,,,,,,,,,,,,,,,,,,,,,,,,,,,,,,,,,,,,,,,,,,,,,,,,,,,,,,,,,,,,,,,
,,,,814770,001,2023-09-28_13h03.44.788,fluency,2022.2.5,Win32,19.99680051,,,,,,,,,,,,,,,,,,,,,,,,,,,,,,,,,,,,,,,,,,,,,,,,,,,,,,,,,,,,,,,,,,,,,,,,,,,,,,,,,,0,0,0,0,1,,"[""j""]",[1.1865000000000236],7,"[""j""]",[1.1865000000000236],,,,,,,,,,,,,,,,,,,,,,,,,,,,,,,,,,,,,,,,,,,,,,,,,,,,,,,,,,,,,,,,,,,,,
,,,,814770,001,2023-09-28_13h03.44.788,fluency,2022.2.5,Win32,19.99680051,,,,,,,,,,,,,,,,,,,,,,,2,8,img/B08_02.jpg,GCNB,Press J if the face is GENDER-CONFORMING and K if the face is NONBINARY,Gender-conforming means that the face appears to be a typical example of its gender. Nonbinary means that the face does not conform to any particular gender norms.,JK,,,,,,,,,,,,,,,,,,,,,,,,,,,,,,,,4,0.5903,,,,,,,,,,,,,,0,53,53,79,1,,,,,,,,,,,,,space,0.3867,,,,,,,,,,,,,,,,,,,,,,,,,,,,,,,,,,,,,,,,,,,,,,,,,,,,,,,,,,,,,,,,,,,
,,,,814770,001,2023-09-28_13h03.44.788,fluency,2022.2.5,Win32,19.99680051,,,,,,,,,,,,,,,,,,,,,,,6,8,img/B08_06.jpg,GCNB,Press J if the face is GENDER-CONFORMING and K if the face is NONBINARY,Gender-conforming means that the face appears to be a typical example of its gender. Nonbinary means that the face does not conform to any particular gender norms.,JK,,,,,,,,,,,,,,,,,,,,,,,,,,,,,,,,,,,,,,,,,,,,,,1103.8185,0,54,54,83,1,109,0,0,0,0,1,98,,,,,,,,,,,,,,,,,,,,,,,,,,,,,,,,,,,,,,,,,,,,,,,,,,,,,,,,,,,,,,,,,,,,,,,,,,
,,,,814770,001,2023-09-28_13h03.44.788,fluency,2022.2.5,Win32,19.99680051,,,,,,,,,,,,,,,,,,,,,,,,,,,,,,,,,,,,,,,,,,,,,,,,,,,,,,,,,,,,,,,,,,,,,,,,,,,,,,,,,,0,0,0,0,1,,"[""k""]",[1.3989000000060514],7,"[""k""]",[1.3989000000060514],,,,,,,,,,,,,,,,,,,,,,,,,,,,,,,,,,,,,,,,,,,,,,,,,,,,,,,,,,,,,,,,,,,,,
,,,,814770,001,2023-09-28_13h03.44.788,fluency,2022.2.5,Win32,19.99680051,,,,,,,,,,,,,,,,,,,,,,,6,8,img/B08_06.jpg,GCNB,Press J if the face is GENDER-CONFORMING and K if the face is NONBINARY,Gender-conforming means that the face appears to be a typical example of its gender. Nonbinary means that the face does not conform to any particular gender norms.,JK,,,,,,,,,,,,,,,,,,,,,,,,,,,,,,,,5,0.8058,,,,,,,,,,,,,,0,54,54,83,1,,,,,,,,,,,,,space,0.4364,,,,,,,,,,,,,,,,,,,,,,,,,,,,,,,,,,,,,,,,,,,,,,,,,,,,,,,,,,,,,,,,,,,
,,,,814770,001,2023-09-28_13h03.44.788,fluency,2022.2.5,Win32,19.99680051,,,,,,,,,,,,,,,,,,,,,,,5,1,img/B01_05.jpg,GCNB,Press J if the face is GENDER-CONFORMING and K if the face is NONBINARY,Gender-conforming means that the face appears to be a typical example of its gender. Nonbinary means that the face does not conform to any particular gender norms.,JK,,,,,,,,,,,,,,,,,,,,,,,,,,,,,,,,,,,,,,,,,,,,,,1110.2008,0,55,55,5,1,109,0,0,0,0,1,98,,,,,,,,,,,,,,,,,,,,,,,,,,,,,,,,,,,,,,,,,,,,,,,,,,,,,,,,,,,,,,,,,,,,,,,,,,
,,,,814770,001,2023-09-28_13h03.44.788,fluency,2022.2.5,Win32,19.99680051,,,,,,,,,,,,,,,,,,,,,,,,,,,,,,,,,,,,,,,,,,,,,,,,,,,,,,,,,,,,,,,,,,,,,,,,,,,,,,,,,,0,0,0,0,1,,"[""k""]",[1.3784000000059677],7,"[""k""]",[1.3784000000059677],,,,,,,,,,,,,,,,,,,,,,,,,,,,,,,,,,,,,,,,,,,,,,,,,,,,,,,,,,,,,,,,,,,,,
,,,,814770,001,2023-09-28_13h03.44.788,fluency,2022.2.5,Win32,19.99680051,,,,,,,,,,,,,,,,,,,,,,,5,1,img/B01_05.jpg,GCNB,Press J if the face is GENDER-CONFORMING and K if the face is NONBINARY,Gender-conforming means that the face appears to be a typical example of its gender. Nonbinary means that the face does not conform to any particular gender norms.,JK,,,,,,,,,,,,,,,,,,,,,,,,,,,,,,,,3,0.7297,,,,,,,,,,,,,,0,55,55,5,1,,,,,,,,,,,,,space,0.4504,,,,,,,,,,,,,,,,,,,,,,,,,,,,,,,,,,,,,,,,,,,,,,,,,,,,,,,,,,,,,,,,,,,
,,,,814770,001,2023-09-28_13h03.44.788,fluency,2022.2.5,Win32,19.99680051,,,,,,,,,,,,,,,,,,,,,,,6,3,img/B03_06.jpg,GCNB,Press J if the face is GENDER-CONFORMING and K if the face is NONBINARY,Gender-conforming means that the face appears to be a typical example of its gender. Nonbinary means that the face does not conform to any particular gender norms.,JK,,,,,,,,,,,,,,,,,,,,,,,,,,,,,,,,,,,,,,,,,,,,,,1115.5237,0,56,56,28,1,109,0,0,0,0,1,98,,,,,,,,,,,,,,,,,,,,,,,,,,,,,,,,,,,,,,,,,,,,,,,,,,,,,,,,,,,,,,,,,,,,,,,,,,
,,,,814770,001,2023-09-28_13h03.44.788,fluency,2022.2.5,Win32,19.99680051,,,,,,,,,,,,,,,,,,,,,,,,,,,,,,,,,,,,,,,,,,,,,,,,,,,,,,,,,,,,,,,,,,,,,,,,,,,,,,,,,,0,0,0,0,1,,"[""k""]",[1.9686999999880754],7,"[""k""]",[1.9686999999880754],,,,,,,,,,,,,,,,,,,,,,,,,,,,,,,,,,,,,,,,,,,,,,,,,,,,,,,,,,,,,,,,,,,,,
,,,,814770,001,2023-09-28_13h03.44.788,fluency,2022.2.5,Win32,19.99680051,,,,,,,,,,,,,,,,,,,,,,,6,3,img/B03_06.jpg,GCNB,Press J if the face is GENDER-CONFORMING and K if the face is NONBINARY,Gender-conforming means that the face appears to be a typical example of its gender. Nonbinary means that the face does not conform to any particular gender norms.,JK,,,,,,,,,,,,,,,,,,,,,,,,,,,,,,,,4,0.7939,,,,,,,,,,,,,,0,56,56,28,1,,,,,,,,,,,,,space,0.3669,,,,,,,,,,,,,,,,,,,,,,,,,,,,,,,,,,,,,,,,,,,,,,,,,,,,,,,,,,,,,,,,,,,
,,,,814770,001,2023-09-28_13h03.44.788,fluency,2022.2.5,Win32,19.99680051,,,,,,,,,,,,,,,,,,,,,,,5,5,img/B05_05.jpg,GCNB,Press J if the face is GENDER-CONFORMING and K if the face is NONBINARY,Gender-conforming means that the face appears to be a typical example of its gender. Nonbinary means that the face does not conform to any particular gender norms.,JK,,,,,,,,,,,,,,,,,,,,,,,,,,,,,,,,,,,,,,,,,,,,,,1120.8406,0,57,57,49,1,109,0,0,0,0,1,98,,,,,,,,,,,,,,,,,,,,,,,,,,,,,,,,,,,,,,,,,,,,,,,,,,,,,,,,,,,,,,,,,,,,,,,,,,
,,,,814770,001,2023-09-28_13h03.44.788,fluency,2022.2.5,Win32,19.99680051,,,,,,,,,,,,,,,,,,,,,,,,,,,,,,,,,,,,,,,,,,,,,,,,,,,,,,,,,,,,,,,,,,,,,,,,,,,,,,,,,,0,0,0,0,1,,"[""k""]",[1.8501999999880354],7,"[""k""]",[1.8500999999939722],,,,,,,,,,,,,,,,,,,,,,,,,,,,,,,,,,,,,,,,,,,,,,,,,,,,,,,,,,,,,,,,,,,,,
,,,,814770,001,2023-09-28_13h03.44.788,fluency,2022.2.5,Win32,19.99680051,,,,,,,,,,,,,,,,,,,,,,,5,5,img/B05_05.jpg,GCNB,Press J if the face is GENDER-CONFORMING and K if the face is NONBINARY,Gender-conforming means that the face appears to be a typical example of its gender. Nonbinary means that the face does not conform to any particular gender norms.,JK,,,,,,,,,,,,,,,,,,,,,,,,,,,,,,,,2,0.5763,,,,,,,,,,,,,,0,57,57,49,1,,,,,,,,,,,,,space,0.3783,,,,,,,,,,,,,,,,,,,,,,,,,,,,,,,,,,,,,,,,,,,,,,,,,,,,,,,,,,,,,,,,,,,
,,,,814770,001,2023-09-28_13h03.44.788,fluency,2022.2.5,Win32,19.99680051,,,,,,,,,,,,,,,,,,,,,,,7,10,img/B10_07.jpg,GCNB,Press J if the face is GENDER-CONFORMING and K if the face is NONBINARY,Gender-conforming means that the face appears to be a typical example of its gender. Nonbinary means that the face does not conform to any particular gender norms.,JK,,,,,,,,,,,,,,,,,,,,,,,,,,,,,,,,,,,,,,,,,,,,,,1126.9366,0,58,58,106,1,109,0,0,0,0,1,98,,,,,,,,,,,,,,,,,,,,,,,,,,,,,,,,,,,,,,,,,,,,,,,,,,,,,,,,,,,,,,,,,,,,,,,,,,
,,,,814770,001,2023-09-28_13h03.44.788,fluency,2022.2.5,Win32,19.99680051,,,,,,,,,,,,,,,,,,,,,,,,,,,,,,,,,,,,,,,,,,,,,,,,,,,,,,,,,,,,,,,,,,,,,,,,,,,,,,,,,,0,0,0,0,1,,"[""k""]",[1.6312000000179978],7,"[""k""]",[1.6312000000179978],,,,,,,,,,,,,,,,,,,,,,,,,,,,,,,,,,,,,,,,,,,,,,,,,,,,,,,,,,,,,,,,,,,,,
,,,,814770,001,2023-09-28_13h03.44.788,fluency,2022.2.5,Win32,19.99680051,,,,,,,,,,,,,,,,,,,,,,,7,10,img/B10_07.jpg,GCNB,Press J if the face is GENDER-CONFORMING and K if the face is NONBINARY,Gender-conforming means that the face appears to be a typical example of its gender. Nonbinary means that the face does not conform to any particular gender norms.,JK,,,,,,,,,,,,,,,,,,,,,,,,,,,,,,,,2,0.2947,,,,,,,,,,,,,,0,58,58,106,1,,,,,,,,,,,,,space,0.3712,,,,,,,,,,,,,,,,,,,,,,,,,,,,,,,,,,,,,,,,,,,,,,,,,,,,,,,,,,,,,,,,,,,
,,,,814770,001,2023-09-28_13h03.44.788,fluency,2022.2.5,Win32,19.99680051,,,,,,,,,,,,,,,,,,,,,,,9,8,img/B08_09.jpg,GCNB,Press J if the face is GENDER-CONFORMING and K if the face is NONBINARY,Gender-conforming means that the face appears to be a typical example of its gender. Nonbinary means that the face does not conform to any particular gender norms.,JK,,,,,,,,,,,,,,,,,,,,,,,,,,,,,,,,,,,,,,,,,,,,,,1132.7795,0,59,59,86,1,109,0,0,0,0,1,98,,,,,,,,,,,,,,,,,,,,,,,,,,,,,,,,,,,,,,,,,,,,,,,,,,,,,,,,,,,,,,,,,,,,,,,,,,
,,,,814770,001,2023-09-28_13h03.44.788,fluency,2022.2.5,Win32,19.99680051,,,,,,,,,,,,,,,,,,,,,,,,,,,,,,,,,,,,,,,,,,,,,,,,,,,,,,,,,,,,,,,,,,,,,,,,,,,,,,,,,,0,0,0,0,1,,"[""j""]",[0.8661999999881118],7,"[""j""]",[0.8661999999881118],,,,,,,,,,,,,,,,,,,,,,,,,,,,,,,,,,,,,,,,,,,,,,,,,,,,,,,,,,,,,,,,,,,,,
,,,,814770,001,2023-09-28_13h03.44.788,fluency,2022.2.5,Win32,19.99680051,,,,,,,,,,,,,,,,,,,,,,,9,8,img/B08_09.jpg,GCNB,Press J if the face is GENDER-CONFORMING and K if the face is NONBINARY,Gender-conforming means that the face appears to be a typical example of its gender. Nonbinary means that the face does not conform to any particular gender norms.,JK,,,,,,,,,,,,,,,,,,,,,,,,,,,,,,,,2,0.4279,,,,,,,,,,,,,,0,59,59,86,1,,,,,,,,,,,,,space,3.2982,,,,,,,,,,,,,,,,,,,,,,,,,,,,,,,,,,,,,,,,,,,,,,,,,,,,,,,,,,,,,,,,,,,
,,,,814770,001,2023-09-28_13h03.44.788,fluency,2022.2.5,Win32,19.99680051,,,,,,,,,,,,,,,,,,,,,,,10,6,img/B06_10.jpg,GCNB,Press J if the face is GENDER-CONFORMING and K if the face is NONBINARY,Gender-conforming means that the face appears to be a typical example of its gender. Nonbinary means that the face does not conform to any particular gender norms.,JK,,,,,,,,,,,,,,,,,,,,,,,,,,,,,,,,,,,,,,,,,,,,,,1140.6327,0,60,60,65,1,109,0,0,0,0,1,98,,,,,,,,,,,,,,,,,,,,,,,,,,,,,,,,,,,,,,,,,,,,,,,,,,,,,,,,,,,,,,,,,,,,,,,,,,
,,,,814770,001,2023-09-28_13h03.44.788,fluency,2022.2.5,Win32,19.99680051,,,,,,,,,,,,,,,,,,,,,,,,,,,,,,,,,,,,,,,,,,,,,,,,,,,,,,,,,,,,,,,,,,,,,,,,,,,,,,,,,,0,0,0,0,1,,"[""j""]",[1.0247999999821786],7,"[""j""]",[1.0246999999881155],,,,,,,,,,,,,,,,,,,,,,,,,,,,,,,,,,,,,,,,,,,,,,,,,,,,,,,,,,,,,,,,,,,,,
,,,,814770,001,2023-09-28_13h03.44.788,fluency,2022.2.5,Win32,19.99680051,,,,,,,,,,,,,,,,,,,,,,,10,6,img/B06_10.jpg,GCNB,Press J if the face is GENDER-CONFORMING and K if the face is NONBINARY,Gender-conforming means that the face appears to be a typical example of its gender. Nonbinary means that the face does not conform to any particular gender norms.,JK,,,,,,,,,,,,,,,,,,,,,,,,,,,,,,,,3,0.3612,,,,,,,,,,,,,,0,60,60,65,1,,,,,,,,,,,,,space,0.2888,,,,,,,,,,,,,,,,,,,,,,,,,,,,,,,,,,,,,,,,,,,,,,,,,,,,,,,,,,,,,,,,,,,
,,,,814770,001,2023-09-28_13h03.44.788,fluency,2022.2.5,Win32,19.99680051,,,,,,,,,,,,,,,,,,,,,,,4,9,img/B09_04.jpg,GCNB,Press J if the face is GENDER-CONFORMING and K if the face is NONBINARY,Gender-conforming means that the face appears to be a typical example of its gender. Nonbinary means that the face does not conform to any particular gender norms.,JK,,,,,,,,,,,,,,,,,,,,,,,,,,,,,,,,,,,,,,,,,,,,,,1145.4473,0,61,61,92,1,109,0,0,0,0,1,98,,,,,,,,,,,,,,,,,,,,,,,,,,,,,,,,,,,,,,,,,,,,,,,,,,,,,,,,,,,,,,,,,,,,,,,,,,
,,,,814770,001,2023-09-28_13h03.44.788,fluency,2022.2.5,Win32,19.99680051,,,,,,,,,,,,,,,,,,,,,,,,,,,,,,,,,,,,,,,,,,,,,,,,,,,,,,,,,,,,,,,,,,,,,,,,,,,,,,,,,,0,0,0,0,1,,"[""k""]",[1.5694000000059987],7,"[""k""]",[1.5695000000000618],,,,,,,,,,,,,,,,,,,,,,,,,,,,,,,,,,,,,,,,,,,,,,,,,,,,,,,,,,,,,,,,,,,,,
,,,,814770,001,2023-09-28_13h03.44.788,fluency,2022.2.5,Win32,19.99680051,,,,,,,,,,,,,,,,,,,,,,,4,9,img/B09_04.jpg,GCNB,Press J if the face is GENDER-CONFORMING and K if the face is NONBINARY,Gender-conforming means that the face appears to be a typical example of its gender. Nonbinary means that the face does not conform to any particular gender norms.,JK,,,,,,,,,,,,,,,,,,,,,,,,,,,,,,,,5,0.44,,,,,,,,,,,,,,0,61,61,92,1,,,,,,,,,,,,,space,0.299,,,,,,,,,,,,,,,,,,,,,,,,,,,,,,,,,,,,,,,,,,,,,,,,,,,,,,,,,,,,,,,,,,,
,,,,814770,001,2023-09-28_13h03.44.788,fluency,2022.2.5,Win32,19.99680051,,,,,,,,,,,,,,,,,,,,,,,3,9,img/B09_03.jpg,GCNB,Press J if the face is GENDER-CONFORMING and K if the face is NONBINARY,Gender-conforming means that the face appears to be a typical example of its gender. Nonbinary means that the face does not conform to any particular gender norms.,JK,,,,,,,,,,,,,,,,,,,,,,,,,,,,,,,,,,,,,,,,,,,,,,1151.3784,0,62,62,91,1,109,0,0,0,0,1,98,,,,,,,,,,,,,,,,,,,,,,,,,,,,,,,,,,,,,,,,,,,,,,,,,,,,,,,,,,,,,,,,,,,,,,,,,,
,,,,814770,001,2023-09-28_13h03.44.788,fluency,2022.2.5,Win32,19.99680051,,,,,,,,,,,,,,,,,,,,,,,,,,,,,,,,,,,,,,,,,,,,,,,,,,,,,,,,,,,,,,,,,,,,,,,,,,,,,,,,,,0,0,0,0,1,,"[""k""]",[1.2347000000177104],7,"[""k""]",[1.2347000000177104],,,,,,,,,,,,,,,,,,,,,,,,,,,,,,,,,,,,,,,,,,,,,,,,,,,,,,,,,,,,,,,,,,,,,
,,,,814770,001,2023-09-28_13h03.44.788,fluency,2022.2.5,Win32,19.99680051,,,,,,,,,,,,,,,,,,,,,,,3,9,img/B09_03.jpg,GCNB,Press J if the face is GENDER-CONFORMING and K if the face is NONBINARY,Gender-conforming means that the face appears to be a typical example of its gender. Nonbinary means that the face does not conform to any particular gender norms.,JK,,,,,,,,,,,,,,,,,,,,,,,,,,,,,,,,4,0.8752,,,,,,,,,,,,,,0,62,62,91,1,,,,,,,,,,,,,space,0.3772,,,,,,,,,,,,,,,,,,,,,,,,,,,,,,,,,,,,,,,,,,,,,,,,,,,,,,,,,,,,,,,,,,,
,,,,814770,001,2023-09-28_13h03.44.788,fluency,2022.2.5,Win32,19.99680051,,,,,,,,,,,,,,,,,,,,,,,1,2,img/B02_01.jpg,GCNB,Press J if the face is GENDER-CONFORMING and K if the face is NONBINARY,Gender-conforming means that the face appears to be a typical example of its gender. Nonbinary means that the face does not conform to any particular gender norms.,JK,,,,,,,,,,,,,,,,,,,,,,,,,,,,,,,,,,,,,,,,,,,,,,1156.7484,0,63,63,12,1,109,0,0,0,0,1,98,,,,,,,,,,,,,,,,,,,,,,,,,,,,,,,,,,,,,,,,,,,,,,,,,,,,,,,,,,,,,,,,,,,,,,,,,,
,,,,814770,001,2023-09-28_13h03.44.788,fluency,2022.2.5,Win32,19.99680051,,,,,,,,,,,,,,,,,,,,,,,,,,,,,,,,,,,,,,,,,,,,,,,,,,,,,,,,,,,,,,,,,,,,,,,,,,,,,,,,,,0,0,0,0,1,,"[""k""]",[1.7525999999941178],7,"[""k""]",[1.752699999988181],,,,,,,,,,,,,,,,,,,,,,,,,,,,,,,,,,,,,,,,,,,,,,,,,,,,,,,,,,,,,,,,,,,,,
,,,,814770,001,2023-09-28_13h03.44.788,fluency,2022.2.5,Win32,19.99680051,,,,,,,,,,,,,,,,,,,,,,,1,2,img/B02_01.jpg,GCNB,Press J if the face is GENDER-CONFORMING and K if the face is NONBINARY,Gender-conforming means that the face appears to be a typical example of its gender. Nonbinary means that the face does not conform to any particular gender norms.,JK,,,,,,,,,,,,,,,,,,,,,,,,,,,,,,,,1,0.7213,,,,,,,,,,,,,,0,63,63,12,1,,,,,,,,,,,,,space,0.4451,,,,,,,,,,,,,,,,,,,,,,,,,,,,,,,,,,,,,,,,,,,,,,,,,,,,,,,,,,,,,,,,,,,
,,,,814770,001,2023-09-28_13h03.44.788,fluency,2022.2.5,Win32,19.99680051,,,,,,,,,,,,,,,,,,,,,,,4,4,img/B04_04.jpg,GCNB,Press J if the face is GENDER-CONFORMING and K if the face is NONBINARY,Gender-conforming means that the face appears to be a typical example of its gender. Nonbinary means that the face does not conform to any particular gender norms.,JK,,,,,,,,,,,,,,,,,,,,,,,,,,,,,,,,,,,,,,,,,,,,,,1163.1193,0,64,64,37,1,109,0,0,0,0,1,98,,,,,,,,,,,,,,,,,,,,,,,,,,,,,,,,,,,,,,,,,,,,,,,,,,,,,,,,,,,,,,,,,,,,,,,,,,
,,,,814770,001,2023-09-28_13h03.44.788,fluency,2022.2.5,Win32,19.99680051,,,,,,,,,,,,,,,,,,,,,,,,,,,,,,,,,,,,,,,,,,,,,,,,,,,,,,,,,,,,,,,,,,,,,,,,,,,,,,,,,,0,0,0,0,1,,"[""k""]",[1.9309000000059768],7,"[""k""]",[1.9308000000119137],,,,,,,,,,,,,,,,,,,,,,,,,,,,,,,,,,,,,,,,,,,,,,,,,,,,,,,,,,,,,,,,,,,,,
