idTextbox.text,welcomeDone.numClicks,welcomeDone.timesOn,welcomeDone.timesOff,participant,session,date,expName,psychopyVersion,OS,frameRate,consent_advance.keys,consent_advance.rt,consent_advance_2.keys,consent_advance_2.rt,consentClick.x,consentClick.y,consentClick.leftButton,consentClick.midButton,consentClick.rightButton,consentClick.time,consentClick.clicked_name,instr_advance_3.keys,instr_advance_3.rt,spec_instr_adv.keys,spec_instr_adv.rt,spec_instr_adv2.keys,spec_instr_adv2.rt,instrLoop.thisRepN,instrLoop.thisTrialN,instrLoop.thisN,instrLoop.thisIndex,instrLoop.ran,steps,fams,face_file,cond,instr,term,key_map,attnKeyResp1.keys,attnKeyResp1.rt,q1.thisRepN,q1.thisTrialN,q1.thisN,q1.thisIndex,q1.ran,attnKeyResp2.keys,attnKeyResp2.rt,q2.thisRepN,q2.thisTrialN,q2.thisN,q2.thisIndex,q2.ran,attnKeyResp3.keys,attnKeyResp3.rt,q3.thisRepN,q3.thisTrialN,q3.thisN,q3.thisIndex,q3.ran,practiceStart.keys,practiceStart.rt,practiceResp.keys,practiceResp.rt,timesRedone,practiceRepeat.thisRepN,practiceRepeat.thisTrialN,practiceRepeat.thisN,practiceRepeat.thisIndex,practiceRepeat.ran,attrRating.keys,attrRating.rt,practiceTrial.thisRepN,practiceTrial.thisTrialN,practiceTrial.thisN,practiceTrial.thisIndex,practiceTrial.ran,key_resp_3.keys,key_resp_3.rt,attnChecker.thisRepN,attnChecker.thisTrialN,attnChecker.thisN,attnChecker.thisIndex,attnChecker.ran,faceOnsetTime,trials.thisRepN,trials.thisTrialN,trials.thisN,trials.thisIndex,trials.ran,trials.order,repeat_loop.thisRepN,repeat_loop.thisTrialN,repeat_loop.thisN,repeat_loop.thisIndex,repeat_loop.ran,repeat_loop.order,catResp.keys,catResp.rt,globalTimesRedone,catAllKeys.keys,catAllKeys.rt,contResp.keys,contResp.rt,redo_keypress.keys,redo_keypress.rt,redo_feedback_loop.thisRepN,redo_feedback_loop.thisTrialN,redo_feedback_loop.thisN,redo_feedback_loop.thisIndex,redo_feedback_loop.ran,contResp_2.keys,contResp_2.rt,respQ1.response,respQ1.rt,respQ2.response,respQ2.rt,respQ3.response,respQ3.rt,respQ4.response,respQ4.rt,surveyContinue1.numClicks,surveyContinue1.timesOn,surveyContinue1.timesOff,respQ5.response,respQ5.rt,respQ6.response,respQ6.rt,respQ7.response,respQ7.rt,respQ8.response,respQ8.rt,surveyContinue2.numClicks,surveyContinue2.timesOn,surveyContinue2.timesOff,respQ9.response,respQ9.rt,respQ10.response,respQ10.rt,respQ11.response,respQ11.rt,respQ12.response,respQ12.rt,surveyContinue3.numClicks,surveyContinue3.timesOn,surveyContinue3.timesOff,respQ13.response,respQ13.rt,respQ14.response,respQ14.rt,respQ15.response,respQ15.rt,surveyContinue4.numClicks,surveyContinue4.timesOn,surveyContinue4.timesOff,respAge.response,respAge.rt,genderResp1.response,genderResp1.rt,genderResp2.text,demogexitClick.numClicks,demogexitClick.timesOn,demogexitClick.timesOff,textbox.text,openAnswerClick.numClicks,openAnswerClick.timesOn,openAnswerClick.timesOff,debriefEnd.keys,debriefEnd.rt,exitKey.keys,exitKey.rt
6131df33c2388c23af8f09b1,1,[4.628599999999622],[4.628599999999622],476264,001,2023-10-24_21h31.16.689,fluency,2022.2.5,Win32,60.77549532,,,,,,,,,,,,,,,,,,,,,,,,,,,,,,,,,,,,,,,,,,,,,,,,,,,,,,,,,,,,,,,,,,,,,,,,,,,,,,,,,,,,,,,,,,,,,,,,,,,,,,,,,,,,,,,,,,,,,,,,,,,,,,,,,,,,,,,,,,,,,,,,,,,,,,,,,,,,,,,,,
,,,,476264,001,2023-10-24_21h31.16.689,fluency,2022.2.5,Win32,60.77549532,space,5.7795,,,,,,,,,,,,,,,,,,,,,,,,,,,,,,,,,,,,,,,,,,,,,,,,,,,,,,,,,,,,,,,,,,,,,,,,,,,,,,,,,,,,,,,,,,,,,,,,,,,,,,,,,,,,,,,,,,,,,,,,,,,,,,,,,,,,,,,,,,,,,,,,,,,,,,,,,,,,,,,
,,,,476264,001,2023-10-24_21h31.16.689,fluency,2022.2.5,Win32,60.77549532,,,space,10.9676,,,,,,,,,,,,,,,,,,,,,,,,,,,,,,,,,,,,,,,,,,,,,,,,,,,,,,,,,,,,,,,,,,,,,,,,,,,,,,,,,,,,,,,,,,,,,,,,,,,,,,,,,,,,,,,,,,,,,,,,,,,,,,,,,,,,,,,,,,,,,,,,,,,,,,,,,,,,,
,,,,476264,001,2023-10-24_21h31.16.689,fluency,2022.2.5,Win32,60.77549532,,,,,0.307407379,-0.246296282,1,0,0,9.8985,iAgree,,,,,,,,,,,,,,,,,,,,,,,,,,,,,,,,,,,,,,,,,,,,,,,,,,,,,,,,,,,,,,,,,,,,,,,,,,,,,,,,,,,,,,,,,,,,,,,,,,,,,,,,,,,,,,,,,,,,,,,,,,,,,,,,,,,,,,,,,,,,,,,,,,,,,,
,,,,476264,001,2023-10-24_21h31.16.689,fluency,2022.2.5,Win32,60.77549532,,,,,,,,,,,,space,15.6022,,,,,,,,,,,,,,,,,,,,,,,,,,,,,,,,,,,,,,,,,,,,,,,,,,,,,,,,,,,,,,,,,,,,,,,,,,,,,,,,,,,,,,,,,,,,,,,,,,,,,,,,,,,,,,,,,,,,,,,,,,,,,,,,,,,,,,,,,,,,,,,,,,,,
,,,,476264,001,2023-10-24_21h31.16.689,fluency,2022.2.5,Win32,60.77549532,,,,,,,,,,,,,,space,65.8017,space,6.6452,0,0,0,14,1,3,2,img/B02_03.jpg,CONTROL,Press J as soon as you see a face, ,JK,,,,,,,,,,,,,,,,,,,,,,,,,,,,,,,,,,,,,,,,,,,,,,,,,,,,,,,,,,,,,,,,,,,,,,,,,,,,,,,,,,,,,,,,,,,,,,,,,,,,,,,,,,,,,,,,,,,,,,,,,,,,,,,,,,,,
,,,,476264,001,2023-10-24_21h31.16.689,fluency,2022.2.5,Win32,60.77549532,,,,,,,,,,,,,,,,,,,,,,,,,,,,,,c,5.2952,0,0,0,0,1,,,,,,,,,,,,,,,,,,,,,,,,,,,,,,,,,,,,,,,,,,,,,,,,,,,,,,,,,,,,,,,,,,,,,,,,,,,,,,,,,,,,,,,,,,,,,,,,,,,,,,,,,,,,,,,,,,,,,,,,,,,,,
,,,,476264,001,2023-10-24_21h31.16.689,fluency,2022.2.5,Win32,60.77549532,,,,,,,,,,,,,,,,,,,,,,,,,,,,,,,,,,,,,a,3.7819,0,0,0,0,1,,,,,,,,,,,,,,,,,,,,,,,,,,,,,,,,,,,,,,,,,,,,,,,,,,,,,,,,,,,,,,,,,,,,,,,,,,,,,,,,,,,,,,,,,,,,,,,,,,,,,,,,,,,,,,,,,,,,,,
,,,,476264,001,2023-10-24_21h31.16.689,fluency,2022.2.5,Win32,60.77549532,,,,,,,,,,,,,,,,,,,,,,,,,,,,,,,,,,,,,,,,,,,,c,4.0846,0,0,0,0,1,,,,,,,,,,,,,,,,,,,,,,,,,,,,,,,,,,,,,,,,,,,,,,,,,,,,,,,,,,,,,,,,,,,,,,,,,,,,,,,,,,,,,,,,,,,,,,,,,,,,,,,,,,,,,,,
,,,,476264,001,2023-10-24_21h31.16.689,fluency,2022.2.5,Win32,60.77549532,,,,,,,,,,,,,,,,,,,,,,,,,,,,,,,,,,,,,,,,,,,,,,,,,,,space,1.6344,j,0.4056,0,0,0,0,0,1,,,,,,,,,,,,,,,,,,,,,,,,,,,,,,,,,,,,,,,,,,,,,,,,,,,,,,,,,,,,,,,,,,,,,,,,,,,,,,,,,,,,,,,,,,,,,,,,,,,,,
,,,,476264,001,2023-10-24_21h31.16.689,fluency,2022.2.5,Win32,60.77549532,,,,,,,,,,,,,,,,,,,,,,,,,,,,,,,,,,,,,,,,,,,,,,,,,,,,,,,,,,,,,4,10.945,0,0,0,0,1,,,,,,,,,,,,,,,,,,,,,,,,,,,,,,,,,,,,,,,,,,,,,,,,,,,,,,,,,,,,,,,,,,,,,,,,,,,,,,,,,,,,,,,,,,,,,,
,,,,476264,001,2023-10-24_21h31.16.689,fluency,2022.2.5,Win32,60.77549532,,,,,,,,,,,,,,,,,,,,,,,,,,,,,,,,,,,,,,,,,,,,,,,,,,,,,,,,,,,,,,,,,,,,space,2.5243,0,0,0,0,1,,,,,,,,,,,,,,,,,,,,,,,,,,,,,,,,,,,,,,,,,,,,,,,,,,,,,,,,,,,,,,,,,,,,,,,,,,,,,,,,,,,,,,,
,,,,476264,001,2023-10-24_21h31.16.689,fluency,2022.2.5,Win32,60.77549532,,,,,,,,,,,,,,,,,,,,,,,2,5,img/B05_02.jpg,CONTROL,Press J as soon as you see a face, ,JK,,,,,,,,,,,,,,,,,,,,,,,,,,,,,,,,,,,,,,,,,,,,,,173.1173,0,0,0,46,1,109,0,0,0,0,1,98,,,,,,,,,,,,,,,,,,,,,,,,,,,,,,,,,,,,,,,,,,,,,,,,,,,,,,,,,,,,,,,,,,,,,,,,,,
,,,,476264,001,2023-10-24_21h31.16.689,fluency,2022.2.5,Win32,60.77549532,,,,,,,,,,,,,,,,,,,,,,,,,,,,,,,,,,,,,,,,,,,,,,,,,,,,,,,,,,,,,,,,,,,,,,,,,,,,,,,,,,0,0,0,0,1,,"[""j""]",[1.057800000000782],0,"[""j""]",[1.057800000000782],,,,,,,,,,,,,,,,,,,,,,,,,,,,,,,,,,,,,,,,,,,,,,,,,,,,,,,,,,,,,,,,,,,,,
,,,,476264,001,2023-10-24_21h31.16.689,fluency,2022.2.5,Win32,60.77549532,,,,,,,,,,,,,,,,,,,,,,,2,5,img/B05_02.jpg,CONTROL,Press J as soon as you see a face, ,JK,,,,,,,,,,,,,,,,,,,,,,,,,,,,,,,,2,3.4185,,,,,,,,,,,,,,0,0,0,46,1,,,,,,,,,,,,,space,8.4848,,,,,,,,,,,,,,,,,,,,,,,,,,,,,,,,,,,,,,,,,,,,,,,,,,,,,,,,,,,,,,,,,,,
,,,,476264,001,2023-10-24_21h31.16.689,fluency,2022.2.5,Win32,60.77549532,,,,,,,,,,,,,,,,,,,,,,,8,7,img/B07_08.jpg,CONTROL,Press J as soon as you see a face, ,JK,,,,,,,,,,,,,,,,,,,,,,,,,,,,,,,,,,,,,,,,,,,,,,189.1326,0,1,1,74,1,109,0,0,0,0,1,98,,,,,,,,,,,,,,,,,,,,,,,,,,,,,,,,,,,,,,,,,,,,,,,,,,,,,,,,,,,,,,,,,,,,,,,,,,
,,,,476264,001,2023-10-24_21h31.16.689,fluency,2022.2.5,Win32,60.77549532,,,,,,,,,,,,,,,,,,,,,,,,,,,,,,,,,,,,,,,,,,,,,,,,,,,,,,,,,,,,,,,,,,,,,,,,,,,,,,,,,,0,0,0,0,1,,"[""j""]",[0.5032000000011294],0,"[""j""]",[0.5032000000011294],,,,,,,,,,,,,,,,,,,,,,,,,,,,,,,,,,,,,,,,,,,,,,,,,,,,,,,,,,,,,,,,,,,,,
,,,,476264,001,2023-10-24_21h31.16.689,fluency,2022.2.5,Win32,60.77549532,,,,,,,,,,,,,,,,,,,,,,,8,7,img/B07_08.jpg,CONTROL,Press J as soon as you see a face, ,JK,,,,,,,,,,,,,,,,,,,,,,,,,,,,,,,,3,3.3092,,,,,,,,,,,,,,0,1,1,74,1,,,,,,,,,,,,,space,4.5347,,,,,,,,,,,,,,,,,,,,,,,,,,,,,,,,,,,,,,,,,,,,,,,,,,,,,,,,,,,,,,,,,,,
,,,,476264,001,2023-10-24_21h31.16.689,fluency,2022.2.5,Win32,60.77549532,,,,,,,,,,,,,,,,,,,,,,,1,3,img/B03_01.jpg,CONTROL,Press J as soon as you see a face, ,JK,,,,,,,,,,,,,,,,,,,,,,,,,,,,,,,,,,,,,,,,,,,,,,202.0481,0,2,2,23,1,109,0,0,0,0,1,98,,,,,,,,,,,,,,,,,,,,,,,,,,,,,,,,,,,,,,,,,,,,,,,,,,,,,,,,,,,,,,,,,,,,,,,,,,
,,,,476264,001,2023-10-24_21h31.16.689,fluency,2022.2.5,Win32,60.77549532,,,,,,,,,,,,,,,,,,,,,,,,,,,,,,,,,,,,,,,,,,,,,,,,,,,,,,,,,,,,,,,,,,,,,,,,,,,,,,,,,,0,0,0,0,1,,"[""j""]",[1.156000000000006],0,"[""j""]",[1.156000000000006],,,,,,,,,,,,,,,,,,,,,,,,,,,,,,,,,,,,,,,,,,,,,,,,,,,,,,,,,,,,,,,,,,,,,
,,,,476264,001,2023-10-24_21h31.16.689,fluency,2022.2.5,Win32,60.77549532,,,,,,,,,,,,,,,,,,,,,,,1,3,img/B03_01.jpg,CONTROL,Press J as soon as you see a face, ,JK,,,,,,,,,,,,,,,,,,,,,,,,,,,,,,,,2,1.5373,,,,,,,,,,,,,,0,2,2,23,1,,,,,,,,,,,,,space,6.1922,,,,,,,,,,,,,,,,,,,,,,,,,,,,,,,,,,,,,,,,,,,,,,,,,,,,,,,,,,,,,,,,,,,
,,,,476264,001,2023-10-24_21h31.16.689,fluency,2022.2.5,Win32,60.77549532,,,,,,,,,,,,,,,,,,,,,,,1,6,img/B06_01.jpg,CONTROL,Press J as soon as you see a face, ,JK,,,,,,,,,,,,,,,,,,,,,,,,,,,,,,,,,,,,,,,,,,,,,,213.8304,0,3,3,56,1,109,0,0,0,0,1,98,,,,,,,,,,,,,,,,,,,,,,,,,,,,,,,,,,,,,,,,,,,,,,,,,,,,,,,,,,,,,,,,,,,,,,,,,,
,,,,476264,001,2023-10-24_21h31.16.689,fluency,2022.2.5,Win32,60.77549532,,,,,,,,,,,,,,,,,,,,,,,,,,,,,,,,,,,,,,,,,,,,,,,,,,,,,,,,,,,,,,,,,,,,,,,,,,,,,,,,,,0,0,0,0,1,,"[""j""]",[1.3215999999995915],0,"[""j""]",[1.3214999999999577],,,,,,,,,,,,,,,,,,,,,,,,,,,,,,,,,,,,,,,,,,,,,,,,,,,,,,,,,,,,,,,,,,,,,
,,,,476264,001,2023-10-24_21h31.16.689,fluency,2022.2.5,Win32,60.77549532,,,,,,,,,,,,,,,,,,,,,,,1,6,img/B06_01.jpg,CONTROL,Press J as soon as you see a face, ,JK,,,,,,,,,,,,,,,,,,,,,,,,,,,,,,,,3,1.5374,,,,,,,,,,,,,,0,3,3,56,1,,,,,,,,,,,,,space,2.0508,,,,,,,,,,,,,,,,,,,,,,,,,,,,,,,,,,,,,,,,,,,,,,,,,,,,,,,,,,,,,,,,,,,
,,,,476264,001,2023-10-24_21h31.16.689,fluency,2022.2.5,Win32,60.77549532,,,,,,,,,,,,,,,,,,,,,,,6,7,img/B07_06.jpg,CONTROL,Press J as soon as you see a face, ,JK,,,,,,,,,,,,,,,,,,,,,,,,,,,,,,,,,,,,,,,,,,,,,,221.4966,0,4,4,72,1,109,0,0,0,0,1,98,,,,,,,,,,,,,,,,,,,,,,,,,,,,,,,,,,,,,,,,,,,,,,,,,,,,,,,,,,,,,,,,,,,,,,,,,,
,,,,476264,001,2023-10-24_21h31.16.689,fluency,2022.2.5,Win32,60.77549532,,,,,,,,,,,,,,,,,,,,,,,,,,,,,,,,,,,,,,,,,,,,,,,,,,,,,,,,,,,,,,,,,,,,,,,,,,,,,,,,,,0,0,0,0,1,,"[""j""]",[0.6694000000003939],0,"[""j"",""space""]","[0.6695000000000277,2.6596999999992477]",,,,,,,,,,,,,,,,,,,,,,,,,,,,,,,,,,,,,,,,,,,,,,,,,,,,,,,,,,,,,,,,,,,,,
,,,,476264,001,2023-10-24_21h31.16.689,fluency,2022.2.5,Win32,60.77549532,,,,,,,,,,,,,,,,,,,,,,,6,7,img/B07_06.jpg,CONTROL,Press J as soon as you see a face, ,JK,,,,,,,,,,,,,,,,,,,,,,,,,,,,,,,,2,0.7143,,,,,,,,,,,,,,0,4,4,72,1,,,,,,,,,,,,,space,1.6404,,,,,,,,,,,,,,,,,,,,,,,,,,,,,,,,,,,,,,,,,,,,,,,,,,,,,,,,,,,,,,,,,,,
,,,,476264,001,2023-10-24_21h31.16.689,fluency,2022.2.5,Win32,60.77549532,,,,,,,,,,,,,,,,,,,,,,,0,1,img/B01_00.jpg,CONTROL,Press J as soon as you see a face, ,JK,,,,,,,,,,,,,,,,,,,,,,,,,,,,,,,,,,,,,,,,,,,,,,228.8795,0,5,5,0,1,109,0,0,0,0,1,98,,,,,,,,,,,,,,,,,,,,,,,,,,,,,,,,,,,,,,,,,,,,,,,,,,,,,,,,,,,,,,,,,,,,,,,,,,
,,,,476264,001,2023-10-24_21h31.16.689,fluency,2022.2.5,Win32,60.77549532,,,,,,,,,,,,,,,,,,,,,,,,,,,,,,,,,,,,,,,,,,,,,,,,,,,,,,,,,,,,,,,,,,,,,,,,,,,,,,,,,,0,0,0,0,1,,"[""j""]",[0.866800000000751],0,"[""j""]",[0.866800000000751],,,,,,,,,,,,,,,,,,,,,,,,,,,,,,,,,,,,,,,,,,,,,,,,,,,,,,,,,,,,,,,,,,,,,
,,,,476264,001,2023-10-24_21h31.16.689,fluency,2022.2.5,Win32,60.77549532,,,,,,,,,,,,,,,,,,,,,,,0,1,img/B01_00.jpg,CONTROL,Press J as soon as you see a face, ,JK,,,,,,,,,,,,,,,,,,,,,,,,,,,,,,,,3,1.7584,,,,,,,,,,,,,,0,5,5,0,1,,,,,,,,,,,,,space,1.283,,,,,,,,,,,,,,,,,,,,,,,,,,,,,,,,,,,,,,,,,,,,,,,,,,,,,,,,,,,,,,,,,,,
,,,,476264,001,2023-10-24_21h31.16.689,fluency,2022.2.5,Win32,60.77549532,,,,,,,,,,,,,,,,,,,,,,,0,9,img/B09_00.jpg,CONTROL,Press J as soon as you see a face, ,JK,,,,,,,,,,,,,,,,,,,,,,,,,,,,,,,,,,,,,,,,,,,,,,237.0122,0,6,6,88,1,109,0,0,0,0,1,98,,,,,,,,,,,,,,,,,,,,,,,,,,,,,,,,,,,,,,,,,,,,,,,,,,,,,,,,,,,,,,,,,,,,,,,,,,
,,,,476264,001,2023-10-24_21h31.16.689,fluency,2022.2.5,Win32,60.77549532,,,,,,,,,,,,,,,,,,,,,,,,,,,,,,,,,,,,,,,,,,,,,,,,,,,,,,,,,,,,,,,,,,,,,,,,,,,,,,,,,,0,0,0,0,1,,"[""j""]",[0.38459999999963657],0,"[""j"",""3"",""space""]","[0.38459999999963657,1.6351999999992586,2.036099999999635]",,,,,,,,,,,,,,,,,,,,,,,,,,,,,,,,,,,,,,,,,,,,,,,,,,,,,,,,,,,,,,,,,,,,,
,,,,476264,001,2023-10-24_21h31.16.689,fluency,2022.2.5,Win32,60.77549532,,,,,,,,,,,,,,,,,,,,,,,0,9,img/B09_00.jpg,CONTROL,Press J as soon as you see a face, ,JK,,,,,,,,,,,,,,,,,,,,,,,,,,,,,,,,3,1.0708,,,,,,,,,,,,,,0,6,6,88,1,,,,,,,,,,,,,space,5.391,,,,,,,,,,,,,,,,,,,,,,,,,,,,,,,,,,,,,,,,,,,,,,,,,,,,,,,,,,,,,,,,,,,
,,,,476264,001,2023-10-24_21h31.16.689,fluency,2022.2.5,Win32,60.77549532,,,,,,,,,,,,,,,,,,,,,,,7,3,img/B03_07.jpg,CONTROL,Press J as soon as you see a face, ,JK,,,,,,,,,,,,,,,,,,,,,,,,,,,,,,,,,,,,,,,,,,,,,,248.5447,0,7,7,29,1,109,0,0,0,0,1,98,,,,,,,,,,,,,,,,,,,,,,,,,,,,,,,,,,,,,,,,,,,,,,,,,,,,,,,,,,,,,,,,,,,,,,,,,,
,,,,476264,001,2023-10-24_21h31.16.689,fluency,2022.2.5,Win32,60.77549532,,,,,,,,,,,,,,,,,,,,,,,,,,,,,,,,,,,,,,,,,,,,,,,,,,,,,,,,,,,,,,,,,,,,,,,,,,,,,,,,,,0,0,0,0,1,,"[""j""]",[0.25290000000035207],0,"[""j""]",[0.25290000000035207],,,,,,,,,,,,,,,,,,,,,,,,,,,,,,,,,,,,,,,,,,,,,,,,,,,,,,,,,,,,,,,,,,,,,
,,,,476264,001,2023-10-24_21h31.16.689,fluency,2022.2.5,Win32,60.77549532,,,,,,,,,,,,,,,,,,,,,,,7,3,img/B03_07.jpg,CONTROL,Press J as soon as you see a face, ,JK,,,,,,,,,,,,,,,,,,,,,,,,,,,,,,,,2,1.4996,,,,,,,,,,,,,,0,7,7,29,1,,,,,,,,,,,,,space,1.2841,,,,,,,,,,,,,,,,,,,,,,,,,,,,,,,,,,,,,,,,,,,,,,,,,,,,,,,,,,,,,,,,,,,
,,,,476264,001,2023-10-24_21h31.16.689,fluency,2022.2.5,Win32,60.77549532,,,,,,,,,,,,,,,,,,,,,,,1,2,img/B02_01.jpg,CONTROL,Press J as soon as you see a face, ,JK,,,,,,,,,,,,,,,,,,,,,,,,,,,,,,,,,,,,,,,,,,,,,,255.3954,0,8,8,12,1,109,0,0,0,0,1,98,,,,,,,,,,,,,,,,,,,,,,,,,,,,,,,,,,,,,,,,,,,,,,,,,,,,,,,,,,,,,,,,,,,,,,,,,,
,,,,476264,001,2023-10-24_21h31.16.689,fluency,2022.2.5,Win32,60.77549532,,,,,,,,,,,,,,,,,,,,,,,,,,,,,,,,,,,,,,,,,,,,,,,,,,,,,,,,,,,,,,,,,,,,,,,,,,,,,,,,,,0,0,0,0,1,,"[""j""]",[0.5855999999996584],0,"[""j"",""3""]","[0.5855000000000246,1.0726999999992586]",,,,,,,,,,,,,,,,,,,,,,,,,,,,,,,,,,,,,,,,,,,,,,,,,,,,,,,,,,,,,,,,,,,,,
,,,,476264,001,2023-10-24_21h31.16.689,fluency,2022.2.5,Win32,60.77549532,,,,,,,,,,,,,,,,,,,,,,,1,2,img/B02_01.jpg,CONTROL,Press J as soon as you see a face, ,JK,,,,,,,,,,,,,,,,,,,,,,,,,,,,,,,,3,0.7964,,,,,,,,,,,,,,0,8,8,12,1,,,,,,,,,,,,,space,0.9011,,,,,,,,,,,,,,,,,,,,,,,,,,,,,,,,,,,,,,,,,,,,,,,,,,,,,,,,,,,,,,,,,,,
,,,,476264,001,2023-10-24_21h31.16.689,fluency,2022.2.5,Win32,60.77549532,,,,,,,,,,,,,,,,,,,,,,,5,4,img/B04_05.jpg,CONTROL,Press J as soon as you see a face, ,JK,,,,,,,,,,,,,,,,,,,,,,,,,,,,,,,,,,,,,,,,,,,,,,262.1279,0,9,9,38,1,109,0,0,0,0,1,98,,,,,,,,,,,,,,,,,,,,,,,,,,,,,,,,,,,,,,,,,,,,,,,,,,,,,,,,,,,,,,,,,,,,,,,,,,
,,,,476264,001,2023-10-24_21h31.16.689,fluency,2022.2.5,Win32,60.77549532,,,,,,,,,,,,,,,,,,,,,,,,,,,,,,,,,,,,,,,,,,,,,,,,,,,,,,,,,,,,,,,,,,,,,,,,,,,,,,,,,,0,0,0,0,1,,"[""j""]",[0.7543999999984976],0,"[""j"",""4"",""space""]","[0.7542999999988638,1.1469999999999914,1.5296999999992522]",,,,,,,,,,,,,,,,,,,,,,,,,,,,,,,,,,,,,,,,,,,,,,,,,,,,,,,,,,,,,,,,,,,,,
,,,,476264,001,2023-10-24_21h31.16.689,fluency,2022.2.5,Win32,60.77549532,,,,,,,,,,,,,,,,,,,,,,,5,4,img/B04_05.jpg,CONTROL,Press J as soon as you see a face, ,JK,,,,,,,,,,,,,,,,,,,,,,,,,,,,,,,,2,3.3356,,,,,,,,,,,,,,0,9,9,38,1,,,,,,,,,,,,,space,0.5834,,,,,,,,,,,,,,,,,,,,,,,,,,,,,,,,,,,,,,,,,,,,,,,,,,,,,,,,,,,,,,,,,,,
,,,,476264,001,2023-10-24_21h31.16.689,fluency,2022.2.5,Win32,60.77549532,,,,,,,,,,,,,,,,,,,,,,,2,9,img/B09_02.jpg,CONTROL,Press J as soon as you see a face, ,JK,,,,,,,,,,,,,,,,,,,,,,,,,,,,,,,,,,,,,,,,,,,,,,270.1265,0,10,10,90,1,109,0,0,0,0,1,98,,,,,,,,,,,,,,,,,,,,,,,,,,,,,,,,,,,,,,,,,,,,,,,,,,,,,,,,,,,,,,,,,,,,,,,,,,
,,,,476264,001,2023-10-24_21h31.16.689,fluency,2022.2.5,Win32,60.77549532,,,,,,,,,,,,,,,,,,,,,,,,,,,,,,,,,,,,,,,,,,,,,,,,,,,,,,,,,,,,,,,,,,,,,,,,,,,,,,,,,,0,0,0,0,1,,"[""j""]",[0.6421999999992636],0,"[""j""]",[0.6422999999988974],,,,,,,,,,,,,,,,,,,,,,,,,,,,,,,,,,,,,,,,,,,,,,,,,,,,,,,,,,,,,,,,,,,,,
,,,,476264,001,2023-10-24_21h31.16.689,fluency,2022.2.5,Win32,60.77549532,,,,,,,,,,,,,,,,,,,,,,,2,9,img/B09_02.jpg,CONTROL,Press J as soon as you see a face, ,JK,,,,,,,,,,,,,,,,,,,,,,,,,,,,,,,,2,1.1009,,,,,,,,,,,,,,0,10,10,90,1,,,,,,,,,,,,,space,4.502,,,,,,,,,,,,,,,,,,,,,,,,,,,,,,,,,,,,,,,,,,,,,,,,,,,,,,,,,,,,,,,,,,,
,,,,476264,001,2023-10-24_21h31.16.689,fluency,2022.2.5,Win32,60.77549532,,,,,,,,,,,,,,,,,,,,,,,3,3,img/B03_03.jpg,CONTROL,Press J as soon as you see a face, ,JK,,,,,,,,,,,,,,,,,,,,,,,,,,,,,,,,,,,,,,,,,,,,,,279.8097,0,11,11,25,1,109,0,0,0,0,1,98,,,,,,,,,,,,,,,,,,,,,,,,,,,,,,,,,,,,,,,,,,,,,,,,,,,,,,,,,,,,,,,,,,,,,,,,,,
,,,,476264,001,2023-10-24_21h31.16.689,fluency,2022.2.5,Win32,60.77549532,,,,,,,,,,,,,,,,,,,,,,,,,,,,,,,,,,,,,,,,,,,,,,,,,,,,,,,,,,,,,,,,,,,,,,,,,,,,,,,,,,0,0,0,0,1,,"[""j""]",[0.7669999999999959],0,"[""j""]",[0.7670999999996297],,,,,,,,,,,,,,,,,,,,,,,,,,,,,,,,,,,,,,,,,,,,,,,,,,,,,,,,,,,,,,,,,,,,,
,,,,476264,001,2023-10-24_21h31.16.689,fluency,2022.2.5,Win32,60.77549532,,,,,,,,,,,,,,,,,,,,,,,3,3,img/B03_03.jpg,CONTROL,Press J as soon as you see a face, ,JK,,,,,,,,,,,,,,,,,,,,,,,,,,,,,,,,2,0.4013,,,,,,,,,,,,,,0,11,11,25,1,,,,,,,,,,,,,space,0.8572,,,,,,,,,,,,,,,,,,,,,,,,,,,,,,,,,,,,,,,,,,,,,,,,,,,,,,,,,,,,,,,,,,,
,,,,476264,001,2023-10-24_21h31.16.689,fluency,2022.2.5,Win32,60.77549532,,,,,,,,,,,,,,,,,,,,,,,8,2,img/B02_08.jpg,CONTROL,Press J as soon as you see a face, ,JK,,,,,,,,,,,,,,,,,,,,,,,,,,,,,,,,,,,,,,,,,,,,,,286.126,0,12,12,19,1,109,0,0,0,0,1,98,,,,,,,,,,,,,,,,,,,,,,,,,,,,,,,,,,,,,,,,,,,,,,,,,,,,,,,,,,,,,,,,,,,,,,,,,,
,,,,476264,001,2023-10-24_21h31.16.689,fluency,2022.2.5,Win32,60.77549532,,,,,,,,,,,,,,,,,,,,,,,,,,,,,,,,,,,,,,,,,,,,,,,,,,,,,,,,,,,,,,,,,,,,,,,,,,,,,,,,,,0,0,0,0,1,,"[""j""]",[0.6411000000015292],0,"[""j""]",[0.6411000000015292],,,,,,,,,,,,,,,,,,,,,,,,,,,,,,,,,,,,,,,,,,,,,,,,,,,,,,,,,,,,,,,,,,,,,
,,,,476264,001,2023-10-24_21h31.16.689,fluency,2022.2.5,Win32,60.77549532,,,,,,,,,,,,,,,,,,,,,,,8,2,img/B02_08.jpg,CONTROL,Press J as soon as you see a face, ,JK,,,,,,,,,,,,,,,,,,,,,,,,,,,,,,,,2,0.6895,,,,,,,,,,,,,,0,12,12,19,1,,,,,,,,,,,,,space,0.688,,,,,,,,,,,,,,,,,,,,,,,,,,,,,,,,,,,,,,,,,,,,,,,,,,,,,,,,,,,,,,,,,,,
,,,,476264,001,2023-10-24_21h31.16.689,fluency,2022.2.5,Win32,60.77549532,,,,,,,,,,,,,,,,,,,,,,,5,1,img/B01_05.jpg,CONTROL,Press J as soon as you see a face, ,JK,,,,,,,,,,,,,,,,,,,,,,,,,,,,,,,,,,,,,,,,,,,,,,292.5755,0,13,13,5,1,109,0,0,0,0,1,98,,,,,,,,,,,,,,,,,,,,,,,,,,,,,,,,,,,,,,,,,,,,,,,,,,,,,,,,,,,,,,,,,,,,,,,,,,
,,,,476264,001,2023-10-24_21h31.16.689,fluency,2022.2.5,Win32,60.77549532,,,,,,,,,,,,,,,,,,,,,,,,,,,,,,,,,,,,,,,,,,,,,,,,,,,,,,,,,,,,,,,,,,,,,,,,,,,,,,,,,,0,0,0,0,1,,"[""j""]",[1.0063000000007492],0,"[""j"",""2""]","[1.0063000000007492,2.3028000000007296]",,,,,,,,,,,,,,,,,,,,,,,,,,,,,,,,,,,,,,,,,,,,,,,,,,,,,,,,,,,,,,,,,,,,,
,,,,476264,001,2023-10-24_21h31.16.689,fluency,2022.2.5,Win32,60.77549532,,,,,,,,,,,,,,,,,,,,,,,5,1,img/B01_05.jpg,CONTROL,Press J as soon as you see a face, ,JK,,,,,,,,,,,,,,,,,,,,,,,,,,,,,,,,2,1.898,,,,,,,,,,,,,,0,13,13,5,1,,,,,,,,,,,,,space,1.2372,,,,,,,,,,,,,,,,,,,,,,,,,,,,,,,,,,,,,,,,,,,,,,,,,,,,,,,,,,,,,,,,,,,
,,,,476264,001,2023-10-24_21h31.16.689,fluency,2022.2.5,Win32,60.77549532,,,,,,,,,,,,,,,,,,,,,,,1,1,img/B01_01.jpg,CONTROL,Press J as soon as you see a face, ,JK,,,,,,,,,,,,,,,,,,,,,,,,,,,,,,,,,,,,,,,,,,,,,,299.7751,0,14,14,1,1,109,0,0,0,0,1,98,,,,,,,,,,,,,,,,,,,,,,,,,,,,,,,,,,,,,,,,,,,,,,,,,,,,,,,,,,,,,,,,,,,,,,,,,,
,,,,476264,001,2023-10-24_21h31.16.689,fluency,2022.2.5,Win32,60.77549532,,,,,,,,,,,,,,,,,,,,,,,,,,,,,,,,,,,,,,,,,,,,,,,,,,,,,,,,,,,,,,,,,,,,,,,,,,,,,,,,,,0,0,0,0,1,,"[""j""]",[0.4695999999996161],0,"[""j"",""2"",""space""]","[0.4695999999996161,1.420500000000004,1.9190999999996166]",,,,,,,,,,,,,,,,,,,,,,,,,,,,,,,,,,,,,,,,,,,,,,,,,,,,,,,,,,,,,,,,,,,,,
,,,,476264,001,2023-10-24_21h31.16.689,fluency,2022.2.5,Win32,60.77549532,,,,,,,,,,,,,,,,,,,,,,,1,1,img/B01_01.jpg,CONTROL,Press J as soon as you see a face, ,JK,,,,,,,,,,,,,,,,,,,,,,,,,,,,,,,,2,0.3932,,,,,,,,,,,,,,0,14,14,1,1,,,,,,,,,,,,,space,0.6987,,,,,,,,,,,,,,,,,,,,,,,,,,,,,,,,,,,,,,,,,,,,,,,,,,,,,,,,,,,,,,,,,,,
,,,,476264,001,2023-10-24_21h31.16.689,fluency,2022.2.5,Win32,60.77549532,,,,,,,,,,,,,,,,,,,,,,,5,2,img/B02_05.jpg,CONTROL,Press J as soon as you see a face, ,JK,,,,,,,,,,,,,,,,,,,,,,,,,,,,,,,,,,,,,,,,,,,,,,305.9244,0,15,15,16,1,109,0,0,0,0,1,98,,,,,,,,,,,,,,,,,,,,,,,,,,,,,,,,,,,,,,,,,,,,,,,,,,,,,,,,,,,,,,,,,,,,,,,,,,
,,,,476264,001,2023-10-24_21h31.16.689,fluency,2022.2.5,Win32,60.77549532,,,,,,,,,,,,,,,,,,,,,,,,,,,,,,,,,,,,,,,,,,,,,,,,,,,,,,,,,,,,,,,,,,,,,,,,,,,,,,,,,,0,0,0,0,1,,"[""j""]",[0.6379000000003998],0,"[""j"",""2"",""space""]","[0.6379999999999768,1.671700000001124,2.7357000000011453]",,,,,,,,,,,,,,,,,,,,,,,,,,,,,,,,,,,,,,,,,,,,,,,,,,,,,,,,,,,,,,,,,,,,,
,,,,476264,001,2023-10-24_21h31.16.689,fluency,2022.2.5,Win32,60.77549532,,,,,,,,,,,,,,,,,,,,,,,5,2,img/B02_05.jpg,CONTROL,Press J as soon as you see a face, ,JK,,,,,,,,,,,,,,,,,,,,,,,,,,,,,,,,2,2.8764,,,,,,,,,,,,,,0,15,15,16,1,,,,,,,,,,,,,space,0.8673,,,,,,,,,,,,,,,,,,,,,,,,,,,,,,,,,,,,,,,,,,,,,,,,,,,,,,,,,,,,,,,,,,,
,,,,476264,001,2023-10-24_21h31.16.689,fluency,2022.2.5,Win32,60.77549532,,,,,,,,,,,,,,,,,,,,,,,1,7,img/B07_01.jpg,CONTROL,Press J as soon as you see a face, ,JK,,,,,,,,,,,,,,,,,,,,,,,,,,,,,,,,,,,,,,,,,,,,,,313.741,0,16,16,67,1,109,0,0,0,0,1,98,,,,,,,,,,,,,,,,,,,,,,,,,,,,,,,,,,,,,,,,,,,,,,,,,,,,,,,,,,,,,,,,,,,,,,,,,,
,,,,476264,001,2023-10-24_21h31.16.689,fluency,2022.2.5,Win32,60.77549532,,,,,,,,,,,,,,,,,,,,,,,,,,,,,,,,,,,,,,,,,,,,,,,,,,,,,,,,,,,,,,,,,,,,,,,,,,,,,,,,,,0,0,0,0,1,,"[""j""]",[0.777499999999975],0,"[""j"",""2"",""space""]","[0.777499999999975,1.9003000000007546,2.3279999999999745]",,,,,,,,,,,,,,,,,,,,,,,,,,,,,,,,,,,,,,,,,,,,,,,,,,,,,,,,,,,,,,,,,,,,,
,,,,476264,001,2023-10-24_21h31.16.689,fluency,2022.2.5,Win32,60.77549532,,,,,,,,,,,,,,,,,,,,,,,1,7,img/B07_01.jpg,CONTROL,Press J as soon as you see a face, ,JK,,,,,,,,,,,,,,,,,,,,,,,,,,,,,,,,3,0.7186,,,,,,,,,,,,,,0,16,16,67,1,,,,,,,,,,,,,space,0.5827,,,,,,,,,,,,,,,,,,,,,,,,,,,,,,,,,,,,,,,,,,,,,,,,,,,,,,,,,,,,,,,,,,,
,,,,476264,001,2023-10-24_21h31.16.689,fluency,2022.2.5,Win32,60.77549532,,,,,,,,,,,,,,,,,,,,,,,8,1,img/B01_08.jpg,CONTROL,Press J as soon as you see a face, ,JK,,,,,,,,,,,,,,,,,,,,,,,,,,,,,,,,,,,,,,,,,,,,,,320.1071,0,17,17,8,1,109,0,0,0,0,1,98,,,,,,,,,,,,,,,,,,,,,,,,,,,,,,,,,,,,,,,,,,,,,,,,,,,,,,,,,,,,,,,,,,,,,,,,,,
,,,,476264,001,2023-10-24_21h31.16.689,fluency,2022.2.5,Win32,60.77549532,,,,,,,,,,,,,,,,,,,,,,,,,,,,,,,,,,,,,,,,,,,,,,,,,,,,,,,,,,,,,,,,,,,,,,,,,,,,,,,,,,0,0,0,0,1,,"[""j""]",[0.9382999999988328],0,"[""j"",""2""]","[0.9381999999992559,2.5184000000003834]",,,,,,,,,,,,,,,,,,,,,,,,,,,,,,,,,,,,,,,,,,,,,,,,,,,,,,,,,,,,,,,,,,,,,
,,,,476264,001,2023-10-24_21h31.16.689,fluency,2022.2.5,Win32,60.77549532,,,,,,,,,,,,,,,,,,,,,,,8,1,img/B01_08.jpg,CONTROL,Press J as soon as you see a face, ,JK,,,,,,,,,,,,,,,,,,,,,,,,,,,,,,,,2,1.6518,,,,,,,,,,,,,,0,17,17,8,1,,,,,,,,,,,,,space,0.6184,,,,,,,,,,,,,,,,,,,,,,,,,,,,,,,,,,,,,,,,,,,,,,,,,,,,,,,,,,,,,,,,,,,
,,,,476264,001,2023-10-24_21h31.16.689,fluency,2022.2.5,Win32,60.77549532,,,,,,,,,,,,,,,,,,,,,,,3,7,img/B07_03.jpg,CONTROL,Press J as soon as you see a face, ,JK,,,,,,,,,,,,,,,,,,,,,,,,,,,,,,,,,,,,,,,,,,,,,,327.4565,0,18,18,69,1,109,0,0,0,0,1,98,,,,,,,,,,,,,,,,,,,,,,,,,,,,,,,,,,,,,,,,,,,,,,,,,,,,,,,,,,,,,,,,,,,,,,,,,,
,,,,476264,001,2023-10-24_21h31.16.689,fluency,2022.2.5,Win32,60.77549532,,,,,,,,,,,,,,,,,,,,,,,,,,,,,,,,,,,,,,,,,,,,,,,,,,,,,,,,,,,,,,,,,,,,,,,,,,,,,,,,,,0,0,0,0,1,,"[""j""]",[0.8319999999999936],0,"[""j""]",[0.8318000000007828],,,,,,,,,,,,,,,,,,,,,,,,,,,,,,,,,,,,,,,,,,,,,,,,,,,,,,,,,,,,,,,,,,,,,
,,,,476264,001,2023-10-24_21h31.16.689,fluency,2022.2.5,Win32,60.77549532,,,,,,,,,,,,,,,,,,,,,,,3,7,img/B07_03.jpg,CONTROL,Press J as soon as you see a face, ,JK,,,,,,,,,,,,,,,,,,,,,,,,,,,,,,,,2,0.5567,,,,,,,,,,,,,,0,18,18,69,1,,,,,,,,,,,,,space,0.8991,,,,,,,,,,,,,,,,,,,,,,,,,,,,,,,,,,,,,,,,,,,,,,,,,,,,,,,,,,,,,,,,,,,
,,,,476264,001,2023-10-24_21h31.16.689,fluency,2022.2.5,Win32,60.77549532,,,,,,,,,,,,,,,,,,,,,,,7,10,img/B10_07.jpg,CONTROL,Press J as soon as you see a face, ,JK,,,,,,,,,,,,,,,,,,,,,,,,,,,,,,,,,,,,,,,,,,,,,,333.973,0,19,19,106,1,109,0,0,0,0,1,98,,,,,,,,,,,,,,,,,,,,,,,,,,,,,,,,,,,,,,,,,,,,,,,,,,,,,,,,,,,,,,,,,,,,,,,,,,
,,,,476264,001,2023-10-24_21h31.16.689,fluency,2022.2.5,Win32,60.77549532,,,,,,,,,,,,,,,,,,,,,,,,,,,,,,,,,,,,,,,,,,,,,,,,,,,,,,,,,,,,,,,,,,,,,,,,,,,,,,,,,,0,0,0,0,1,,"[""j""]",[0.9382000000011317],0,"[""j"",""2""]","[0.9382000000011317,2.6194000000003825]",,,,,,,,,,,,,,,,,,,,,,,,,,,,,,,,,,,,,,,,,,,,,,,,,,,,,,,,,,,,,,,,,,,,,
,,,,476264,001,2023-10-24_21h31.16.689,fluency,2022.2.5,Win32,60.77549532,,,,,,,,,,,,,,,,,,,,,,,7,10,img/B10_07.jpg,CONTROL,Press J as soon as you see a face, ,JK,,,,,,,,,,,,,,,,,,,,,,,,,,,,,,,,2,0.8581,,,,,,,,,,,,,,0,19,19,106,1,,,,,,,,,,,,,space,0.6518,,,,,,,,,,,,,,,,,,,,,,,,,,,,,,,,,,,,,,,,,,,,,,,,,,,,,,,,,,,,,,,,,,,
,,,,476264,001,2023-10-24_21h31.16.689,fluency,2022.2.5,Win32,60.77549532,,,,,,,,,,,,,,,,,,,,,,,6,5,img/B05_06.jpg,CONTROL,Press J as soon as you see a face, ,JK,,,,,,,,,,,,,,,,,,,,,,,,,,,,,,,,,,,,,,,,,,,,,,339.539,0,20,20,50,1,109,0,0,0,0,1,98,,,,,,,,,,,,,,,,,,,,,,,,,,,,,,,,,,,,,,,,,,,,,,,,,,,,,,,,,,,,,,,,,,,,,,,,,,
,,,,476264,001,2023-10-24_21h31.16.689,fluency,2022.2.5,Win32,60.77549532,,,,,,,,,,,,,,,,,,,,,,,,,,,,,,,,,,,,,,,,,,,,,,,,,,,,,,,,,,,,,,,,,,,,,,,,,,,,,,,,,,0,0,0,0,1,,"[""j""]",[0.6434000000003834],0,"[""j"",""2"",""space""]","[0.6434000000003834,1.1859000000003448,2.185099999999636]",,,,,,,,,,,,,,,,,,,,,,,,,,,,,,,,,,,,,,,,,,,,,,,,,,,,,,,,,,,,,,,,,,,,,
,,,,476264,001,2023-10-24_21h31.16.689,fluency,2022.2.5,Win32,60.77549532,,,,,,,,,,,,,,,,,,,,,,,6,5,img/B05_06.jpg,CONTROL,Press J as soon as you see a face, ,JK,,,,,,,,,,,,,,,,,,,,,,,,,,,,,,,,2,0.5167,,,,,,,,,,,,,,0,20,20,50,1,,,,,,,,,,,,,space,0.5659,,,,,,,,,,,,,,,,,,,,,,,,,,,,,,,,,,,,,,,,,,,,,,,,,,,,,,,,,,,,,,,,,,,
,,,,476264,001,2023-10-24_21h31.16.689,fluency,2022.2.5,Win32,60.77549532,,,,,,,,,,,,,,,,,,,,,,,0,4,img/B04_00.jpg,CONTROL,Press J as soon as you see a face, ,JK,,,,,,,,,,,,,,,,,,,,,,,,,,,,,,,,,,,,,,,,,,,,,,345.6887,0,21,21,33,1,109,0,0,0,0,1,98,,,,,,,,,,,,,,,,,,,,,,,,,,,,,,,,,,,,,,,,,,,,,,,,,,,,,,,,,,,,,,,,,,,,,,,,,,
,,,,476264,001,2023-10-24_21h31.16.689,fluency,2022.2.5,Win32,60.77549532,,,,,,,,,,,,,,,,,,,,,,,,,,,,,,,,,,,,,,,,,,,,,,,,,,,,,,,,,,,,,,,,,,,,,,,,,,,,,,,,,,0,0,0,0,1,,"[""j""]",[1.2250999999996566],0,"[""j"",""1"",""space""]","[1.2250000000000227,1.653600000001461,1.9874000000003775]",,,,,,,,,,,,,,,,,,,,,,,,,,,,,,,,,,,,,,,,,,,,,,,,,,,,,,,,,,,,,,,,,,,,,
,,,,476264,001,2023-10-24_21h31.16.689,fluency,2022.2.5,Win32,60.77549532,,,,,,,,,,,,,,,,,,,,,,,0,4,img/B04_00.jpg,CONTROL,Press J as soon as you see a face, ,JK,,,,,,,,,,,,,,,,,,,,,,,,,,,,,,,,1,2.2662,,,,,,,,,,,,,,0,21,21,33,1,,,,,,,,,,,,,space,0.6252,,,,,,,,,,,,,,,,,,,,,,,,,,,,,,,,,,,,,,,,,,,,,,,,,,,,,,,,,,,,,,,,,,,
,,,,476264,001,2023-10-24_21h31.16.689,fluency,2022.2.5,Win32,60.77549532,,,,,,,,,,,,,,,,,,,,,,,6,6,img/B06_06.jpg,CONTROL,Press J as soon as you see a face, ,JK,,,,,,,,,,,,,,,,,,,,,,,,,,,,,,,,,,,,,,,,,,,,,,353.6555,0,22,22,61,1,109,0,0,0,0,1,98,,,,,,,,,,,,,,,,,,,,,,,,,,,,,,,,,,,,,,,,,,,,,,,,,,,,,,,,,,,,,,,,,,,,,,,,,,
,,,,476264,001,2023-10-24_21h31.16.689,fluency,2022.2.5,Win32,60.77549532,,,,,,,,,,,,,,,,,,,,,,,,,,,,,,,,,,,,,,,,,,,,,,,,,,,,,,,,,,,,,,,,,,,,,,,,,,,,,,,,,,0,0,0,0,1,,"[""j""]",[1.0103000000007114],0,"[""j"",""1""]","[1.0103000000007114,1.926900000000387]",,,,,,,,,,,,,,,,,,,,,,,,,,,,,,,,,,,,,,,,,,,,,,,,,,,,,,,,,,,,,,,,,,,,,
,,,,476264,001,2023-10-24_21h31.16.689,fluency,2022.2.5,Win32,60.77549532,,,,,,,,,,,,,,,,,,,,,,,6,6,img/B06_06.jpg,CONTROL,Press J as soon as you see a face, ,JK,,,,,,,,,,,,,,,,,,,,,,,,,,,,,,,,3,1.7206,,,,,,,,,,,,,,0,22,22,61,1,,,,,,,,,,,,,space,0.8336,,,,,,,,,,,,,,,,,,,,,,,,,,,,,,,,,,,,,,,,,,,,,,,,,,,,,,,,,,,,,,,,,,,
,,,,476264,001,2023-10-24_21h31.16.689,fluency,2022.2.5,Win32,60.77549532,,,,,,,,,,,,,,,,,,,,,,,3,9,img/B09_03.jpg,CONTROL,Press J as soon as you see a face, ,JK,,,,,,,,,,,,,,,,,,,,,,,,,,,,,,,,,,,,,,,,,,,,,,360.2875,0,23,23,91,1,109,0,0,0,0,1,98,,,,,,,,,,,,,,,,,,,,,,,,,,,,,,,,,,,,,,,,,,,,,,,,,,,,,,,,,,,,,,,,,,,,,,,,,,
,,,,476264,001,2023-10-24_21h31.16.689,fluency,2022.2.5,Win32,60.77549532,,,,,,,,,,,,,,,,,,,,,,,,,,,,,,,,,,,,,,,,,,,,,,,,,,,,,,,,,,,,,,,,,,,,,,,,,,,,,,,,,,0,0,0,0,1,,"[""j""]",[1.2419000000003848],0,"[""j""]",[1.2419000000003848],,,,,,,,,,,,,,,,,,,,,,,,,,,,,,,,,,,,,,,,,,,,,,,,,,,,,,,,,,,,,,,,,,,,,
,,,,476264,001,2023-10-24_21h31.16.689,fluency,2022.2.5,Win32,60.77549532,,,,,,,,,,,,,,,,,,,,,,,3,9,img/B09_03.jpg,CONTROL,Press J as soon as you see a face, ,JK,,,,,,,,,,,,,,,,,,,,,,,,,,,,,,,,2,1.1121,,,,,,,,,,,,,,0,23,23,91,1,,,,,,,,,,,,,space,2.4506,,,,,,,,,,,,,,,,,,,,,,,,,,,,,,,,,,,,,,,,,,,,,,,,,,,,,,,,,,,,,,,,,,,
,,,,476264,001,2023-10-24_21h31.16.689,fluency,2022.2.5,Win32,60.77549532,,,,,,,,,,,,,,,,,,,,,,,5,5,img/B05_05.jpg,CONTROL,Press J as soon as you see a face, ,JK,,,,,,,,,,,,,,,,,,,,,,,,,,,,,,,,,,,,,,,,,,,,,,368.92,0,24,24,49,1,109,0,0,0,0,1,98,,,,,,,,,,,,,,,,,,,,,,,,,,,,,,,,,,,,,,,,,,,,,,,,,,,,,,,,,,,,,,,,,,,,,,,,,,
,,,,476264,001,2023-10-24_21h31.16.689,fluency,2022.2.5,Win32,60.77549532,,,,,,,,,,,,,,,,,,,,,,,,,,,,,,,,,,,,,,,,,,,,,,,,,,,,,,,,,,,,,,,,,,,,,,,,,,,,,,,,,,0,0,0,0,1,,"[""j""]",[0.4102999999988697],0,"[""j""]",[0.4102999999988697],,,,,,,,,,,,,,,,,,,,,,,,,,,,,,,,,,,,,,,,,,,,,,,,,,,,,,,,,,,,,,,,,,,,,
,,,,476264,001,2023-10-24_21h31.16.689,fluency,2022.2.5,Win32,60.77549532,,,,,,,,,,,,,,,,,,,,,,,5,5,img/B05_05.jpg,CONTROL,Press J as soon as you see a face, ,JK,,,,,,,,,,,,,,,,,,,,,,,,,,,,,,,,2,0.8976,,,,,,,,,,,,,,0,24,24,49,1,,,,,,,,,,,,,space,1.3676,,,,,,,,,,,,,,,,,,,,,,,,,,,,,,,,,,,,,,,,,,,,,,,,,,,,,,,,,,,,,,,,,,,
,,,,476264,001,2023-10-24_21h31.16.689,fluency,2022.2.5,Win32,60.77549532,,,,,,,,,,,,,,,,,,,,,,,6,2,img/B02_06.jpg,CONTROL,Press J as soon as you see a face, ,JK,,,,,,,,,,,,,,,,,,,,,,,,,,,,,,,,,,,,,,,,,,,,,,375.2369,0,25,25,17,1,109,0,0,0,0,1,98,,,,,,,,,,,,,,,,,,,,,,,,,,,,,,,,,,,,,,,,,,,,,,,,,,,,,,,,,,,,,,,,,,,,,,,,,,
,,,,476264,001,2023-10-24_21h31.16.689,fluency,2022.2.5,Win32,60.77549532,,,,,,,,,,,,,,,,,,,,,,,,,,,,,,,,,,,,,,,,,,,,,,,,,,,,,,,,,,,,,,,,,,,,,,,,,,,,,,,,,,0,0,0,0,1,,"[""j""]",[1.0009999999999764],0,"[""j""]",[1.0009999999999764],,,,,,,,,,,,,,,,,,,,,,,,,,,,,,,,,,,,,,,,,,,,,,,,,,,,,,,,,,,,,,,,,,,,,
,,,,476264,001,2023-10-24_21h31.16.689,fluency,2022.2.5,Win32,60.77549532,,,,,,,,,,,,,,,,,,,,,,,6,2,img/B02_06.jpg,CONTROL,Press J as soon as you see a face, ,JK,,,,,,,,,,,,,,,,,,,,,,,,,,,,,,,,2,2.1108,,,,,,,,,,,,,,0,25,25,17,1,,,,,,,,,,,,,space,1.5016,,,,,,,,,,,,,,,,,,,,,,,,,,,,,,,,,,,,,,,,,,,,,,,,,,,,,,,,,,,,,,,,,,,
,,,,476264,001,2023-10-24_21h31.16.689,fluency,2022.2.5,Win32,60.77549532,,,,,,,,,,,,,,,,,,,,,,,7,4,img/B04_07.jpg,CONTROL,Press J as soon as you see a face, ,JK,,,,,,,,,,,,,,,,,,,,,,,,,,,,,,,,,,,,,,,,,,,,,,383.9372,0,26,26,40,1,109,0,0,0,0,1,98,,,,,,,,,,,,,,,,,,,,,,,,,,,,,,,,,,,,,,,,,,,,,,,,,,,,,,,,,,,,,,,,,,,,,,,,,,
,,,,476264,001,2023-10-24_21h31.16.689,fluency,2022.2.5,Win32,60.77549532,,,,,,,,,,,,,,,,,,,,,,,,,,,,,,,,,,,,,,,,,,,,,,,,,,,,,,,,,,,,,,,,,,,,,,,,,,,,,,,,,,0,0,0,0,1,,"[""j""]",[1.4998000000007323],0,"[""j""]",[1.4996999999992227],,,,,,,,,,,,,,,,,,,,,,,,,,,,,,,,,,,,,,,,,,,,,,,,,,,,,,,,,,,,,,,,,,,,,
,,,,476264,001,2023-10-24_21h31.16.689,fluency,2022.2.5,Win32,60.77549532,,,,,,,,,,,,,,,,,,,,,,,7,4,img/B04_07.jpg,CONTROL,Press J as soon as you see a face, ,JK,,,,,,,,,,,,,,,,,,,,,,,,,,,,,,,,2,1.3639,,,,,,,,,,,,,,0,26,26,40,1,,,,,,,,,,,,,space,1.1369,,,,,,,,,,,,,,,,,,,,,,,,,,,,,,,,,,,,,,,,,,,,,,,,,,,,,,,,,,,,,,,,,,,
,,,,476264,001,2023-10-24_21h31.16.689,fluency,2022.2.5,Win32,60.77549532,,,,,,,,,,,,,,,,,,,,,,,1,9,img/B09_01.jpg,CONTROL,Press J as soon as you see a face, ,JK,,,,,,,,,,,,,,,,,,,,,,,,,,,,,,,,,,,,,,,,,,,,,,390.5366,0,27,27,89,1,109,0,0,0,0,1,98,,,,,,,,,,,,,,,,,,,,,,,,,,,,,,,,,,,,,,,,,,,,,,,,,,,,,,,,,,,,,,,,,,,,,,,,,,
,,,,476264,001,2023-10-24_21h31.16.689,fluency,2022.2.5,Win32,60.77549532,,,,,,,,,,,,,,,,,,,,,,,,,,,,,,,,,,,,,,,,,,,,,,,,,,,,,,,,,,,,,,,,,,,,,,,,,,,,,,,,,,0,0,0,0,1,,"[""j""]",[0.7638000000006855],0,"[""j""]",[0.7639000000003193],,,,,,,,,,,,,,,,,,,,,,,,,,,,,,,,,,,,,,,,,,,,,,,,,,,,,,,,,,,,,,,,,,,,,
,,,,476264,001,2023-10-24_21h31.16.689,fluency,2022.2.5,Win32,60.77549532,,,,,,,,,,,,,,,,,,,,,,,1,9,img/B09_01.jpg,CONTROL,Press J as soon as you see a face, ,JK,,,,,,,,,,,,,,,,,,,,,,,,,,,,,,,,2,0.8696,,,,,,,,,,,,,,0,27,27,89,1,,,,,,,,,,,,,space,1.9342,,,,,,,,,,,,,,,,,,,,,,,,,,,,,,,,,,,,,,,,,,,,,,,,,,,,,,,,,,,,,,,,,,,
,,,,476264,001,2023-10-24_21h31.16.689,fluency,2022.2.5,Win32,60.77549532,,,,,,,,,,,,,,,,,,,,,,,9,10,img/B10_09.jpg,CONTROL,Press J as soon as you see a face, ,JK,,,,,,,,,,,,,,,,,,,,,,,,,,,,,,,,,,,,,,,,,,,,,,397.4189,0,28,28,108,1,109,0,0,0,0,1,98,,,,,,,,,,,,,,,,,,,,,,,,,,,,,,,,,,,,,,,,,,,,,,,,,,,,,,,,,,,,,,,,,,,,,,,,,,
,,,,476264,001,2023-10-24_21h31.16.689,fluency,2022.2.5,Win32,60.77549532,,,,,,,,,,,,,,,,,,,,,,,,,,,,,,,,,,,,,,,,,,,,,,,,,,,,,,,,,,,,,,,,,,,,,,,,,,,,,,,,,,0,0,0,0,1,,"[""j""]",[0.9594999999999345],0,"[""j""]",[0.9594999999999345],,,,,,,,,,,,,,,,,,,,,,,,,,,,,,,,,,,,,,,,,,,,,,,,,,,,,,,,,,,,,,,,,,,,,
,,,,476264,001,2023-10-24_21h31.16.689,fluency,2022.2.5,Win32,60.77549532,,,,,,,,,,,,,,,,,,,,,,,9,10,img/B10_09.jpg,CONTROL,Press J as soon as you see a face, ,JK,,,,,,,,,,,,,,,,,,,,,,,,,,,,,,,,2,1.1391,,,,,,,,,,,,,,0,28,28,108,1,,,,,,,,,,,,,space,2.9219,,,,,,,,,,,,,,,,,,,,,,,,,,,,,,,,,,,,,,,,,,,,,,,,,,,,,,,,,,,,,,,,,,,
,,,,476264,001,2023-10-24_21h31.16.689,fluency,2022.2.5,Win32,60.77549532,,,,,,,,,,,,,,,,,,,,,,,2,2,img/B02_02.jpg,CONTROL,Press J as soon as you see a face, ,JK,,,,,,,,,,,,,,,,,,,,,,,,,,,,,,,,,,,,,,,,,,,,,,405.5518,0,29,29,13,1,109,0,0,0,0,1,98,,,,,,,,,,,,,,,,,,,,,,,,,,,,,,,,,,,,,,,,,,,,,,,,,,,,,,,,,,,,,,,,,,,,,,,,,,
,,,,476264,001,2023-10-24_21h31.16.689,fluency,2022.2.5,Win32,60.77549532,,,,,,,,,,,,,,,,,,,,,,,,,,,,,,,,,,,,,,,,,,,,,,,,,,,,,,,,,,,,,,,,,,,,,,,,,,,,,,,,,,0,0,0,0,1,,"[""j""]",[0.8939000000003716],0,"[""j""]",[0.8939000000003716],,,,,,,,,,,,,,,,,,,,,,,,,,,,,,,,,,,,,,,,,,,,,,,,,,,,,,,,,,,,,,,,,,,,,
,,,,476264,001,2023-10-24_21h31.16.689,fluency,2022.2.5,Win32,60.77549532,,,,,,,,,,,,,,,,,,,,,,,2,2,img/B02_02.jpg,CONTROL,Press J as soon as you see a face, ,JK,,,,,,,,,,,,,,,,,,,,,,,,,,,,,,,,2,1.0454,,,,,,,,,,,,,,0,29,29,13,1,,,,,,,,,,,,,space,1.0349,,,,,,,,,,,,,,,,,,,,,,,,,,,,,,,,,,,,,,,,,,,,,,,,,,,,,,,,,,,,,,,,,,,
,,,,476264,001,2023-10-24_21h31.16.689,fluency,2022.2.5,Win32,60.77549532,,,,,,,,,,,,,,,,,,,,,,,7,7,img/B07_07.jpg,CONTROL,Press J as soon as you see a face, ,JK,,,,,,,,,,,,,,,,,,,,,,,,,,,,,,,,,,,,,,,,,,,,,,411.6847,0,30,30,73,1,109,0,0,0,0,1,98,,,,,,,,,,,,,,,,,,,,,,,,,,,,,,,,,,,,,,,,,,,,,,,,,,,,,,,,,,,,,,,,,,,,,,,,,,
,,,,476264,001,2023-10-24_21h31.16.689,fluency,2022.2.5,Win32,60.77549532,,,,,,,,,,,,,,,,,,,,,,,,,,,,,,,,,,,,,,,,,,,,,,,,,,,,,,,,,,,,,,,,,,,,,,,,,,,,,,,,,,0,0,0,0,1,,"[""j""]",[1.652400000000398],0,"[""j""]",[1.652400000000398],,,,,,,,,,,,,,,,,,,,,,,,,,,,,,,,,,,,,,,,,,,,,,,,,,,,,,,,,,,,,,,,,,,,,
,,,,476264,001,2023-10-24_21h31.16.689,fluency,2022.2.5,Win32,60.77549532,,,,,,,,,,,,,,,,,,,,,,,7,7,img/B07_07.jpg,CONTROL,Press J as soon as you see a face, ,JK,,,,,,,,,,,,,,,,,,,,,,,,,,,,,,,,2,1.741,,,,,,,,,,,,,,0,30,30,73,1,,,,,,,,,,,,,space,2.3839,,,,,,,,,,,,,,,,,,,,,,,,,,,,,,,,,,,,,,,,,,,,,,,,,,,,,,,,,,,,,,,,,,,
,,,,476264,001,2023-10-24_21h31.16.689,fluency,2022.2.5,Win32,60.77549532,,,,,,,,,,,,,,,,,,,,,,,0,7,img/B07_00.jpg,CONTROL,Press J as soon as you see a face, ,JK,,,,,,,,,,,,,,,,,,,,,,,,,,,,,,,,,,,,,,,,,,,,,,419.8838,0,31,31,66,1,109,0,0,0,0,1,98,,,,,,,,,,,,,,,,,,,,,,,,,,,,,,,,,,,,,,,,,,,,,,,,,,,,,,,,,,,,,,,,,,,,,,,,,,
,,,,476264,001,2023-10-24_21h31.16.689,fluency,2022.2.5,Win32,60.77549532,,,,,,,,,,,,,,,,,,,,,,,,,,,,,,,,,,,,,,,,,,,,,,,,,,,,,,,,,,,,,,,,,,,,,,,,,,,,,,,,,,0,0,0,0,1,,"[""j""]",[1.0064000000003261],0,"[""j""]",[1.006300000000806],,,,,,,,,,,,,,,,,,,,,,,,,,,,,,,,,,,,,,,,,,,,,,,,,,,,,,,,,,,,,,,,,,,,,
,,,,476264,001,2023-10-24_21h31.16.689,fluency,2022.2.5,Win32,60.77549532,,,,,,,,,,,,,,,,,,,,,,,0,7,img/B07_00.jpg,CONTROL,Press J as soon as you see a face, ,JK,,,,,,,,,,,,,,,,,,,,,,,,,,,,,,,,2,2.743,,,,,,,,,,,,,,0,31,31,66,1,,,,,,,,,,,,,space,2.0673,,,,,,,,,,,,,,,,,,,,,,,,,,,,,,,,,,,,,,,,,,,,,,,,,,,,,,,,,,,,,,,,,,,
,,,,476264,001,2023-10-24_21h31.16.689,fluency,2022.2.5,Win32,60.77549532,,,,,,,,,,,,,,,,,,,,,,,5,6,img/B06_05.jpg,CONTROL,Press J as soon as you see a face, ,JK,,,,,,,,,,,,,,,,,,,,,,,,,,,,,,,,,,,,,,,,,,,,,,428.7669,0,32,32,60,1,109,0,0,0,0,1,98,,,,,,,,,,,,,,,,,,,,,,,,,,,,,,,,,,,,,,,,,,,,,,,,,,,,,,,,,,,,,,,,,,,,,,,,,,
,,,,476264,001,2023-10-24_21h31.16.689,fluency,2022.2.5,Win32,60.77549532,,,,,,,,,,,,,,,,,,,,,,,,,,,,,,,,,,,,,,,,,,,,,,,,,,,,,,,,,,,,,,,,,,,,,,,,,,,,,,,,,,0,0,0,0,1,,"[""j""]",[1.0501999999993359],0,"[""j""]",[1.0502999999989697],,,,,,,,,,,,,,,,,,,,,,,,,,,,,,,,,,,,,,,,,,,,,,,,,,,,,,,,,,,,,,,,,,,,,
,,,,476264,001,2023-10-24_21h31.16.689,fluency,2022.2.5,Win32,60.77549532,,,,,,,,,,,,,,,,,,,,,,,5,6,img/B06_05.jpg,CONTROL,Press J as soon as you see a face, ,JK,,,,,,,,,,,,,,,,,,,,,,,,,,,,,,,,2,0.82,,,,,,,,,,,,,,0,32,32,60,1,,,,,,,,,,,,,space,0.7551,,,,,,,,,,,,,,,,,,,,,,,,,,,,,,,,,,,,,,,,,,,,,,,,,,,,,,,,,,,,,,,,,,,
,,,,476264,001,2023-10-24_21h31.16.689,fluency,2022.2.5,Win32,60.77549532,,,,,,,,,,,,,,,,,,,,,,,3,5,img/B05_03.jpg,CONTROL,Press J as soon as you see a face, ,JK,,,,,,,,,,,,,,,,,,,,,,,,,,,,,,,,,,,,,,,,,,,,,,435.4001,0,33,33,47,1,109,0,0,0,0,1,98,,,,,,,,,,,,,,,,,,,,,,,,,,,,,,,,,,,,,,,,,,,,,,,,,,,,,,,,,,,,,,,,,,,,,,,,,,
,,,,476264,001,2023-10-24_21h31.16.689,fluency,2022.2.5,Win32,60.77549532,,,,,,,,,,,,,,,,,,,,,,,,,,,,,,,,,,,,,,,,,,,,,,,,,,,,,,,,,,,,,,,,,,,,,,,,,,,,,,,,,,0,0,0,0,1,,"[""j""]",[0.9373000000007323],0,"[""j""]",[0.9372000000010985],,,,,,,,,,,,,,,,,,,,,,,,,,,,,,,,,,,,,,,,,,,,,,,,,,,,,,,,,,,,,,,,,,,,,
,,,,476264,001,2023-10-24_21h31.16.689,fluency,2022.2.5,Win32,60.77549532,,,,,,,,,,,,,,,,,,,,,,,3,5,img/B05_03.jpg,CONTROL,Press J as soon as you see a face, ,JK,,,,,,,,,,,,,,,,,,,,,,,,,,,,,,,,2,0.8547,,,,,,,,,,,,,,0,33,33,47,1,,,,,,,,,,,,,space,0.624,,,,,,,,,,,,,,,,,,,,,,,,,,,,,,,,,,,,,,,,,,,,,,,,,,,,,,,,,,,,,,,,,,,
,,,,476264,001,2023-10-24_21h31.16.689,fluency,2022.2.5,Win32,60.77549532,,,,,,,,,,,,,,,,,,,,,,,6,10,img/B10_06.jpg,CONTROL,Press J as soon as you see a face, ,JK,,,,,,,,,,,,,,,,,,,,,,,,,,,,,,,,,,,,,,,,,,,,,,440.9343,0,34,34,105,1,109,0,0,0,0,1,98,,,,,,,,,,,,,,,,,,,,,,,,,,,,,,,,,,,,,,,,,,,,,,,,,,,,,,,,,,,,,,,,,,,,,,,,,,
,,,,476264,001,2023-10-24_21h31.16.689,fluency,2022.2.5,Win32,60.77549532,,,,,,,,,,,,,,,,,,,,,,,,,,,,,,,,,,,,,,,,,,,,,,,,,,,,,,,,,,,,,,,,,,,,,,,,,,,,,,,,,,0,0,0,0,1,,"[""j""]",[1.668199999999274],0,"[""j""]",[1.668199999999274],,,,,,,,,,,,,,,,,,,,,,,,,,,,,,,,,,,,,,,,,,,,,,,,,,,,,,,,,,,,,,,,,,,,,
,,,,476264,001,2023-10-24_21h31.16.689,fluency,2022.2.5,Win32,60.77549532,,,,,,,,,,,,,,,,,,,,,,,6,10,img/B10_06.jpg,CONTROL,Press J as soon as you see a face, ,JK,,,,,,,,,,,,,,,,,,,,,,,,,,,,,,,,2,1.1871,,,,,,,,,,,,,,0,34,34,105,1,,,,,,,,,,,,,space,0.5343,,,,,,,,,,,,,,,,,,,,,,,,,,,,,,,,,,,,,,,,,,,,,,,,,,,,,,,,,,,,,,,,,,,
,,,,476264,001,2023-10-24_21h31.16.689,fluency,2022.2.5,Win32,60.77549532,,,,,,,,,,,,,,,,,,,,,,,10,1,img/B01_10.jpg,CONTROL,Press J as soon as you see a face, ,JK,,,,,,,,,,,,,,,,,,,,,,,,,,,,,,,,,,,,,,,,,,,,,,446.716,0,35,35,10,1,109,0,0,0,0,1,98,,,,,,,,,,,,,,,,,,,,,,,,,,,,,,,,,,,,,,,,,,,,,,,,,,,,,,,,,,,,,,,,,,,,,,,,,,
,,,,476264,001,2023-10-24_21h31.16.689,fluency,2022.2.5,Win32,60.77549532,,,,,,,,,,,,,,,,,,,,,,,,,,,,,,,,,,,,,,,,,,,,,,,,,,,,,,,,,,,,,,,,,,,,,,,,,,,,,,,,,,,,,,,,,,1,,,,,space,3.658,0,0,0,0,1,,,,,,,,,,,,,,,,,,,,,,,,,,,,,,,,,,,,,,,,,,,,,,,,,,,,,,,,,,,,
,,,,476264,001,2023-10-24_21h31.16.689,fluency,2022.2.5,Win32,60.77549532,,,,,,,,,,,,,,,,,,,,,,,,,,,,,,,,,,,,,,,,,,,,,,,,,,,,,,,,,,,,,,,,,,,,,,,,,,,,,,,,,,0,0,0,0,1,,,,,,,,,,,,,,,,,,,,,,,,,,,,,,,,,,,,,,,,,,,,,,,,,,,,,,,,,,,,,,,,,,,,,,,,,,,
,,,,476264,001,2023-10-24_21h31.16.689,fluency,2022.2.5,Win32,60.77549532,,,,,,,,,,,,,,,,,,,,,,,10,1,img/B01_10.jpg,CONTROL,Press J as soon as you see a face, ,JK,,,,,,,,,,,,,,,,,,,,,,,,,,,,,,,,,,,,,,,,,,,,,,454.4159,0,35,35,10,1,109,1,0,1,0,1,98,,,,,,,,,,,,,,,,,,,,,,,,,,,,,,,,,,,,,,,,,,,,,,,,,,,,,,,,,,,,,,,,,,,,,,,,,,
,,,,476264,001,2023-10-24_21h31.16.689,fluency,2022.2.5,Win32,60.77549532,,,,,,,,,,,,,,,,,,,,,,,,,,,,,,,,,,,,,,,,,,,,,,,,,,,,,,,,,,,,,,,,,,,,,,,,,,,,,,,,,,1,0,1,0,1,,"[""j""]",[0.7509000000003425],1,"[""j""]",[0.7508000000007087],,,,,,,,,,,,,,,,,,,,,,,,,,,,,,,,,,,,,,,,,,,,,,,,,,,,,,,,,,,,,,,,,,,,,
,,,,476264,001,2023-10-24_21h31.16.689,fluency,2022.2.5,Win32,60.77549532,,,,,,,,,,,,,,,,,,,,,,,10,1,img/B01_10.jpg,CONTROL,Press J as soon as you see a face, ,JK,,,,,,,,,,,,,,,,,,,,,,,,,,,,,,,,2,1.0481,,,,,,,,,,,,,,0,35,35,10,1,,,,,,,,,,,,,space,4.6834,,,,,,,,,,,,,,,,,,,,,,,,,,,,,,,,,,,,,,,,,,,,,,,,,,,,,,,,,,,,,,,,,,,
,,,,476264,001,2023-10-24_21h31.16.689,fluency,2022.2.5,Win32,60.77549532,,,,,,,,,,,,,,,,,,,,,,,6,8,img/B08_06.jpg,CONTROL,Press J as soon as you see a face, ,JK,,,,,,,,,,,,,,,,,,,,,,,,,,,,,,,,,,,,,,,,,,,,,,464.2194,0,36,36,83,1,109,0,0,0,0,1,98,,,,,,,,,,,,,,,,,,,,,,,,,,,,,,,,,,,,,,,,,,,,,,,,,,,,,,,,,,,,,,,,,,,,,,,,,,
,,,,476264,001,2023-10-24_21h31.16.689,fluency,2022.2.5,Win32,60.77549532,,,,,,,,,,,,,,,,,,,,,,,,,,,,,,,,,,,,,,,,,,,,,,,,,,,,,,,,,,,,,,,,,,,,,,,,,,,,,,,,,,0,0,0,0,1,,"[""j""]",[1.011000000000081],1,"[""j"",""2""]","[1.011000000000081,2.578200000001175]",,,,,,,,,,,,,,,,,,,,,,,,,,,,,,,,,,,,,,,,,,,,,,,,,,,,,,,,,,,,,,,,,,,,,
,,,,476264,001,2023-10-24_21h31.16.689,fluency,2022.2.5,Win32,60.77549532,,,,,,,,,,,,,,,,,,,,,,,6,8,img/B08_06.jpg,CONTROL,Press J as soon as you see a face, ,JK,,,,,,,,,,,,,,,,,,,,,,,,,,,,,,,,1,1.8964,,,,,,,,,,,,,,0,36,36,83,1,,,,,,,,,,,,,space,3.4505,,,,,,,,,,,,,,,,,,,,,,,,,,,,,,,,,,,,,,,,,,,,,,,,,,,,,,,,,,,,,,,,,,,
,,,,476264,001,2023-10-24_21h31.16.689,fluency,2022.2.5,Win32,60.77549532,,,,,,,,,,,,,,,,,,,,,,,9,4,img/B04_09.jpg,CONTROL,Press J as soon as you see a face, ,JK,,,,,,,,,,,,,,,,,,,,,,,,,,,,,,,,,,,,,,,,,,,,,,473.6317,0,37,37,42,1,109,0,0,0,0,1,98,,,,,,,,,,,,,,,,,,,,,,,,,,,,,,,,,,,,,,,,,,,,,,,,,,,,,,,,,,,,,,,,,,,,,,,,,,
,,,,476264,001,2023-10-24_21h31.16.689,fluency,2022.2.5,Win32,60.77549532,,,,,,,,,,,,,,,,,,,,,,,,,,,,,,,,,,,,,,,,,,,,,,,,,,,,,,,,,,,,,,,,,,,,,,,,,,,,,,,,,,0,0,0,0,1,,"[""j""]",[1.4782999999988533],1,"[""j"",""2""]","[1.4781999999992195,2.7204999999999018]",,,,,,,,,,,,,,,,,,,,,,,,,,,,,,,,,,,,,,,,,,,,,,,,,,,,,,,,,,,,,,,,,,,,,
,,,,476264,001,2023-10-24_21h31.16.689,fluency,2022.2.5,Win32,60.77549532,,,,,,,,,,,,,,,,,,,,,,,9,4,img/B04_09.jpg,CONTROL,Press J as soon as you see a face, ,JK,,,,,,,,,,,,,,,,,,,,,,,,,,,,,,,,2,1.6874,,,,,,,,,,,,,,0,37,37,42,1,,,,,,,,,,,,,space,0.9196,,,,,,,,,,,,,,,,,,,,,,,,,,,,,,,,,,,,,,,,,,,,,,,,,,,,,,,,,,,,,,,,,,,
,,,,476264,001,2023-10-24_21h31.16.689,fluency,2022.2.5,Win32,60.77549532,,,,,,,,,,,,,,,,,,,,,,,0,5,img/B05_00.jpg,CONTROL,Press J as soon as you see a face, ,JK,,,,,,,,,,,,,,,,,,,,,,,,,,,,,,,,,,,,,,,,,,,,,,480.3145,0,38,38,44,1,109,0,0,0,0,1,98,,,,,,,,,,,,,,,,,,,,,,,,,,,,,,,,,,,,,,,,,,,,,,,,,,,,,,,,,,,,,,,,,,,,,,,,,,
,,,,476264,001,2023-10-24_21h31.16.689,fluency,2022.2.5,Win32,60.77549532,,,,,,,,,,,,,,,,,,,,,,,,,,,,,,,,,,,,,,,,,,,,,,,,,,,,,,,,,,,,,,,,,,,,,,,,,,,,,,,,,,0,0,0,0,1,,"[""j""]",[0.8476999999992358],1,"[""j""]",[0.847599999999602],,,,,,,,,,,,,,,,,,,,,,,,,,,,,,,,,,,,,,,,,,,,,,,,,,,,,,,,,,,,,,,,,,,,,
,,,,476264,001,2023-10-24_21h31.16.689,fluency,2022.2.5,Win32,60.77549532,,,,,,,,,,,,,,,,,,,,,,,0,5,img/B05_00.jpg,CONTROL,Press J as soon as you see a face, ,JK,,,,,,,,,,,,,,,,,,,,,,,,,,,,,,,,1,0.9284,,,,,,,,,,,,,,0,38,38,44,1,,,,,,,,,,,,,space,1.2179,,,,,,,,,,,,,,,,,,,,,,,,,,,,,,,,,,,,,,,,,,,,,,,,,,,,,,,,,,,,,,,,,,,
,,,,476264,001,2023-10-24_21h31.16.689,fluency,2022.2.5,Win32,60.77549532,,,,,,,,,,,,,,,,,,,,,,,6,1,img/B01_06.jpg,CONTROL,Press J as soon as you see a face, ,JK,,,,,,,,,,,,,,,,,,,,,,,,,,,,,,,,,,,,,,,,,,,,,,486.5143,0,39,39,6,1,109,0,0,0,0,1,98,,,,,,,,,,,,,,,,,,,,,,,,,,,,,,,,,,,,,,,,,,,,,,,,,,,,,,,,,,,,,,,,,,,,,,,,,,
,,,,476264,001,2023-10-24_21h31.16.689,fluency,2022.2.5,Win32,60.77549532,,,,,,,,,,,,,,,,,,,,,,,,,,,,,,,,,,,,,,,,,,,,,,,,,,,,,,,,,,,,,,,,,,,,,,,,,,,,,,,,,,0,0,0,0,1,,"[""j""]",[1.202099999999632],1,"[""j""]",[1.202099999999632],,,,,,,,,,,,,,,,,,,,,,,,,,,,,,,,,,,,,,,,,,,,,,,,,,,,,,,,,,,,,,,,,,,,,
,,,,476264,001,2023-10-24_21h31.16.689,fluency,2022.2.5,Win32,60.77549532,,,,,,,,,,,,,,,,,,,,,,,6,1,img/B01_06.jpg,CONTROL,Press J as soon as you see a face, ,JK,,,,,,,,,,,,,,,,,,,,,,,,,,,,,,,,1,0.8941,,,,,,,,,,,,,,0,39,39,6,1,,,,,,,,,,,,,space,1.2513,,,,,,,,,,,,,,,,,,,,,,,,,,,,,,,,,,,,,,,,,,,,,,,,,,,,,,,,,,,,,,,,,,,
,,,,476264,001,2023-10-24_21h31.16.689,fluency,2022.2.5,Win32,60.77549532,,,,,,,,,,,,,,,,,,,,,,,2,3,img/B03_02.jpg,CONTROL,Press J as soon as you see a face, ,JK,,,,,,,,,,,,,,,,,,,,,,,,,,,,,,,,,,,,,,,,,,,,,,492.7301,0,40,40,24,1,109,0,0,0,0,1,98,,,,,,,,,,,,,,,,,,,,,,,,,,,,,,,,,,,,,,,,,,,,,,,,,,,,,,,,,,,,,,,,,,,,,,,,,,
,,,,476264,001,2023-10-24_21h31.16.689,fluency,2022.2.5,Win32,60.77549532,,,,,,,,,,,,,,,,,,,,,,,,,,,,,,,,,,,,,,,,,,,,,,,,,,,,,,,,,,,,,,,,,,,,,,,,,,,,,,,,,,0,0,0,0,1,,"[""j""]",[1.2001999999993131],1,"[""j""]",[1.2002000000011321],,,,,,,,,,,,,,,,,,,,,,,,,,,,,,,,,,,,,,,,,,,,,,,,,,,,,,,,,,,,,,,,,,,,,
,,,,476264,001,2023-10-24_21h31.16.689,fluency,2022.2.5,Win32,60.77549532,,,,,,,,,,,,,,,,,,,,,,,2,3,img/B03_02.jpg,CONTROL,Press J as soon as you see a face, ,JK,,,,,,,,,,,,,,,,,,,,,,,,,,,,,,,,1,0.7535,,,,,,,,,,,,,,0,40,40,24,1,,,,,,,,,,,,,space,1.1653,,,,,,,,,,,,,,,,,,,,,,,,,,,,,,,,,,,,,,,,,,,,,,,,,,,,,,,,,,,,,,,,,,,
,,,,476264,001,2023-10-24_21h31.16.689,fluency,2022.2.5,Win32,60.77549532,,,,,,,,,,,,,,,,,,,,,,,3,8,img/B08_03.jpg,CONTROL,Press J as soon as you see a face, ,JK,,,,,,,,,,,,,,,,,,,,,,,,,,,,,,,,,,,,,,,,,,,,,,498.7291,0,41,41,80,1,109,0,0,0,0,1,98,,,,,,,,,,,,,,,,,,,,,,,,,,,,,,,,,,,,,,,,,,,,,,,,,,,,,,,,,,,,,,,,,,,,,,,,,,
,,,,476264,001,2023-10-24_21h31.16.689,fluency,2022.2.5,Win32,60.77549532,,,,,,,,,,,,,,,,,,,,,,,,,,,,,,,,,,,,,,,,,,,,,,,,,,,,,,,,,,,,,,,,,,,,,,,,,,,,,,,,,,0,0,0,0,1,,"[""j""]",[0.9270000000000209],1,"[""j""]",[0.9270000000000209],,,,,,,,,,,,,,,,,,,,,,,,,,,,,,,,,,,,,,,,,,,,,,,,,,,,,,,,,,,,,,,,,,,,,
,,,,476264,001,2023-10-24_21h31.16.689,fluency,2022.2.5,Win32,60.77549532,,,,,,,,,,,,,,,,,,,,,,,3,8,img/B08_03.jpg,CONTROL,Press J as soon as you see a face, ,JK,,,,,,,,,,,,,,,,,,,,,,,,,,,,,,,,2,0.7463,,,,,,,,,,,,,,0,41,41,80,1,,,,,,,,,,,,,space,1.9347,,,,,,,,,,,,,,,,,,,,,,,,,,,,,,,,,,,,,,,,,,,,,,,,,,,,,,,,,,,,,,,,,,,
,,,,476264,001,2023-10-24_21h31.16.689,fluency,2022.2.5,Win32,60.77549532,,,,,,,,,,,,,,,,,,,,,,,10,9,img/B09_10.jpg,CONTROL,Press J as soon as you see a face, ,JK,,,,,,,,,,,,,,,,,,,,,,,,,,,,,,,,,,,,,,,,,,,,,,505.4787,0,42,42,98,1,109,0,0,0,0,1,98,,,,,,,,,,,,,,,,,,,,,,,,,,,,,,,,,,,,,,,,,,,,,,,,,,,,,,,,,,,,,,,,,,,,,,,,,,
,,,,476264,001,2023-10-24_21h31.16.689,fluency,2022.2.5,Win32,60.77549532,,,,,,,,,,,,,,,,,,,,,,,,,,,,,,,,,,,,,,,,,,,,,,,,,,,,,,,,,,,,,,,,,,,,,,,,,,,,,,,,,,0,0,0,0,1,,"[""j""]",[1.0499000000003207],1,"[""j"",""3""]","[1.0499000000003207,2.7340999999995574]",,,,,,,,,,,,,,,,,,,,,,,,,,,,,,,,,,,,,,,,,,,,,,,,,,,,,,,,,,,,,,,,,,,,,
,,,,476264,001,2023-10-24_21h31.16.689,fluency,2022.2.5,Win32,60.77549532,,,,,,,,,,,,,,,,,,,,,,,10,9,img/B09_10.jpg,CONTROL,Press J as soon as you see a face, ,JK,,,,,,,,,,,,,,,,,,,,,,,,,,,,,,,,3,1.9836,,,,,,,,,,,,,,0,42,42,98,1,,,,,,,,,,,,,space,0.8829,,,,,,,,,,,,,,,,,,,,,,,,,,,,,,,,,,,,,,,,,,,,,,,,,,,,,,,,,,,,,,,,,,,
,,,,476264,001,2023-10-24_21h31.16.689,fluency,2022.2.5,Win32,60.77549532,,,,,,,,,,,,,,,,,,,,,,,4,5,img/B05_04.jpg,CONTROL,Press J as soon as you see a face, ,JK,,,,,,,,,,,,,,,,,,,,,,,,,,,,,,,,,,,,,,,,,,,,,,513.4117,0,43,43,48,1,109,0,0,0,0,1,98,,,,,,,,,,,,,,,,,,,,,,,,,,,,,,,,,,,,,,,,,,,,,,,,,,,,,,,,,,,,,,,,,,,,,,,,,,
,,,,476264,001,2023-10-24_21h31.16.689,fluency,2022.2.5,Win32,60.77549532,,,,,,,,,,,,,,,,,,,,,,,,,,,,,,,,,,,,,,,,,,,,,,,,,,,,,,,,,,,,,,,,,,,,,,,,,,,,,,,,,,0,0,0,0,1,,"[""j""]",[1.303199999999265],1,"[""j""]",[1.3032999999988988],,,,,,,,,,,,,,,,,,,,,,,,,,,,,,,,,,,,,,,,,,,,,,,,,,,,,,,,,,,,,,,,,,,,,
,,,,476264,001,2023-10-24_21h31.16.689,fluency,2022.2.5,Win32,60.77549532,,,,,,,,,,,,,,,,,,,,,,,4,5,img/B05_04.jpg,CONTROL,Press J as soon as you see a face, ,JK,,,,,,,,,,,,,,,,,,,,,,,,,,,,,,,,2,1.1263,,,,,,,,,,,,,,0,43,43,48,1,,,,,,,,,,,,,space,1.1843,,,,,,,,,,,,,,,,,,,,,,,,,,,,,,,,,,,,,,,,,,,,,,,,,,,,,,,,,,,,,,,,,,,
,,,,476264,001,2023-10-24_21h31.16.689,fluency,2022.2.5,Win32,60.77549532,,,,,,,,,,,,,,,,,,,,,,,4,9,img/B09_04.jpg,CONTROL,Press J as soon as you see a face, ,JK,,,,,,,,,,,,,,,,,,,,,,,,,,,,,,,,,,,,,,,,,,,,,,520.7782,0,44,44,92,1,109,0,0,0,0,1,98,,,,,,,,,,,,,,,,,,,,,,,,,,,,,,,,,,,,,,,,,,,,,,,,,,,,,,,,,,,,,,,,,,,,,,,,,,
,,,,476264,001,2023-10-24_21h31.16.689,fluency,2022.2.5,Win32,60.77549532,,,,,,,,,,,,,,,,,,,,,,,,,,,,,,,,,,,,,,,,,,,,,,,,,,,,,,,,,,,,,,,,,,,,,,,,,,,,,,,,,,0,0,0,0,1,,"[""j""]",[1.3875999999995656],1,"[""j"",""2""]","[1.3875999999995656,2.25759999999957]",,,,,,,,,,,,,,,,,,,,,,,,,,,,,,,,,,,,,,,,,,,,,,,,,,,,,,,,,,,,,,,,,,,,,
,,,,476264,001,2023-10-24_21h31.16.689,fluency,2022.2.5,Win32,60.77549532,,,,,,,,,,,,,,,,,,,,,,,4,9,img/B09_04.jpg,CONTROL,Press J as soon as you see a face, ,JK,,,,,,,,,,,,,,,,,,,,,,,,,,,,,,,,2,1.0765,,,,,,,,,,,,,,0,44,44,92,1,,,,,,,,,,,,,space,1.1479,,,,,,,,,,,,,,,,,,,,,,,,,,,,,,,,,,,,,,,,,,,,,,,,,,,,,,,,,,,,,,,,,,,
,,,,476264,001,2023-10-24_21h31.16.689,fluency,2022.2.5,Win32,60.77549532,,,,,,,,,,,,,,,,,,,,,,,7,6,img/B06_07.jpg,CONTROL,Press J as soon as you see a face, ,JK,,,,,,,,,,,,,,,,,,,,,,,,,,,,,,,,,,,,,,,,,,,,,,528.061,0,45,45,62,1,109,0,0,0,0,1,98,,,,,,,,,,,,,,,,,,,,,,,,,,,,,,,,,,,,,,,,,,,,,,,,,,,,,,,,,,,,,,,,,,,,,,,,,,
,,,,476264,001,2023-10-24_21h31.16.689,fluency,2022.2.5,Win32,60.77549532,,,,,,,,,,,,,,,,,,,,,,,,,,,,,,,,,,,,,,,,,,,,,,,,,,,,,,,,,,,,,,,,,,,,,,,,,,,,,,,,,,0,0,0,0,1,,"[""j""]",[0.9678000000008069],1,"[""j""]",[0.9678000000008069],,,,,,,,,,,,,,,,,,,,,,,,,,,,,,,,,,,,,,,,,,,,,,,,,,,,,,,,,,,,,,,,,,,,,
,,,,476264,001,2023-10-24_21h31.16.689,fluency,2022.2.5,Win32,60.77549532,,,,,,,,,,,,,,,,,,,,,,,7,6,img/B06_07.jpg,CONTROL,Press J as soon as you see a face, ,JK,,,,,,,,,,,,,,,,,,,,,,,,,,,,,,,,2,0.6177,,,,,,,,,,,,,,0,45,45,62,1,,,,,,,,,,,,,space,0.9678,,,,,,,,,,,,,,,,,,,,,,,,,,,,,,,,,,,,,,,,,,,,,,,,,,,,,,,,,,,,,,,,,,,
,,,,476264,001,2023-10-24_21h31.16.689,fluency,2022.2.5,Win32,60.77549532,,,,,,,,,,,,,,,,,,,,,,,2,1,img/B01_02.jpg,CONTROL,Press J as soon as you see a face, ,JK,,,,,,,,,,,,,,,,,,,,,,,,,,,,,,,,,,,,,,,,,,,,,,533.6985,0,46,46,2,1,109,0,0,0,0,1,98,,,,,,,,,,,,,,,,,,,,,,,,,,,,,,,,,,,,,,,,,,,,,,,,,,,,,,,,,,,,,,,,,,,,,,,,,,
,,,,476264,001,2023-10-24_21h31.16.689,fluency,2022.2.5,Win32,60.77549532,,,,,,,,,,,,,,,,,,,,,,,,,,,,,,,,,,,,,,,,,,,,,,,,,,,,,,,,,,,,,,,,,,,,,,,,,,,,,,,,,,0,0,0,0,1,,"[""j""]",[0.9793999999984635],1,"[""j""]",[0.9793999999984635],,,,,,,,,,,,,,,,,,,,,,,,,,,,,,,,,,,,,,,,,,,,,,,,,,,,,,,,,,,,,,,,,,,,,
,,,,476264,001,2023-10-24_21h31.16.689,fluency,2022.2.5,Win32,60.77549532,,,,,,,,,,,,,,,,,,,,,,,2,1,img/B01_02.jpg,CONTROL,Press J as soon as you see a face, ,JK,,,,,,,,,,,,,,,,,,,,,,,,,,,,,,,,2,0.7872,,,,,,,,,,,,,,0,46,46,2,1,,,,,,,,,,,,,space,3.1343,,,,,,,,,,,,,,,,,,,,,,,,,,,,,,,,,,,,,,,,,,,,,,,,,,,,,,,,,,,,,,,,,,,
,,,,476264,001,2023-10-24_21h31.16.689,fluency,2022.2.5,Win32,60.77549532,,,,,,,,,,,,,,,,,,,,,,,7,2,img/B02_07.jpg,CONTROL,Press J as soon as you see a face, ,JK,,,,,,,,,,,,,,,,,,,,,,,,,,,,,,,,,,,,,,,,,,,,,,542.7099,0,47,47,18,1,109,0,0,0,0,1,98,,,,,,,,,,,,,,,,,,,,,,,,,,,,,,,,,,,,,,,,,,,,,,,,,,,,,,,,,,,,,,,,,,,,,,,,,,
,,,,476264,001,2023-10-24_21h31.16.689,fluency,2022.2.5,Win32,60.77549532,,,,,,,,,,,,,,,,,,,,,,,,,,,,,,,,,,,,,,,,,,,,,,,,,,,,,,,,,,,,,,,,,,,,,,,,,,,,,,,,,,0,0,0,0,1,,"[""j""]",[1.279199999999264],1,"[""j""]",[1.279199999999264],,,,,,,,,,,,,,,,,,,,,,,,,,,,,,,,,,,,,,,,,,,,,,,,,,,,,,,,,,,,,,,,,,,,,
,,,,476264,001,2023-10-24_21h31.16.689,fluency,2022.2.5,Win32,60.77549532,,,,,,,,,,,,,,,,,,,,,,,7,2,img/B02_07.jpg,CONTROL,Press J as soon as you see a face, ,JK,,,,,,,,,,,,,,,,,,,,,,,,,,,,,,,,2,1.8041,,,,,,,,,,,,,,0,47,47,18,1,,,,,,,,,,,,,space,1.3251,,,,,,,,,,,,,,,,,,,,,,,,,,,,,,,,,,,,,,,,,,,,,,,,,,,,,,,,,,,,,,,,,,,
,,,,476264,001,2023-10-24_21h31.16.689,fluency,2022.2.5,Win32,60.77549532,,,,,,,,,,,,,,,,,,,,,,,5,7,img/B07_05.jpg,CONTROL,Press J as soon as you see a face, ,JK,,,,,,,,,,,,,,,,,,,,,,,,,,,,,,,,,,,,,,,,,,,,,,549.9092,0,48,48,71,1,109,0,0,0,0,1,98,,,,,,,,,,,,,,,,,,,,,,,,,,,,,,,,,,,,,,,,,,,,,,,,,,,,,,,,,,,,,,,,,,,,,,,,,,
,,,,476264,001,2023-10-24_21h31.16.689,fluency,2022.2.5,Win32,60.77549532,,,,,,,,,,,,,,,,,,,,,,,,,,,,,,,,,,,,,,,,,,,,,,,,,,,,,,,,,,,,,,,,,,,,,,,,,,,,,,,,,,0,0,0,0,1,,"[""j""]",[0.8431999999992286],1,"[""j""]",[0.8431999999992286],,,,,,,,,,,,,,,,,,,,,,,,,,,,,,,,,,,,,,,,,,,,,,,,,,,,,,,,,,,,,,,,,,,,,
,,,,476264,001,2023-10-24_21h31.16.689,fluency,2022.2.5,Win32,60.77549532,,,,,,,,,,,,,,,,,,,,,,,5,7,img/B07_05.jpg,CONTROL,Press J as soon as you see a face, ,JK,,,,,,,,,,,,,,,,,,,,,,,,,,,,,,,,2,0.4589,,,,,,,,,,,,,,0,48,48,71,1,,,,,,,,,,,,,space,0.7386,,,,,,,,,,,,,,,,,,,,,,,,,,,,,,,,,,,,,,,,,,,,,,,,,,,,,,,,,,,,,,,,,,,
,,,,476264,001,2023-10-24_21h31.16.689,fluency,2022.2.5,Win32,60.77549532,,,,,,,,,,,,,,,,,,,,,,,4,7,img/B07_04.jpg,CONTROL,Press J as soon as you see a face, ,JK,,,,,,,,,,,,,,,,,,,,,,,,,,,,,,,,,,,,,,,,,,,,,,556.159,0,49,49,70,1,109,0,0,0,0,1,98,,,,,,,,,,,,,,,,,,,,,,,,,,,,,,,,,,,,,,,,,,,,,,,,,,,,,,,,,,,,,,,,,,,,,,,,,,
,,,,476264,001,2023-10-24_21h31.16.689,fluency,2022.2.5,Win32,60.77549532,,,,,,,,,,,,,,,,,,,,,,,,,,,,,,,,,,,,,,,,,,,,,,,,,,,,,,,,,,,,,,,,,,,,,,,,,,,,,,,,,,0,0,0,0,1,,"[""j""]",[0.8005000000000564],1,"[""j""]",[0.8005000000000564],,,,,,,,,,,,,,,,,,,,,,,,,,,,,,,,,,,,,,,,,,,,,,,,,,,,,,,,,,,,,,,,,,,,,
,,,,476264,001,2023-10-24_21h31.16.689,fluency,2022.2.5,Win32,60.77549532,,,,,,,,,,,,,,,,,,,,,,,4,7,img/B07_04.jpg,CONTROL,Press J as soon as you see a face, ,JK,,,,,,,,,,,,,,,,,,,,,,,,,,,,,,,,2,0.9866,,,,,,,,,,,,,,0,49,49,70,1,,,,,,,,,,,,,space,0.6841,,,,,,,,,,,,,,,,,,,,,,,,,,,,,,,,,,,,,,,,,,,,,,,,,,,,,,,,,,,,,,,,,,,
,,,,476264,001,2023-10-24_21h31.16.689,fluency,2022.2.5,Win32,60.77549532,,,,,,,,,,,,,,,,,,,,,,,10,3,img/B03_10.jpg,CONTROL,Press J as soon as you see a face, ,JK,,,,,,,,,,,,,,,,,,,,,,,,,,,,,,,,,,,,,,,,,,,,,,562.892,0,50,50,32,1,109,0,0,0,0,1,98,,,,,,,,,,,,,,,,,,,,,,,,,,,,,,,,,,,,,,,,,,,,,,,,,,,,,,,,,,,,,,,,,,,,,,,,,,
,,,,476264,001,2023-10-24_21h31.16.689,fluency,2022.2.5,Win32,60.77549532,,,,,,,,,,,,,,,,,,,,,,,,,,,,,,,,,,,,,,,,,,,,,,,,,,,,,,,,,,,,,,,,,,,,,,,,,,,,,,,,,,0,0,0,0,1,,"[""j""]",[1.2695999999996275],1,"[""j"",""2""]","[1.2695999999996275,2.2345000000000255]",,,,,,,,,,,,,,,,,,,,,,,,,,,,,,,,,,,,,,,,,,,,,,,,,,,,,,,,,,,,,,,,,,,,,
,,,,476264,001,2023-10-24_21h31.16.689,fluency,2022.2.5,Win32,60.77549532,,,,,,,,,,,,,,,,,,,,,,,10,3,img/B03_10.jpg,CONTROL,Press J as soon as you see a face, ,JK,,,,,,,,,,,,,,,,,,,,,,,,,,,,,,,,2,2.2865,,,,,,,,,,,,,,0,50,50,32,1,,,,,,,,,,,,,space,0.8755,,,,,,,,,,,,,,,,,,,,,,,,,,,,,,,,,,,,,,,,,,,,,,,,,,,,,,,,,,,,,,,,,,,
,,,,476264,001,2023-10-24_21h31.16.689,fluency,2022.2.5,Win32,60.77549532,,,,,,,,,,,,,,,,,,,,,,,9,7,img/B07_09.jpg,CONTROL,Press J as soon as you see a face, ,JK,,,,,,,,,,,,,,,,,,,,,,,,,,,,,,,,,,,,,,,,,,,,,,571.1098,0,51,51,75,1,109,0,0,0,0,1,98,,,,,,,,,,,,,,,,,,,,,,,,,,,,,,,,,,,,,,,,,,,,,,,,,,,,,,,,,,,,,,,,,,,,,,,,,,
,,,,476264,001,2023-10-24_21h31.16.689,fluency,2022.2.5,Win32,60.77549532,,,,,,,,,,,,,,,,,,,,,,,,,,,,,,,,,,,,,,,,,,,,,,,,,,,,,,,,,,,,,,,,,,,,,,,,,,,,,,,,,,0,0,0,0,1,,"[""j""]",[1.8864000000004353],1,"[""j""]",[1.8862999999989825],,,,,,,,,,,,,,,,,,,,,,,,,,,,,,,,,,,,,,,,,,,,,,,,,,,,,,,,,,,,,,,,,,,,,
,,,,476264,001,2023-10-24_21h31.16.689,fluency,2022.2.5,Win32,60.77549532,,,,,,,,,,,,,,,,,,,,,,,9,7,img/B07_09.jpg,CONTROL,Press J as soon as you see a face, ,JK,,,,,,,,,,,,,,,,,,,,,,,,,,,,,,,,3,1.2296,,,,,,,,,,,,,,0,51,51,75,1,,,,,,,,,,,,,space,1.2673,,,,,,,,,,,,,,,,,,,,,,,,,,,,,,,,,,,,,,,,,,,,,,,,,,,,,,,,,,,,,,,,,,,
,,,,476264,001,2023-10-24_21h31.16.689,fluency,2022.2.5,Win32,60.77549532,,,,,,,,,,,,,,,,,,,,,,,10,4,img/B04_10.jpg,CONTROL,Press J as soon as you see a face, ,JK,,,,,,,,,,,,,,,,,,,,,,,,,,,,,,,,,,,,,,,,,,,,,,577.6743,0,52,52,43,1,109,0,0,0,0,1,98,,,,,,,,,,,,,,,,,,,,,,,,,,,,,,,,,,,,,,,,,,,,,,,,,,,,,,,,,,,,,,,,,,,,,,,,,,
,,,,476264,001,2023-10-24_21h31.16.689,fluency,2022.2.5,Win32,60.77549532,,,,,,,,,,,,,,,,,,,,,,,,,,,,,,,,,,,,,,,,,,,,,,,,,,,,,,,,,,,,,,,,,,,,,,,,,,,,,,,,,,0,0,0,0,1,,"[""j""]",[1.6224000000003116],1,"[""j"",""2""]","[1.6222999999988588,2.3531999999992195]",,,,,,,,,,,,,,,,,,,,,,,,,,,,,,,,,,,,,,,,,,,,,,,,,,,,,,,,,,,,,,,,,,,,,
,,,,476264,001,2023-10-24_21h31.16.689,fluency,2022.2.5,Win32,60.77549532,,,,,,,,,,,,,,,,,,,,,,,10,4,img/B04_10.jpg,CONTROL,Press J as soon as you see a face, ,JK,,,,,,,,,,,,,,,,,,,,,,,,,,,,,,,,2,1.4743,,,,,,,,,,,,,,0,52,52,43,1,,,,,,,,,,,,,space,0.9252,,,,,,,,,,,,,,,,,,,,,,,,,,,,,,,,,,,,,,,,,,,,,,,,,,,,,,,,,,,,,,,,,,,
,,,,476264,001,2023-10-24_21h31.16.689,fluency,2022.2.5,Win32,60.77549532,,,,,,,,,,,,,,,,,,,,,,,9,2,img/B02_09.jpg,CONTROL,Press J as soon as you see a face, ,JK,,,,,,,,,,,,,,,,,,,,,,,,,,,,,,,,,,,,,,,,,,,,,,584.1404,0,53,53,20,1,109,0,0,0,0,1,98,,,,,,,,,,,,,,,,,,,,,,,,,,,,,,,,,,,,,,,,,,,,,,,,,,,,,,,,,,,,,,,,,,,,,,,,,,
,,,,476264,001,2023-10-24_21h31.16.689,fluency,2022.2.5,Win32,60.77549532,,,,,,,,,,,,,,,,,,,,,,,,,,,,,,,,,,,,,,,,,,,,,,,,,,,,,,,,,,,,,,,,,,,,,,,,,,,,,,,,,,0,0,0,0,1,,"[""j""]",[1.0909999999998945],1,"[""j""]",[1.0909999999998945],,,,,,,,,,,,,,,,,,,,,,,,,,,,,,,,,,,,,,,,,,,,,,,,,,,,,,,,,,,,,,,,,,,,,
,,,,476264,001,2023-10-24_21h31.16.689,fluency,2022.2.5,Win32,60.77549532,,,,,,,,,,,,,,,,,,,,,,,9,2,img/B02_09.jpg,CONTROL,Press J as soon as you see a face, ,JK,,,,,,,,,,,,,,,,,,,,,,,,,,,,,,,,2,0.3864,,,,,,,,,,,,,,0,53,53,20,1,,,,,,,,,,,,,space,0.5669,,,,,,,,,,,,,,,,,,,,,,,,,,,,,,,,,,,,,,,,,,,,,,,,,,,,,,,,,,,,,,,,,,,
,,,,476264,001,2023-10-24_21h31.16.689,fluency,2022.2.5,Win32,60.77549532,,,,,,,,,,,,,,,,,,,,,,,8,3,img/B03_08.jpg,CONTROL,Press J as soon as you see a face, ,JK,,,,,,,,,,,,,,,,,,,,,,,,,,,,,,,,,,,,,,,,,,,,,,590.1566,0,54,54,30,1,109,0,0,0,0,1,98,,,,,,,,,,,,,,,,,,,,,,,,,,,,,,,,,,,,,,,,,,,,,,,,,,,,,,,,,,,,,,,,,,,,,,,,,,
,,,,476264,001,2023-10-24_21h31.16.689,fluency,2022.2.5,Win32,60.77549532,,,,,,,,,,,,,,,,,,,,,,,,,,,,,,,,,,,,,,,,,,,,,,,,,,,,,,,,,,,,,,,,,,,,,,,,,,,,,,,,,,0,0,0,0,1,,"[""j""]",[1.0187999999989188],1,"[""j"",""2""]","[1.0187999999989188,1.860400000000368]",,,,,,,,,,,,,,,,,,,,,,,,,,,,,,,,,,,,,,,,,,,,,,,,,,,,,,,,,,,,,,,,,,,,,
,,,,476264,001,2023-10-24_21h31.16.689,fluency,2022.2.5,Win32,60.77549532,,,,,,,,,,,,,,,,,,,,,,,8,3,img/B03_08.jpg,CONTROL,Press J as soon as you see a face, ,JK,,,,,,,,,,,,,,,,,,,,,,,,,,,,,,,,2,0.3511,,,,,,,,,,,,,,0,54,54,30,1,,,,,,,,,,,,,space,1.1069,,,,,,,,,,,,,,,,,,,,,,,,,,,,,,,,,,,,,,,,,,,,,,,,,,,,,,,,,,,,,,,,,,,
,,,,476264,001,2023-10-24_21h31.16.689,fluency,2022.2.5,Win32,60.77549532,,,,,,,,,,,,,,,,,,,,,,,8,4,img/B04_08.jpg,CONTROL,Press J as soon as you see a face, ,JK,,,,,,,,,,,,,,,,,,,,,,,,,,,,,,,,,,,,,,,,,,,,,,595.6732,0,55,55,41,1,109,0,0,0,0,1,98,,,,,,,,,,,,,,,,,,,,,,,,,,,,,,,,,,,,,,,,,,,,,,,,,,,,,,,,,,,,,,,,,,,,,,,,,,
,,,,476264,001,2023-10-24_21h31.16.689,fluency,2022.2.5,Win32,60.77549532,,,,,,,,,,,,,,,,,,,,,,,,,,,,,,,,,,,,,,,,,,,,,,,,,,,,,,,,,,,,,,,,,,,,,,,,,,,,,,,,,,0,0,0,0,1,,"[""j""]",[1.1998000000006641],1,"[""j"",""2""]","[1.1997999999988451,2.0510999999996784]",,,,,,,,,,,,,,,,,,,,,,,,,,,,,,,,,,,,,,,,,,,,,,,,,,,,,,,,,,,,,,,,,,,,,
,,,,476264,001,2023-10-24_21h31.16.689,fluency,2022.2.5,Win32,60.77549532,,,,,,,,,,,,,,,,,,,,,,,8,4,img/B04_08.jpg,CONTROL,Press J as soon as you see a face, ,JK,,,,,,,,,,,,,,,,,,,,,,,,,,,,,,,,2,3.4242,,,,,,,,,,,,,,0,55,55,41,1,,,,,,,,,,,,,space,1.3255,,,,,,,,,,,,,,,,,,,,,,,,,,,,,,,,,,,,,,,,,,,,,,,,,,,,,,,,,,,,,,,,,,,
,,,,476264,001,2023-10-24_21h31.16.689,fluency,2022.2.5,Win32,60.77549532,,,,,,,,,,,,,,,,,,,,,,,2,6,img/B06_02.jpg,CONTROL,Press J as soon as you see a face, ,JK,,,,,,,,,,,,,,,,,,,,,,,,,,,,,,,,,,,,,,,,,,,,,,604.4889,0,56,56,57,1,109,0,0,0,0,1,98,,,,,,,,,,,,,,,,,,,,,,,,,,,,,,,,,,,,,,,,,,,,,,,,,,,,,,,,,,,,,,,,,,,,,,,,,,
,,,,476264,001,2023-10-24_21h31.16.689,fluency,2022.2.5,Win32,60.77549532,,,,,,,,,,,,,,,,,,,,,,,,,,,,,,,,,,,,,,,,,,,,,,,,,,,,,,,,,,,,,,,,,,,,,,,,,,,,,,,,,,0,0,0,0,1,,"[""j""]",[1.0033000000007632],1,"[""j""]",[1.0033000000007632],,,,,,,,,,,,,,,,,,,,,,,,,,,,,,,,,,,,,,,,,,,,,,,,,,,,,,,,,,,,,,,,,,,,,
,,,,476264,001,2023-10-24_21h31.16.689,fluency,2022.2.5,Win32,60.77549532,,,,,,,,,,,,,,,,,,,,,,,2,6,img/B06_02.jpg,CONTROL,Press J as soon as you see a face, ,JK,,,,,,,,,,,,,,,,,,,,,,,,,,,,,,,,2,1.0402,,,,,,,,,,,,,,0,56,56,57,1,,,,,,,,,,,,,space,0.8365,,,,,,,,,,,,,,,,,,,,,,,,,,,,,,,,,,,,,,,,,,,,,,,,,,,,,,,,,,,,,,,,,,,
,,,,476264,001,2023-10-24_21h31.16.689,fluency,2022.2.5,Win32,60.77549532,,,,,,,,,,,,,,,,,,,,,,,1,10,img/B10_01.jpg,CONTROL,Press J as soon as you see a face, ,JK,,,,,,,,,,,,,,,,,,,,,,,,,,,,,,,,,,,,,,,,,,,,,,610.4226,0,57,57,100,1,109,0,0,0,0,1,98,,,,,,,,,,,,,,,,,,,,,,,,,,,,,,,,,,,,,,,,,,,,,,,,,,,,,,,,,,,,,,,,,,,,,,,,,,
,,,,476264,001,2023-10-24_21h31.16.689,fluency,2022.2.5,Win32,60.77549532,,,,,,,,,,,,,,,,,,,,,,,,,,,,,,,,,,,,,,,,,,,,,,,,,,,,,,,,,,,,,,,,,,,,,,,,,,,,,,,,,,0,0,0,0,1,,"[""j""]",[1.4315000000000282],1,"[""j"",""2""]","[1.4314000000003944,2.073099999999613]",,,,,,,,,,,,,,,,,,,,,,,,,,,,,,,,,,,,,,,,,,,,,,,,,,,,,,,,,,,,,,,,,,,,,
,,,,476264,001,2023-10-24_21h31.16.689,fluency,2022.2.5,Win32,60.77549532,,,,,,,,,,,,,,,,,,,,,,,1,10,img/B10_01.jpg,CONTROL,Press J as soon as you see a face, ,JK,,,,,,,,,,,,,,,,,,,,,,,,,,,,,,,,2,1.0065,,,,,,,,,,,,,,0,57,57,100,1,,,,,,,,,,,,,space,1.6672,,,,,,,,,,,,,,,,,,,,,,,,,,,,,,,,,,,,,,,,,,,,,,,,,,,,,,,,,,,,,,,,,,,
,,,,476264,001,2023-10-24_21h31.16.689,fluency,2022.2.5,Win32,60.77549532,,,,,,,,,,,,,,,,,,,,,,,5,10,img/B10_05.jpg,CONTROL,Press J as soon as you see a face, ,JK,,,,,,,,,,,,,,,,,,,,,,,,,,,,,,,,,,,,,,,,,,,,,,618.1552,0,58,58,104,1,109,0,0,0,0,1,98,,,,,,,,,,,,,,,,,,,,,,,,,,,,,,,,,,,,,,,,,,,,,,,,,,,,,,,,,,,,,,,,,,,,,,,,,,
,,,,476264,001,2023-10-24_21h31.16.689,fluency,2022.2.5,Win32,60.77549532,,,,,,,,,,,,,,,,,,,,,,,,,,,,,,,,,,,,,,,,,,,,,,,,,,,,,,,,,,,,,,,,,,,,,,,,,,,,,,,,,,0,0,0,0,1,,"[""j""]",[0.8930999999996629],1,"[""j""]",[0.8930999999996629],,,,,,,,,,,,,,,,,,,,,,,,,,,,,,,,,,,,,,,,,,,,,,,,,,,,,,,,,,,,,,,,,,,,,
,,,,476264,001,2023-10-24_21h31.16.689,fluency,2022.2.5,Win32,60.77549532,,,,,,,,,,,,,,,,,,,,,,,5,10,img/B10_05.jpg,CONTROL,Press J as soon as you see a face, ,JK,,,,,,,,,,,,,,,,,,,,,,,,,,,,,,,,2,0.3639,,,,,,,,,,,,,,0,58,58,104,1,,,,,,,,,,,,,space,0.8597,,,,,,,,,,,,,,,,,,,,,,,,,,,,,,,,,,,,,,,,,,,,,,,,,,,,,,,,,,,,,,,,,,,
,,,,476264,001,2023-10-24_21h31.16.689,fluency,2022.2.5,Win32,60.77549532,,,,,,,,,,,,,,,,,,,,,,,10,10,img/B10_10.jpg,CONTROL,Press J as soon as you see a face, ,JK,,,,,,,,,,,,,,,,,,,,,,,,,,,,,,,,,,,,,,,,,,,,,,623.4219,0,59,59,109,1,109,0,0,0,0,1,98,,,,,,,,,,,,,,,,,,,,,,,,,,,,,,,,,,,,,,,,,,,,,,,,,,,,,,,,,,,,,,,,,,,,,,,,,,
,,,,476264,001,2023-10-24_21h31.16.689,fluency,2022.2.5,Win32,60.77549532,,,,,,,,,,,,,,,,,,,,,,,,,,,,,,,,,,,,,,,,,,,,,,,,,,,,,,,,,,,,,,,,,,,,,,,,,,,,,,,,,,0,0,0,0,1,,"[""j""]",[1.9179000000003725],1,"[""j"",""2""]","[1.9179000000003725,2.3924999999999272]",,,,,,,,,,,,,,,,,,,,,,,,,,,,,,,,,,,,,,,,,,,,,,,,,,,,,,,,,,,,,,,,,,,,,
,,,,476264,001,2023-10-24_21h31.16.689,fluency,2022.2.5,Win32,60.77549532,,,,,,,,,,,,,,,,,,,,,,,10,10,img/B10_10.jpg,CONTROL,Press J as soon as you see a face, ,JK,,,,,,,,,,,,,,,,,,,,,,,,,,,,,,,,2,5.9351,,,,,,,,,,,,,,0,59,59,109,1,,,,,,,,,,,,,space,6.2706,,,,,,,,,,,,,,,,,,,,,,,,,,,,,,,,,,,,,,,,,,,,,,,,,,,,,,,,,,,,,,,,,,,
,,,,476264,001,2023-10-24_21h31.16.689,fluency,2022.2.5,Win32,60.77549532,,,,,,,,,,,,,,,,,,,,,,,3,6,img/B06_03.jpg,CONTROL,Press J as soon as you see a face, ,JK,,,,,,,,,,,,,,,,,,,,,,,,,,,,,,,,,,,,,,,,,,,,,,640.7038,0,60,60,58,1,109,0,0,0,0,1,98,,,,,,,,,,,,,,,,,,,,,,,,,,,,,,,,,,,,,,,,,,,,,,,,,,,,,,,,,,,,,,,,,,,,,,,,,,
,,,,476264,001,2023-10-24_21h31.16.689,fluency,2022.2.5,Win32,60.77549532,,,,,,,,,,,,,,,,,,,,,,,,,,,,,,,,,,,,,,,,,,,,,,,,,,,,,,,,,,,,,,,,,,,,,,,,,,,,,,,,,,0,0,0,0,1,,"[""j""]",[0.8217999999989161],1,"[""j""]",[0.8217999999989161],,,,,,,,,,,,,,,,,,,,,,,,,,,,,,,,,,,,,,,,,,,,,,,,,,,,,,,,,,,,,,,,,,,,,
,,,,476264,001,2023-10-24_21h31.16.689,fluency,2022.2.5,Win32,60.77549532,,,,,,,,,,,,,,,,,,,,,,,3,6,img/B06_03.jpg,CONTROL,Press J as soon as you see a face, ,JK,,,,,,,,,,,,,,,,,,,,,,,,,,,,,,,,2,1.0665,,,,,,,,,,,,,,0,60,60,58,1,,,,,,,,,,,,,space,0.8016,,,,,,,,,,,,,,,,,,,,,,,,,,,,,,,,,,,,,,,,,,,,,,,,,,,,,,,,,,,,,,,,,,,
,,,,476264,001,2023-10-24_21h31.16.689,fluency,2022.2.5,Win32,60.77549532,,,,,,,,,,,,,,,,,,,,,,,9,6,img/B06_09.jpg,CONTROL,Press J as soon as you see a face, ,JK,,,,,,,,,,,,,,,,,,,,,,,,,,,,,,,,,,,,,,,,,,,,,,647.6205,0,61,61,64,1,109,0,0,0,0,1,98,,,,,,,,,,,,,,,,,,,,,,,,,,,,,,,,,,,,,,,,,,,,,,,,,,,,,,,,,,,,,,,,,,,,,,,,,,
,,,,476264,001,2023-10-24_21h31.16.689,fluency,2022.2.5,Win32,60.77549532,,,,,,,,,,,,,,,,,,,,,,,,,,,,,,,,,,,,,,,,,,,,,,,,,,,,,,,,,,,,,,,,,,,,,,,,,,,,,,,,,,0,0,0,0,1,,"[""j""]",[1.183499999999981],1,"[""j"",""1""]","[1.183400000000347,2.47199999999998]",,,,,,,,,,,,,,,,,,,,,,,,,,,,,,,,,,,,,,,,,,,,,,,,,,,,,,,,,,,,,,,,,,,,,
,,,,476264,001,2023-10-24_21h31.16.689,fluency,2022.2.5,Win32,60.77549532,,,,,,,,,,,,,,,,,,,,,,,9,6,img/B06_09.jpg,CONTROL,Press J as soon as you see a face, ,JK,,,,,,,,,,,,,,,,,,,,,,,,,,,,,,,,1,1.1337,,,,,,,,,,,,,,0,61,61,64,1,,,,,,,,,,,,,space,0.7839,,,,,,,,,,,,,,,,,,,,,,,,,,,,,,,,,,,,,,,,,,,,,,,,,,,,,,,,,,,,,,,,,,,
,,,,476264,001,2023-10-24_21h31.16.689,fluency,2022.2.5,Win32,60.77549532,,,,,,,,,,,,,,,,,,,,,,,10,5,img/B05_10.jpg,CONTROL,Press J as soon as you see a face, ,JK,,,,,,,,,,,,,,,,,,,,,,,,,,,,,,,,,,,,,,,,,,,,,,654.5869,0,62,62,54,1,109,0,0,0,0,1,98,,,,,,,,,,,,,,,,,,,,,,,,,,,,,,,,,,,,,,,,,,,,,,,,,,,,,,,,,,,,,,,,,,,,,,,,,,
,,,,476264,001,2023-10-24_21h31.16.689,fluency,2022.2.5,Win32,60.77549532,,,,,,,,,,,,,,,,,,,,,,,,,,,,,,,,,,,,,,,,,,,,,,,,,,,,,,,,,,,,,,,,,,,,,,,,,,,,,,,,,,0,0,0,0,1,,"[""j""]",[1.3914999999999509],1,"[""j""]",[1.391399999998498],,,,,,,,,,,,,,,,,,,,,,,,,,,,,,,,,,,,,,,,,,,,,,,,,,,,,,,,,,,,,,,,,,,,,
,,,,476264,001,2023-10-24_21h31.16.689,fluency,2022.2.5,Win32,60.77549532,,,,,,,,,,,,,,,,,,,,,,,10,5,img/B05_10.jpg,CONTROL,Press J as soon as you see a face, ,JK,,,,,,,,,,,,,,,,,,,,,,,,,,,,,,,,2,0.9576,,,,,,,,,,,,,,0,62,62,54,1,,,,,,,,,,,,,space,1.4999,,,,,,,,,,,,,,,,,,,,,,,,,,,,,,,,,,,,,,,,,,,,,,,,,,,,,,,,,,,,,,,,,,,
,,,,476264,001,2023-10-24_21h31.16.689,fluency,2022.2.5,Win32,60.77549532,,,,,,,,,,,,,,,,,,,,,,,4,2,img/B02_04.jpg,CONTROL,Press J as soon as you see a face, ,JK,,,,,,,,,,,,,,,,,,,,,,,,,,,,,,,,,,,,,,,,,,,,,,661.0868,0,63,63,15,1,109,0,0,0,0,1,98,,,,,,,,,,,,,,,,,,,,,,,,,,,,,,,,,,,,,,,,,,,,,,,,,,,,,,,,,,,,,,,,,,,,,,,,,,
,,,,476264,001,2023-10-24_21h31.16.689,fluency,2022.2.5,Win32,60.77549532,,,,,,,,,,,,,,,,,,,,,,,,,,,,,,,,,,,,,,,,,,,,,,,,,,,,,,,,,,,,,,,,,,,,,,,,,,,,,,,,,,0,0,0,0,1,,"[""j""]",[1.3144000000003189],1,"[""j"",""1"",""space""]","[1.314299999998866,2.119199999999296,2.8026999999992768]",,,,,,,,,,,,,,,,,,,,,,,,,,,,,,,,,,,,,,,,,,,,,,,,,,,,,,,,,,,,,,,,,,,,,
,,,,476264,001,2023-10-24_21h31.16.689,fluency,2022.2.5,Win32,60.77549532,,,,,,,,,,,,,,,,,,,,,,,4,2,img/B02_04.jpg,CONTROL,Press J as soon as you see a face, ,JK,,,,,,,,,,,,,,,,,,,,,,,,,,,,,,,,2,1.9778,,,,,,,,,,,,,,0,63,63,15,1,,,,,,,,,,,,,space,1.1696,,,,,,,,,,,,,,,,,,,,,,,,,,,,,,,,,,,,,,,,,,,,,,,,,,,,,,,,,,,,,,,,,,,
,,,,476264,001,2023-10-24_21h31.16.689,fluency,2022.2.5,Win32,60.77549532,,,,,,,,,,,,,,,,,,,,,,,10,8,img/B08_10.jpg,CONTROL,Press J as soon as you see a face, ,JK,,,,,,,,,,,,,,,,,,,,,,,,,,,,,,,,,,,,,,,,,,,,,,669.3057,0,64,64,87,1,109,0,0,0,0,1,98,,,,,,,,,,,,,,,,,,,,,,,,,,,,,,,,,,,,,,,,,,,,,,,,,,,,,,,,,,,,,,,,,,,,,,,,,,
,,,,476264,001,2023-10-24_21h31.16.689,fluency,2022.2.5,Win32,60.77549532,,,,,,,,,,,,,,,,,,,,,,,,,,,,,,,,,,,,,,,,,,,,,,,,,,,,,,,,,,,,,,,,,,,,,,,,,,,,,,,,,,0,0,0,0,1,,"[""j""]",[0.9280999999996311],1,"[""j""]",[0.9280999999996311],,,,,,,,,,,,,,,,,,,,,,,,,,,,,,,,,,,,,,,,,,,,,,,,,,,,,,,,,,,,,,,,,,,,,
,,,,476264,001,2023-10-24_21h31.16.689,fluency,2022.2.5,Win32,60.77549532,,,,,,,,,,,,,,,,,,,,,,,10,8,img/B08_10.jpg,CONTROL,Press J as soon as you see a face, ,JK,,,,,,,,,,,,,,,,,,,,,,,,,,,,,,,,2,0.6446,,,,,,,,,,,,,,0,64,64,87,1,,,,,,,,,,,,,space,0.6994,,,,,,,,,,,,,,,,,,,,,,,,,,,,,,,,,,,,,,,,,,,,,,,,,,,,,,,,,,,,,,,,,,,
,,,,476264,001,2023-10-24_21h31.16.689,fluency,2022.2.5,Win32,60.77549532,,,,,,,,,,,,,,,,,,,,,,,3,1,img/B01_03.jpg,CONTROL,Press J as soon as you see a face, ,JK,,,,,,,,,,,,,,,,,,,,,,,,,,,,,,,,,,,,,,,,,,,,,,674.7029,0,65,65,3,1,109,0,0,0,0,1,98,,,,,,,,,,,,,,,,,,,,,,,,,,,,,,,,,,,,,,,,,,,,,,,,,,,,,,,,,,,,,,,,,,,,,,,,,,
,,,,476264,001,2023-10-24_21h31.16.689,fluency,2022.2.5,Win32,60.77549532,,,,,,,,,,,,,,,,,,,,,,,,,,,,,,,,,,,,,,,,,,,,,,,,,,,,,,,,,,,,,,,,,,,,,,,,,,,,,,,,,,0,0,0,0,1,,"[""j""]",[1.2835000000000036],1,"[""j"",""3""]","[1.2835000000000036,2.7830000000000155]",,,,,,,,,,,,,,,,,,,,,,,,,,,,,,,,,,,,,,,,,,,,,,,,,,,,,,,,,,,,,,,,,,,,,
,,,,476264,001,2023-10-24_21h31.16.689,fluency,2022.2.5,Win32,60.77549532,,,,,,,,,,,,,,,,,,,,,,,3,1,img/B01_03.jpg,CONTROL,Press J as soon as you see a face, ,JK,,,,,,,,,,,,,,,,,,,,,,,,,,,,,,,,3,2.9925,,,,,,,,,,,,,,0,65,65,3,1,,,,,,,,,,,,,space,0.7661,,,,,,,,,,,,,,,,,,,,,,,,,,,,,,,,,,,,,,,,,,,,,,,,,,,,,,,,,,,,,,,,,,,
,,,,476264,001,2023-10-24_21h31.16.689,fluency,2022.2.5,Win32,60.77549532,,,,,,,,,,,,,,,,,,,,,,,5,8,img/B08_05.jpg,CONTROL,Press J as soon as you see a face, ,JK,,,,,,,,,,,,,,,,,,,,,,,,,,,,,,,,,,,,,,,,,,,,,,682.5511,0,66,66,82,1,109,0,0,0,0,1,98,,,,,,,,,,,,,,,,,,,,,,,,,,,,,,,,,,,,,,,,,,,,,,,,,,,,,,,,,,,,,,,,,,,,,,,,,,
,,,,476264,001,2023-10-24_21h31.16.689,fluency,2022.2.5,Win32,60.77549532,,,,,,,,,,,,,,,,,,,,,,,,,,,,,,,,,,,,,,,,,,,,,,,,,,,,,,,,,,,,,,,,,,,,,,,,,,,,,,,,,,0,0,0,0,1,,"[""j""]",[1.0418999999985772],1,"[""j"",""2""]","[1.0417999999989433,1.5900999999996657]",,,,,,,,,,,,,,,,,,,,,,,,,,,,,,,,,,,,,,,,,,,,,,,,,,,,,,,,,,,,,,,,,,,,,
,,,,476264,001,2023-10-24_21h31.16.689,fluency,2022.2.5,Win32,60.77549532,,,,,,,,,,,,,,,,,,,,,,,5,8,img/B08_05.jpg,CONTROL,Press J as soon as you see a face, ,JK,,,,,,,,,,,,,,,,,,,,,,,,,,,,,,,,2,0.7988,,,,,,,,,,,,,,0,66,66,82,1,,,,,,,,,,,,,space,0.3383,,,,,,,,,,,,,,,,,,,,,,,,,,,,,,,,,,,,,,,,,,,,,,,,,,,,,,,,,,,,,,,,,,,
,,,,476264,001,2023-10-24_21h31.16.689,fluency,2022.2.5,Win32,60.77549532,,,,,,,,,,,,,,,,,,,,,,,5,9,img/B09_05.jpg,CONTROL,Press J as soon as you see a face, ,JK,,,,,,,,,,,,,,,,,,,,,,,,,,,,,,,,,,,,,,,,,,,,,,687.7681,0,67,67,93,1,109,0,0,0,0,1,98,,,,,,,,,,,,,,,,,,,,,,,,,,,,,,,,,,,,,,,,,,,,,,,,,,,,,,,,,,,,,,,,,,,,,,,,,,
,,,,476264,001,2023-10-24_21h31.16.689,fluency,2022.2.5,Win32,60.77549532,,,,,,,,,,,,,,,,,,,,,,,,,,,,,,,,,,,,,,,,,,,,,,,,,,,,,,,,,,,,,,,,,,,,,,,,,,,,,,,,,,0,0,0,0,1,,"[""j""]",[0.9696999999991931],1,"[""j"",""2"",""space""]","[0.9695999999995593,1.753699999999185,2.3214000000003807]",,,,,,,,,,,,,,,,,,,,,,,,,,,,,,,,,,,,,,,,,,,,,,,,,,,,,,,,,,,,,,,,,,,,,
,,,,476264,001,2023-10-24_21h31.16.689,fluency,2022.2.5,Win32,60.77549532,,,,,,,,,,,,,,,,,,,,,,,5,9,img/B09_05.jpg,CONTROL,Press J as soon as you see a face, ,JK,,,,,,,,,,,,,,,,,,,,,,,,,,,,,,,,2,1.956,,,,,,,,,,,,,,0,67,67,93,1,,,,,,,,,,,,,space,0.9687,,,,,,,,,,,,,,,,,,,,,,,,,,,,,,,,,,,,,,,,,,,,,,,,,,,,,,,,,,,,,,,,,,,
,,,,476264,001,2023-10-24_21h31.16.689,fluency,2022.2.5,Win32,60.77549532,,,,,,,,,,,,,,,,,,,,,,,1,8,img/B08_01.jpg,CONTROL,Press J as soon as you see a face, ,JK,,,,,,,,,,,,,,,,,,,,,,,,,,,,,,,,,,,,,,,,,,,,,,694.7841,0,68,68,78,1,109,0,0,0,0,1,98,,,,,,,,,,,,,,,,,,,,,,,,,,,,,,,,,,,,,,,,,,,,,,,,,,,,,,,,,,,,,,,,,,,,,,,,,,
,,,,476264,001,2023-10-24_21h31.16.689,fluency,2022.2.5,Win32,60.77549532,,,,,,,,,,,,,,,,,,,,,,,,,,,,,,,,,,,,,,,,,,,,,,,,,,,,,,,,,,,,,,,,,,,,,,,,,,,,,,,,,,0,0,0,0,1,,"[""j""]",[0.9318000000007487],1,"[""j"",""2"",""space""]","[0.9318000000007487,1.9647000000011303,2.8227000000010776]",,,,,,,,,,,,,,,,,,,,,,,,,,,,,,,,,,,,,,,,,,,,,,,,,,,,,,,,,,,,,,,,,,,,,
,,,,476264,001,2023-10-24_21h31.16.689,fluency,2022.2.5,Win32,60.77549532,,,,,,,,,,,,,,,,,,,,,,,1,8,img/B08_01.jpg,CONTROL,Press J as soon as you see a face, ,JK,,,,,,,,,,,,,,,,,,,,,,,,,,,,,,,,2,2.0473,,,,,,,,,,,,,,0,68,68,78,1,,,,,,,,,,,,,space,1.071,,,,,,,,,,,,,,,,,,,,,,,,,,,,,,,,,,,,,,,,,,,,,,,,,,,,,,,,,,,,,,,,,,,
,,,,476264,001,2023-10-24_21h31.16.689,fluency,2022.2.5,Win32,60.77549532,,,,,,,,,,,,,,,,,,,,,,,10,2,img/B02_10.jpg,CONTROL,Press J as soon as you see a face, ,JK,,,,,,,,,,,,,,,,,,,,,,,,,,,,,,,,,,,,,,,,,,,,,,703.0633,0,69,69,21,1,109,0,0,0,0,1,98,,,,,,,,,,,,,,,,,,,,,,,,,,,,,,,,,,,,,,,,,,,,,,,,,,,,,,,,,,,,,,,,,,,,,,,,,,
,,,,476264,001,2023-10-24_21h31.16.689,fluency,2022.2.5,Win32,60.77549532,,,,,,,,,,,,,,,,,,,,,,,,,,,,,,,,,,,,,,,,,,,,,,,,,,,,,,,,,,,,,,,,,,,,,,,,,,,,,,,,,,,,,,,,,,2,,,,,space,1.8812,0,0,0,0,1,,,,,,,,,,,,,,,,,,,,,,,,,,,,,,,,,,,,,,,,,,,,,,,,,,,,,,,,,,,,
,,,,476264,001,2023-10-24_21h31.16.689,fluency,2022.2.5,Win32,60.77549532,,,,,,,,,,,,,,,,,,,,,,,,,,,,,,,,,,,,,,,,,,,,,,,,,,,,,,,,,,,,,,,,,,,,,,,,,,,,,,,,,,0,0,0,0,1,,,,,,,,,,,,,,,,,,,,,,,,,,,,,,,,,,,,,,,,,,,,,,,,,,,,,,,,,,,,,,,,,,,,,,,,,,,
,,,,476264,001,2023-10-24_21h31.16.689,fluency,2022.2.5,Win32,60.77549532,,,,,,,,,,,,,,,,,,,,,,,10,2,img/B02_10.jpg,CONTROL,Press J as soon as you see a face, ,JK,,,,,,,,,,,,,,,,,,,,,,,,,,,,,,,,,,,,,,,,,,,,,,710.0009,0,69,69,21,1,109,1,0,1,0,1,98,,,,,,,,,,,,,,,,,,,,,,,,,,,,,,,,,,,,,,,,,,,,,,,,,,,,,,,,,,,,,,,,,,,,,,,,,,
,,,,476264,001,2023-10-24_21h31.16.689,fluency,2022.2.5,Win32,60.77549532,,,,,,,,,,,,,,,,,,,,,,,,,,,,,,,,,,,,,,,,,,,,,,,,,,,,,,,,,,,,,,,,,,,,,,,,,,,,,,,,,,1,0,1,0,1,,"[""j""]",[0.4620999999996229],2,"[""j""]",[0.46190000000035525],,,,,,,,,,,,,,,,,,,,,,,,,,,,,,,,,,,,,,,,,,,,,,,,,,,,,,,,,,,,,,,,,,,,,
,,,,476264,001,2023-10-24_21h31.16.689,fluency,2022.2.5,Win32,60.77549532,,,,,,,,,,,,,,,,,,,,,,,10,2,img/B02_10.jpg,CONTROL,Press J as soon as you see a face, ,JK,,,,,,,,,,,,,,,,,,,,,,,,,,,,,,,,2,0.867,,,,,,,,,,,,,,0,69,69,21,1,,,,,,,,,,,,,space,0.9979,,,,,,,,,,,,,,,,,,,,,,,,,,,,,,,,,,,,,,,,,,,,,,,,,,,,,,,,,,,,,,,,,,,
,,,,476264,001,2023-10-24_21h31.16.689,fluency,2022.2.5,Win32,60.77549532,,,,,,,,,,,,,,,,,,,,,,,7,8,img/B08_07.jpg,CONTROL,Press J as soon as you see a face, ,JK,,,,,,,,,,,,,,,,,,,,,,,,,,,,,,,,,,,,,,,,,,,,,,715.9711,0,70,70,84,1,109,0,0,0,0,1,98,,,,,,,,,,,,,,,,,,,,,,,,,,,,,,,,,,,,,,,,,,,,,,,,,,,,,,,,,,,,,,,,,,,,,,,,,,
,,,,476264,001,2023-10-24_21h31.16.689,fluency,2022.2.5,Win32,60.77549532,,,,,,,,,,,,,,,,,,,,,,,,,,,,,,,,,,,,,,,,,,,,,,,,,,,,,,,,,,,,,,,,,,,,,,,,,,,,,,,,,,0,0,0,0,1,,"[""j""]",[0.8390999999995756],2,"[""j"",""2""]","[0.8389999999999418,1.8479000000003225]",,,,,,,,,,,,,,,,,,,,,,,,,,,,,,,,,,,,,,,,,,,,,,,,,,,,,,,,,,,,,,,,,,,,,
,,,,476264,001,2023-10-24_21h31.16.689,fluency,2022.2.5,Win32,60.77549532,,,,,,,,,,,,,,,,,,,,,,,7,8,img/B08_07.jpg,CONTROL,Press J as soon as you see a face, ,JK,,,,,,,,,,,,,,,,,,,,,,,,,,,,,,,,2,0.6813,,,,,,,,,,,,,,0,70,70,84,1,,,,,,,,,,,,,space,1.7163,,,,,,,,,,,,,,,,,,,,,,,,,,,,,,,,,,,,,,,,,,,,,,,,,,,,,,,,,,,,,,,,,,,
,,,,476264,001,2023-10-24_21h31.16.689,fluency,2022.2.5,Win32,60.77549532,,,,,,,,,,,,,,,,,,,,,,,9,9,img/B09_09.jpg,CONTROL,Press J as soon as you see a face, ,JK,,,,,,,,,,,,,,,,,,,,,,,,,,,,,,,,,,,,,,,,,,,,,,723.4335,0,71,71,97,1,109,0,0,0,0,1,98,,,,,,,,,,,,,,,,,,,,,,,,,,,,,,,,,,,,,,,,,,,,,,,,,,,,,,,,,,,,,,,,,,,,,,,,,,
,,,,476264,001,2023-10-24_21h31.16.689,fluency,2022.2.5,Win32,60.77549532,,,,,,,,,,,,,,,,,,,,,,,,,,,,,,,,,,,,,,,,,,,,,,,,,,,,,,,,,,,,,,,,,,,,,,,,,,,,,,,,,,0,0,0,0,1,,"[""j""]",[0.8618000000006987],2,"[""j"",""2""]","[0.8618000000006987,1.6813000000007605]",,,,,,,,,,,,,,,,,,,,,,,,,,,,,,,,,,,,,,,,,,,,,,,,,,,,,,,,,,,,,,,,,,,,,
,,,,476264,001,2023-10-24_21h31.16.689,fluency,2022.2.5,Win32,60.77549532,,,,,,,,,,,,,,,,,,,,,,,9,9,img/B09_09.jpg,CONTROL,Press J as soon as you see a face, ,JK,,,,,,,,,,,,,,,,,,,,,,,,,,,,,,,,2,3.2036,,,,,,,,,,,,,,0,71,71,97,1,,,,,,,,,,,,,space,2.5695,,,,,,,,,,,,,,,,,,,,,,,,,,,,,,,,,,,,,,,,,,,,,,,,,,,,,,,,,,,,,,,,,,,
,,,,476264,001,2023-10-24_21h31.16.689,fluency,2022.2.5,Win32,60.77549532,,,,,,,,,,,,,,,,,,,,,,,2,7,img/B07_02.jpg,CONTROL,Press J as soon as you see a face, ,JK,,,,,,,,,,,,,,,,,,,,,,,,,,,,,,,,,,,,,,,,,,,,,,733.2979,0,72,72,68,1,109,0,0,0,0,1,98,,,,,,,,,,,,,,,,,,,,,,,,,,,,,,,,,,,,,,,,,,,,,,,,,,,,,,,,,,,,,,,,,,,,,,,,,,
,,,,476264,001,2023-10-24_21h31.16.689,fluency,2022.2.5,Win32,60.77549532,,,,,,,,,,,,,,,,,,,,,,,,,,,,,,,,,,,,,,,,,,,,,,,,,,,,,,,,,,,,,,,,,,,,,,,,,,,,,,,,,,0,0,0,0,1,,"[""j""]",[1.2701000000015483],2,"[""j"",""2""]","[1.2701000000015483,1.9841000000014901]",,,,,,,,,,,,,,,,,,,,,,,,,,,,,,,,,,,,,,,,,,,,,,,,,,,,,,,,,,,,,,,,,,,,,
,,,,476264,001,2023-10-24_21h31.16.689,fluency,2022.2.5,Win32,60.77549532,,,,,,,,,,,,,,,,,,,,,,,2,7,img/B07_02.jpg,CONTROL,Press J as soon as you see a face, ,JK,,,,,,,,,,,,,,,,,,,,,,,,,,,,,,,,2,6.3708,,,,,,,,,,,,,,0,72,72,68,1,,,,,,,,,,,,,space,34.4547,,,,,,,,,,,,,,,,,,,,,,,,,,,,,,,,,,,,,,,,,,,,,,,,,,,,,,,,,,,,,,,,,,,
,,,,476264,001,2023-10-24_21h31.16.689,fluency,2022.2.5,Win32,60.77549532,,,,,,,,,,,,,,,,,,,,,,,0,6,img/B06_00.jpg,CONTROL,Press J as soon as you see a face, ,JK,,,,,,,,,,,,,,,,,,,,,,,,,,,,,,,,,,,,,,,,,,,,,,779.2003,0,73,73,55,1,109,0,0,0,0,1,98,,,,,,,,,,,,,,,,,,,,,,,,,,,,,,,,,,,,,,,,,,,,,,,,,,,,,,,,,,,,,,,,,,,,,,,,,,
,,,,476264,001,2023-10-24_21h31.16.689,fluency,2022.2.5,Win32,60.77549532,,,,,,,,,,,,,,,,,,,,,,,,,,,,,,,,,,,,,,,,,,,,,,,,,,,,,,,,,,,,,,,,,,,,,,,,,,,,,,,,,,0,0,0,0,1,,"[""j""]",[0.9884999999999309],2,"[""j""]",[0.9885000000000446],,,,,,,,,,,,,,,,,,,,,,,,,,,,,,,,,,,,,,,,,,,,,,,,,,,,,,,,,,,,,,,,,,,,,
,,,,476264,001,2023-10-24_21h31.16.689,fluency,2022.2.5,Win32,60.77549532,,,,,,,,,,,,,,,,,,,,,,,0,6,img/B06_00.jpg,CONTROL,Press J as soon as you see a face, ,JK,,,,,,,,,,,,,,,,,,,,,,,,,,,,,,,,2,0.9422,,,,,,,,,,,,,,0,73,73,55,1,,,,,,,,,,,,,space,1.2916,,,,,,,,,,,,,,,,,,,,,,,,,,,,,,,,,,,,,,,,,,,,,,,,,,,,,,,,,,,,,,,,,,,
,,,,476264,001,2023-10-24_21h31.16.689,fluency,2022.2.5,Win32,60.77549532,,,,,,,,,,,,,,,,,,,,,,,9,3,img/B03_09.jpg,CONTROL,Press J as soon as you see a face, ,JK,,,,,,,,,,,,,,,,,,,,,,,,,,,,,,,,,,,,,,,,,,,,,,786.4958,0,74,74,31,1,109,0,0,0,0,1,98,,,,,,,,,,,,,,,,,,,,,,,,,,,,,,,,,,,,,,,,,,,,,,,,,,,,,,,,,,,,,,,,,,,,,,,,,,
,,,,476264,001,2023-10-24_21h31.16.689,fluency,2022.2.5,Win32,60.77549532,,,,,,,,,,,,,,,,,,,,,,,,,,,,,,,,,,,,,,,,,,,,,,,,,,,,,,,,,,,,,,,,,,,,,,,,,,,,,,,,,,0,0,0,0,1,,"[""j""]",[1.1456999999992377],2,"[""j""]",[1.1456999999992377],,,,,,,,,,,,,,,,,,,,,,,,,,,,,,,,,,,,,,,,,,,,,,,,,,,,,,,,,,,,,,,,,,,,,
,,,,476264,001,2023-10-24_21h31.16.689,fluency,2022.2.5,Win32,60.77549532,,,,,,,,,,,,,,,,,,,,,,,9,3,img/B03_09.jpg,CONTROL,Press J as soon as you see a face, ,JK,,,,,,,,,,,,,,,,,,,,,,,,,,,,,,,,2,1.0859,,,,,,,,,,,,,,0,74,74,31,1,,,,,,,,,,,,,space,0.9004,,,,,,,,,,,,,,,,,,,,,,,,,,,,,,,,,,,,,,,,,,,,,,,,,,,,,,,,,,,,,,,,,,,
,,,,476264,001,2023-10-24_21h31.16.689,fluency,2022.2.5,Win32,60.77549532,,,,,,,,,,,,,,,,,,,,,,,8,10,img/B10_08.jpg,CONTROL,Press J as soon as you see a face, ,JK,,,,,,,,,,,,,,,,,,,,,,,,,,,,,,,,,,,,,,,,,,,,,,793.5605,0,75,75,107,1,109,0,0,0,0,1,98,,,,,,,,,,,,,,,,,,,,,,,,,,,,,,,,,,,,,,,,,,,,,,,,,,,,,,,,,,,,,,,,,,,,,,,,,,
,,,,476264,001,2023-10-24_21h31.16.689,fluency,2022.2.5,Win32,60.77549532,,,,,,,,,,,,,,,,,,,,,,,,,,,,,,,,,,,,,,,,,,,,,,,,,,,,,,,,,,,,,,,,,,,,,,,,,,,,,,,,,,0,0,0,0,1,,"[""j""]",[1.4424999999999955],2,"[""j""]",[1.4424999999999955],,,,,,,,,,,,,,,,,,,,,,,,,,,,,,,,,,,,,,,,,,,,,,,,,,,,,,,,,,,,,,,,,,,,,
,,,,476264,001,2023-10-24_21h31.16.689,fluency,2022.2.5,Win32,60.77549532,,,,,,,,,,,,,,,,,,,,,,,8,10,img/B10_08.jpg,CONTROL,Press J as soon as you see a face, ,JK,,,,,,,,,,,,,,,,,,,,,,,,,,,,,,,,2,2.663,,,,,,,,,,,,,,0,75,75,107,1,,,,,,,,,,,,,space,3.0171,,,,,,,,,,,,,,,,,,,,,,,,,,,,,,,,,,,,,,,,,,,,,,,,,,,,,,,,,,,,,,,,,,,
,,,,476264,001,2023-10-24_21h31.16.689,fluency,2022.2.5,Win32,60.77549532,,,,,,,,,,,,,,,,,,,,,,,8,6,img/B06_08.jpg,CONTROL,Press J as soon as you see a face, ,JK,,,,,,,,,,,,,,,,,,,,,,,,,,,,,,,,,,,,,,,,,,,,,,803.3101,0,76,76,63,1,109,0,0,0,0,1,98,,,,,,,,,,,,,,,,,,,,,,,,,,,,,,,,,,,,,,,,,,,,,,,,,,,,,,,,,,,,,,,,,,,,,,,,,,
,,,,476264,001,2023-10-24_21h31.16.689,fluency,2022.2.5,Win32,60.77549532,,,,,,,,,,,,,,,,,,,,,,,,,,,,,,,,,,,,,,,,,,,,,,,,,,,,,,,,,,,,,,,,,,,,,,,,,,,,,,,,,,0,0,0,0,1,,"[""j""]",[0.6988000000008014],2,"[""j""]",[0.6987000000011676],,,,,,,,,,,,,,,,,,,,,,,,,,,,,,,,,,,,,,,,,,,,,,,,,,,,,,,,,,,,,,,,,,,,,
,,,,476264,001,2023-10-24_21h31.16.689,fluency,2022.2.5,Win32,60.77549532,,,,,,,,,,,,,,,,,,,,,,,8,6,img/B06_08.jpg,CONTROL,Press J as soon as you see a face, ,JK,,,,,,,,,,,,,,,,,,,,,,,,,,,,,,,,2,1.1972,,,,,,,,,,,,,,0,76,76,63,1,,,,,,,,,,,,,space,1.0562,,,,,,,,,,,,,,,,,,,,,,,,,,,,,,,,,,,,,,,,,,,,,,,,,,,,,,,,,,,,,,,,,,,
,,,,476264,001,2023-10-24_21h31.16.689,fluency,2022.2.5,Win32,60.77549532,,,,,,,,,,,,,,,,,,,,,,,4,4,img/B04_04.jpg,CONTROL,Press J as soon as you see a face, ,JK,,,,,,,,,,,,,,,,,,,,,,,,,,,,,,,,,,,,,,,,,,,,,,809.6435,0,77,77,37,1,109,0,0,0,0,1,98,,,,,,,,,,,,,,,,,,,,,,,,,,,,,,,,,,,,,,,,,,,,,,,,,,,,,,,,,,,,,,,,,,,,,,,,,,
,,,,476264,001,2023-10-24_21h31.16.689,fluency,2022.2.5,Win32,60.77549532,,,,,,,,,,,,,,,,,,,,,,,,,,,,,,,,,,,,,,,,,,,,,,,,,,,,,,,,,,,,,,,,,,,,,,,,,,,,,,,,,,0,0,0,0,1,,"[""j""]",[1.7919000000003962],2,"[""j""]",[1.7919000000003962],,,,,,,,,,,,,,,,,,,,,,,,,,,,,,,,,,,,,,,,,,,,,,,,,,,,,,,,,,,,,,,,,,,,,
,,,,476264,001,2023-10-24_21h31.16.689,fluency,2022.2.5,Win32,60.77549532,,,,,,,,,,,,,,,,,,,,,,,4,4,img/B04_04.jpg,CONTROL,Press J as soon as you see a face, ,JK,,,,,,,,,,,,,,,,,,,,,,,,,,,,,,,,2,0.4197,,,,,,,,,,,,,,0,77,77,37,1,,,,,,,,,,,,,space,1.0672,,,,,,,,,,,,,,,,,,,,,,,,,,,,,,,,,,,,,,,,,,,,,,,,,,,,,,,,,,,,,,,,,,,
,,,,476264,001,2023-10-24_21h31.16.689,fluency,2022.2.5,Win32,60.77549532,,,,,,,,,,,,,,,,,,,,,,,4,10,img/B10_04.jpg,CONTROL,Press J as soon as you see a face, ,JK,,,,,,,,,,,,,,,,,,,,,,,,,,,,,,,,,,,,,,,,,,,,,,816.1931,0,78,78,103,1,109,0,0,0,0,1,98,,,,,,,,,,,,,,,,,,,,,,,,,,,,,,,,,,,,,,,,,,,,,,,,,,,,,,,,,,,,,,,,,,,,,,,,,,
,,,,476264,001,2023-10-24_21h31.16.689,fluency,2022.2.5,Win32,60.77549532,,,,,,,,,,,,,,,,,,,,,,,,,,,,,,,,,,,,,,,,,,,,,,,,,,,,,,,,,,,,,,,,,,,,,,,,,,,,,,,,,,0,0,0,0,1,,"[""j""]",[1.0191999999992731],2,"[""j""]",[1.0191999999992731],,,,,,,,,,,,,,,,,,,,,,,,,,,,,,,,,,,,,,,,,,,,,,,,,,,,,,,,,,,,,,,,,,,,,
,,,,476264,001,2023-10-24_21h31.16.689,fluency,2022.2.5,Win32,60.77549532,,,,,,,,,,,,,,,,,,,,,,,4,10,img/B10_04.jpg,CONTROL,Press J as soon as you see a face, ,JK,,,,,,,,,,,,,,,,,,,,,,,,,,,,,,,,2,0.9249,,,,,,,,,,,,,,0,78,78,103,1,,,,,,,,,,,,,space,1.7179,,,,,,,,,,,,,,,,,,,,,,,,,,,,,,,,,,,,,,,,,,,,,,,,,,,,,,,,,,,,,,,,,,,
,,,,476264,001,2023-10-24_21h31.16.689,fluency,2022.2.5,Win32,60.77549532,,,,,,,,,,,,,,,,,,,,,,,3,2,img/B02_03.jpg,CONTROL,Press J as soon as you see a face, ,JK,,,,,,,,,,,,,,,,,,,,,,,,,,,,,,,,,,,,,,,,,,,,,,822.8927,0,79,79,14,1,109,0,0,0,0,1,98,,,,,,,,,,,,,,,,,,,,,,,,,,,,,,,,,,,,,,,,,,,,,,,,,,,,,,,,,,,,,,,,,,,,,,,,,,
,,,,476264,001,2023-10-24_21h31.16.689,fluency,2022.2.5,Win32,60.77549532,,,,,,,,,,,,,,,,,,,,,,,,,,,,,,,,,,,,,,,,,,,,,,,,,,,,,,,,,,,,,,,,,,,,,,,,,,,,,,,,,,0,0,0,0,1,,"[""j""]",[0.7506000000015547],2,"[""j"",""2""]","[0.7506000000015547,1.5821000000015601]",,,,,,,,,,,,,,,,,,,,,,,,,,,,,,,,,,,,,,,,,,,,,,,,,,,,,,,,,,,,,,,,,,,,,
,,,,476264,001,2023-10-24_21h31.16.689,fluency,2022.2.5,Win32,60.77549532,,,,,,,,,,,,,,,,,,,,,,,3,2,img/B02_03.jpg,CONTROL,Press J as soon as you see a face, ,JK,,,,,,,,,,,,,,,,,,,,,,,,,,,,,,,,2,1.1559,,,,,,,,,,,,,,0,79,79,14,1,,,,,,,,,,,,,space,2.3163,,,,,,,,,,,,,,,,,,,,,,,,,,,,,,,,,,,,,,,,,,,,,,,,,,,,,,,,,,,,,,,,,,,
,,,,476264,001,2023-10-24_21h31.16.689,fluency,2022.2.5,Win32,60.77549532,,,,,,,,,,,,,,,,,,,,,,,3,4,img/B04_03.jpg,CONTROL,Press J as soon as you see a face, ,JK,,,,,,,,,,,,,,,,,,,,,,,,,,,,,,,,,,,,,,,,,,,,,,830.4419,0,80,80,36,1,109,0,0,0,0,1,98,,,,,,,,,,,,,,,,,,,,,,,,,,,,,,,,,,,,,,,,,,,,,,,,,,,,,,,,,,,,,,,,,,,,,,,,,,
,,,,476264,001,2023-10-24_21h31.16.689,fluency,2022.2.5,Win32,60.77549532,,,,,,,,,,,,,,,,,,,,,,,,,,,,,,,,,,,,,,,,,,,,,,,,,,,,,,,,,,,,,,,,,,,,,,,,,,,,,,,,,,0,0,0,0,1,,"[""j""]",[0.8204000000004044],2,"[""j""]",[0.8204000000004044],,,,,,,,,,,,,,,,,,,,,,,,,,,,,,,,,,,,,,,,,,,,,,,,,,,,,,,,,,,,,,,,,,,,,
,,,,476264,001,2023-10-24_21h31.16.689,fluency,2022.2.5,Win32,60.77549532,,,,,,,,,,,,,,,,,,,,,,,3,4,img/B04_03.jpg,CONTROL,Press J as soon as you see a face, ,JK,,,,,,,,,,,,,,,,,,,,,,,,,,,,,,,,2,1.3002,,,,,,,,,,,,,,0,80,80,36,1,,,,,,,,,,,,,space,0.843,,,,,,,,,,,,,,,,,,,,,,,,,,,,,,,,,,,,,,,,,,,,,,,,,,,,,,,,,,,,,,,,,,,
,,,,476264,001,2023-10-24_21h31.16.689,fluency,2022.2.5,Win32,60.77549532,,,,,,,,,,,,,,,,,,,,,,,4,1,img/B01_04.jpg,CONTROL,Press J as soon as you see a face, ,JK,,,,,,,,,,,,,,,,,,,,,,,,,,,,,,,,,,,,,,,,,,,,,,836.6414,0,81,81,4,1,109,0,0,0,0,1,98,,,,,,,,,,,,,,,,,,,,,,,,,,,,,,,,,,,,,,,,,,,,,,,,,,,,,,,,,,,,,,,,,,,,,,,,,,
,,,,476264,001,2023-10-24_21h31.16.689,fluency,2022.2.5,Win32,60.77549532,,,,,,,,,,,,,,,,,,,,,,,,,,,,,,,,,,,,,,,,,,,,,,,,,,,,,,,,,,,,,,,,,,,,,,,,,,,,,,,,,,0,0,0,0,1,,"[""j""]",[0.9678999999985081],2,"[""j""]",[0.9678999999985081],,,,,,,,,,,,,,,,,,,,,,,,,,,,,,,,,,,,,,,,,,,,,,,,,,,,,,,,,,,,,,,,,,,,,
,,,,476264,001,2023-10-24_21h31.16.689,fluency,2022.2.5,Win32,60.77549532,,,,,,,,,,,,,,,,,,,,,,,4,1,img/B01_04.jpg,CONTROL,Press J as soon as you see a face, ,JK,,,,,,,,,,,,,,,,,,,,,,,,,,,,,,,,2,1.5437,,,,,,,,,,,,,,0,81,81,4,1,,,,,,,,,,,,,space,1.3321,,,,,,,,,,,,,,,,,,,,,,,,,,,,,,,,,,,,,,,,,,,,,,,,,,,,,,,,,,,,,,,,,,,
,,,,476264,001,2023-10-24_21h31.16.689,fluency,2022.2.5,Win32,60.77549532,,,,,,,,,,,,,,,,,,,,,,,4,8,img/B08_04.jpg,CONTROL,Press J as soon as you see a face, ,JK,,,,,,,,,,,,,,,,,,,,,,,,,,,,,,,,,,,,,,,,,,,,,,844.5748,0,82,82,81,1,109,0,0,0,0,1,98,,,,,,,,,,,,,,,,,,,,,,,,,,,,,,,,,,,,,,,,,,,,,,,,,,,,,,,,,,,,,,,,,,,,,,,,,,
,,,,476264,001,2023-10-24_21h31.16.689,fluency,2022.2.5,Win32,60.77549532,,,,,,,,,,,,,,,,,,,,,,,,,,,,,,,,,,,,,,,,,,,,,,,,,,,,,,,,,,,,,,,,,,,,,,,,,,,,,,,,,,0,0,0,0,1,,"[""j""]",[1.6380000000000337],2,"[""j""]",[1.6380000000000337],,,,,,,,,,,,,,,,,,,,,,,,,,,,,,,,,,,,,,,,,,,,,,,,,,,,,,,,,,,,,,,,,,,,,
,,,,476264,001,2023-10-24_21h31.16.689,fluency,2022.2.5,Win32,60.77549532,,,,,,,,,,,,,,,,,,,,,,,4,8,img/B08_04.jpg,CONTROL,Press J as soon as you see a face, ,JK,,,,,,,,,,,,,,,,,,,,,,,,,,,,,,,,2,1.5618,,,,,,,,,,,,,,0,82,82,81,1,,,,,,,,,,,,,space,1.2093,,,,,,,,,,,,,,,,,,,,,,,,,,,,,,,,,,,,,,,,,,,,,,,,,,,,,,,,,,,,,,,,,,,
,,,,476264,001,2023-10-24_21h31.16.689,fluency,2022.2.5,Win32,60.77549532,,,,,,,,,,,,,,,,,,,,,,,9,8,img/B08_09.jpg,CONTROL,Press J as soon as you see a face, ,JK,,,,,,,,,,,,,,,,,,,,,,,,,,,,,,,,,,,,,,,,,,,,,,852.4278,0,83,83,86,1,109,0,0,0,0,1,98,,,,,,,,,,,,,,,,,,,,,,,,,,,,,,,,,,,,,,,,,,,,,,,,,,,,,,,,,,,,,,,,,,,,,,,,,,
,,,,476264,001,2023-10-24_21h31.16.689,fluency,2022.2.5,Win32,60.77549532,,,,,,,,,,,,,,,,,,,,,,,,,,,,,,,,,,,,,,,,,,,,,,,,,,,,,,,,,,,,,,,,,,,,,,,,,,,,,,,,,,0,0,0,0,1,,"[""j""]",[0.8133999999985235],2,"[""j""]",[0.8132999999988897],,,,,,,,,,,,,,,,,,,,,,,,,,,,,,,,,,,,,,,,,,,,,,,,,,,,,,,,,,,,,,,,,,,,,
,,,,476264,001,2023-10-24_21h31.16.689,fluency,2022.2.5,Win32,60.77549532,,,,,,,,,,,,,,,,,,,,,,,9,8,img/B08_09.jpg,CONTROL,Press J as soon as you see a face, ,JK,,,,,,,,,,,,,,,,,,,,,,,,,,,,,,,,2,0.8101,,,,,,,,,,,,,,0,83,83,86,1,,,,,,,,,,,,,space,0.7896,,,,,,,,,,,,,,,,,,,,,,,,,,,,,,,,,,,,,,,,,,,,,,,,,,,,,,,,,,,,,,,,,,,
,,,,476264,001,2023-10-24_21h31.16.689,fluency,2022.2.5,Win32,60.77549532,,,,,,,,,,,,,,,,,,,,,,,7,5,img/B05_07.jpg,CONTROL,Press J as soon as you see a face, ,JK,,,,,,,,,,,,,,,,,,,,,,,,,,,,,,,,,,,,,,,,,,,,,,859.0904,0,84,84,51,1,109,0,0,0,0,1,98,,,,,,,,,,,,,,,,,,,,,,,,,,,,,,,,,,,,,,,,,,,,,,,,,,,,,,,,,,,,,,,,,,,,,,,,,,
,,,,476264,001,2023-10-24_21h31.16.689,fluency,2022.2.5,Win32,60.77549532,,,,,,,,,,,,,,,,,,,,,,,,,,,,,,,,,,,,,,,,,,,,,,,,,,,,,,,,,,,,,,,,,,,,,,,,,,,,,,,,,,0,0,0,0,1,,"[""j""]",[1.0320999999995593],2,"[""j"",""2"",""space""]","[1.0321000000013782,1.8322000000010803,2.3314000000003716]",,,,,,,,,,,,,,,,,,,,,,,,,,,,,,,,,,,,,,,,,,,,,,,,,,,,,,,,,,,,,,,,,,,,,
,,,,476264,001,2023-10-24_21h31.16.689,fluency,2022.2.5,Win32,60.77549532,,,,,,,,,,,,,,,,,,,,,,,7,5,img/B05_07.jpg,CONTROL,Press J as soon as you see a face, ,JK,,,,,,,,,,,,,,,,,,,,,,,,,,,,,,,,2,1.1441,,,,,,,,,,,,,,0,84,84,51,1,,,,,,,,,,,,,space,0.4341,,,,,,,,,,,,,,,,,,,,,,,,,,,,,,,,,,,,,,,,,,,,,,,,,,,,,,,,,,,,,,,,,,,
,,,,476264,001,2023-10-24_21h31.16.689,fluency,2022.2.5,Win32,60.77549532,,,,,,,,,,,,,,,,,,,,,,,1,5,img/B05_01.jpg,CONTROL,Press J as soon as you see a face, ,JK,,,,,,,,,,,,,,,,,,,,,,,,,,,,,,,,,,,,,,,,,,,,,,865.7236,0,85,85,45,1,109,0,0,0,0,1,98,,,,,,,,,,,,,,,,,,,,,,,,,,,,,,,,,,,,,,,,,,,,,,,,,,,,,,,,,,,,,,,,,,,,,,,,,,
,,,,476264,001,2023-10-24_21h31.16.689,fluency,2022.2.5,Win32,60.77549532,,,,,,,,,,,,,,,,,,,,,,,,,,,,,,,,,,,,,,,,,,,,,,,,,,,,,,,,,,,,,,,,,,,,,,,,,,,,,,,,,,0,0,0,0,1,,"[""j""]",[0.485400000000368],2,"[""j""]",[0.48529999999891515],,,,,,,,,,,,,,,,,,,,,,,,,,,,,,,,,,,,,,,,,,,,,,,,,,,,,,,,,,,,,,,,,,,,,
,,,,476264,001,2023-10-24_21h31.16.689,fluency,2022.2.5,Win32,60.77549532,,,,,,,,,,,,,,,,,,,,,,,1,5,img/B05_01.jpg,CONTROL,Press J as soon as you see a face, ,JK,,,,,,,,,,,,,,,,,,,,,,,,,,,,,,,,2,0.6619,,,,,,,,,,,,,,0,85,85,45,1,,,,,,,,,,,,,space,0.7926,,,,,,,,,,,,,,,,,,,,,,,,,,,,,,,,,,,,,,,,,,,,,,,,,,,,,,,,,,,,,,,,,,,
,,,,476264,001,2023-10-24_21h31.16.689,fluency,2022.2.5,Win32,60.77549532,,,,,,,,,,,,,,,,,,,,,,,8,5,img/B05_08.jpg,CONTROL,Press J as soon as you see a face, ,JK,,,,,,,,,,,,,,,,,,,,,,,,,,,,,,,,,,,,,,,,,,,,,,871.2563,0,86,86,52,1,109,0,0,0,0,1,98,,,,,,,,,,,,,,,,,,,,,,,,,,,,,,,,,,,,,,,,,,,,,,,,,,,,,,,,,,,,,,,,,,,,,,,,,,
,,,,476264,001,2023-10-24_21h31.16.689,fluency,2022.2.5,Win32,60.77549532,,,,,,,,,,,,,,,,,,,,,,,,,,,,,,,,,,,,,,,,,,,,,,,,,,,,,,,,,,,,,,,,,,,,,,,,,,,,,,,,,,0,0,0,0,1,,"[""j""]",[0.8486999999993259],2,"[""j""]",[0.848599999999692],,,,,,,,,,,,,,,,,,,,,,,,,,,,,,,,,,,,,,,,,,,,,,,,,,,,,,,,,,,,,,,,,,,,,
,,,,476264,001,2023-10-24_21h31.16.689,fluency,2022.2.5,Win32,60.77549532,,,,,,,,,,,,,,,,,,,,,,,8,5,img/B05_08.jpg,CONTROL,Press J as soon as you see a face, ,JK,,,,,,,,,,,,,,,,,,,,,,,,,,,,,,,,2,0.7196,,,,,,,,,,,,,,0,86,86,52,1,,,,,,,,,,,,,space,0.7729,,,,,,,,,,,,,,,,,,,,,,,,,,,,,,,,,,,,,,,,,,,,,,,,,,,,,,,,,,,,,,,,,,,
,,,,476264,001,2023-10-24_21h31.16.689,fluency,2022.2.5,Win32,60.77549532,,,,,,,,,,,,,,,,,,,,,,,0,3,img/B03_00.jpg,CONTROL,Press J as soon as you see a face, ,JK,,,,,,,,,,,,,,,,,,,,,,,,,,,,,,,,,,,,,,,,,,,,,,877.8054,0,87,87,22,1,109,0,0,0,0,1,98,,,,,,,,,,,,,,,,,,,,,,,,,,,,,,,,,,,,,,,,,,,,,,,,,,,,,,,,,,,,,,,,,,,,,,,,,,
,,,,476264,001,2023-10-24_21h31.16.689,fluency,2022.2.5,Win32,60.77549532,,,,,,,,,,,,,,,,,,,,,,,,,,,,,,,,,,,,,,,,,,,,,,,,,,,,,,,,,,,,,,,,,,,,,,,,,,,,,,,,,,0,0,0,0,1,,"[""j""]",[0.9684000000003152],2,"[""j""]",[0.9684000000003152],,,,,,,,,,,,,,,,,,,,,,,,,,,,,,,,,,,,,,,,,,,,,,,,,,,,,,,,,,,,,,,,,,,,,
,,,,476264,001,2023-10-24_21h31.16.689,fluency,2022.2.5,Win32,60.77549532,,,,,,,,,,,,,,,,,,,,,,,0,3,img/B03_00.jpg,CONTROL,Press J as soon as you see a face, ,JK,,,,,,,,,,,,,,,,,,,,,,,,,,,,,,,,2,0.9428,,,,,,,,,,,,,,0,87,87,22,1,,,,,,,,,,,,,space,2.1321,,,,,,,,,,,,,,,,,,,,,,,,,,,,,,,,,,,,,,,,,,,,,,,,,,,,,,,,,,,,,,,,,,,
,,,,476264,001,2023-10-24_21h31.16.689,fluency,2022.2.5,Win32,60.77549532,,,,,,,,,,,,,,,,,,,,,,,0,10,img/B10_00.jpg,CONTROL,Press J as soon as you see a face, ,JK,,,,,,,,,,,,,,,,,,,,,,,,,,,,,,,,,,,,,,,,,,,,,,885.9544,0,88,88,99,1,109,0,0,0,0,1,98,,,,,,,,,,,,,,,,,,,,,,,,,,,,,,,,,,,,,,,,,,,,,,,,,,,,,,,,,,,,,,,,,,,,,,,,,,
,,,,476264,001,2023-10-24_21h31.16.689,fluency,2022.2.5,Win32,60.77549532,,,,,,,,,,,,,,,,,,,,,,,,,,,,,,,,,,,,,,,,,,,,,,,,,,,,,,,,,,,,,,,,,,,,,,,,,,,,,,,,,,0,0,0,0,1,,"[""j""]",[1.5872000000010758],2,"[""j""]",[1.5873000000007096],,,,,,,,,,,,,,,,,,,,,,,,,,,,,,,,,,,,,,,,,,,,,,,,,,,,,,,,,,,,,,,,,,,,,
,,,,476264,001,2023-10-24_21h31.16.689,fluency,2022.2.5,Win32,60.77549532,,,,,,,,,,,,,,,,,,,,,,,0,10,img/B10_00.jpg,CONTROL,Press J as soon as you see a face, ,JK,,,,,,,,,,,,,,,,,,,,,,,,,,,,,,,,2,0.9509,,,,,,,,,,,,,,0,88,88,99,1,,,,,,,,,,,,,space,1.585,,,,,,,,,,,,,,,,,,,,,,,,,,,,,,,,,,,,,,,,,,,,,,,,,,,,,,,,,,,,,,,,,,,
,,,,476264,001,2023-10-24_21h31.16.689,fluency,2022.2.5,Win32,60.77549532,,,,,,,,,,,,,,,,,,,,,,,4,3,img/B03_04.jpg,CONTROL,Press J as soon as you see a face, ,JK,,,,,,,,,,,,,,,,,,,,,,,,,,,,,,,,,,,,,,,,,,,,,,893.5542,0,89,89,26,1,109,0,0,0,0,1,98,,,,,,,,,,,,,,,,,,,,,,,,,,,,,,,,,,,,,,,,,,,,,,,,,,,,,,,,,,,,,,,,,,,,,,,,,,
,,,,476264,001,2023-10-24_21h31.16.689,fluency,2022.2.5,Win32,60.77549532,,,,,,,,,,,,,,,,,,,,,,,,,,,,,,,,,,,,,,,,,,,,,,,,,,,,,,,,,,,,,,,,,,,,,,,,,,,,,,,,,,0,0,0,0,1,,"[""j""]",[1.057800000000725],2,"[""j""]",[1.0576999999992722],,,,,,,,,,,,,,,,,,,,,,,,,,,,,,,,,,,,,,,,,,,,,,,,,,,,,,,,,,,,,,,,,,,,,
,,,,476264,001,2023-10-24_21h31.16.689,fluency,2022.2.5,Win32,60.77549532,,,,,,,,,,,,,,,,,,,,,,,4,3,img/B03_04.jpg,CONTROL,Press J as soon as you see a face, ,JK,,,,,,,,,,,,,,,,,,,,,,,,,,,,,,,,2,0.5121,,,,,,,,,,,,,,0,89,89,26,1,,,,,,,,,,,,,space,0.8892,,,,,,,,,,,,,,,,,,,,,,,,,,,,,,,,,,,,,,,,,,,,,,,,,,,,,,,,,,,,,,,,,,,
,,,,476264,001,2023-10-24_21h31.16.689,fluency,2022.2.5,Win32,60.77549532,,,,,,,,,,,,,,,,,,,,,,,5,3,img/B03_05.jpg,CONTROL,Press J as soon as you see a face, ,JK,,,,,,,,,,,,,,,,,,,,,,,,,,,,,,,,,,,,,,,,,,,,,,899.0205,0,90,90,27,1,109,0,0,0,0,1,98,,,,,,,,,,,,,,,,,,,,,,,,,,,,,,,,,,,,,,,,,,,,,,,,,,,,,,,,,,,,,,,,,,,,,,,,,,
,,,,476264,001,2023-10-24_21h31.16.689,fluency,2022.2.5,Win32,60.77549532,,,,,,,,,,,,,,,,,,,,,,,,,,,,,,,,,,,,,,,,,,,,,,,,,,,,,,,,,,,,,,,,,,,,,,,,,,,,,,,,,,0,0,0,0,1,,"[""j""]",[1.4010999999995875],2,"[""j""]",[1.4010999999995875],,,,,,,,,,,,,,,,,,,,,,,,,,,,,,,,,,,,,,,,,,,,,,,,,,,,,,,,,,,,,,,,,,,,,
,,,,476264,001,2023-10-24_21h31.16.689,fluency,2022.2.5,Win32,60.77549532,,,,,,,,,,,,,,,,,,,,,,,5,3,img/B03_05.jpg,CONTROL,Press J as soon as you see a face, ,JK,,,,,,,,,,,,,,,,,,,,,,,,,,,,,,,,2,0.7491,,,,,,,,,,,,,,0,90,90,27,1,,,,,,,,,,,,,space,1.2234,,,,,,,,,,,,,,,,,,,,,,,,,,,,,,,,,,,,,,,,,,,,,,,,,,,,,,,,,,,,,,,,,,,
,,,,476264,001,2023-10-24_21h31.16.689,fluency,2022.2.5,Win32,60.77549532,,,,,,,,,,,,,,,,,,,,,,,7,9,img/B09_07.jpg,CONTROL,Press J as soon as you see a face, ,JK,,,,,,,,,,,,,,,,,,,,,,,,,,,,,,,,,,,,,,,,,,,,,,906.0535,0,91,91,95,1,109,0,0,0,0,1,98,,,,,,,,,,,,,,,,,,,,,,,,,,,,,,,,,,,,,,,,,,,,,,,,,,,,,,,,,,,,,,,,,,,,,,,,,,
,,,,476264,001,2023-10-24_21h31.16.689,fluency,2022.2.5,Win32,60.77549532,,,,,,,,,,,,,,,,,,,,,,,,,,,,,,,,,,,,,,,,,,,,,,,,,,,,,,,,,,,,,,,,,,,,,,,,,,,,,,,,,,0,0,0,0,1,,"[""j""]",[0.3723999999983789],2,"[""j""]",[0.3723999999983789],,,,,,,,,,,,,,,,,,,,,,,,,,,,,,,,,,,,,,,,,,,,,,,,,,,,,,,,,,,,,,,,,,,,,
,,,,476264,001,2023-10-24_21h31.16.689,fluency,2022.2.5,Win32,60.77549532,,,,,,,,,,,,,,,,,,,,,,,7,9,img/B09_07.jpg,CONTROL,Press J as soon as you see a face, ,JK,,,,,,,,,,,,,,,,,,,,,,,,,,,,,,,,2,0.7524,,,,,,,,,,,,,,0,91,91,95,1,,,,,,,,,,,,,space,0.716,,,,,,,,,,,,,,,,,,,,,,,,,,,,,,,,,,,,,,,,,,,,,,,,,,,,,,,,,,,,,,,,,,,
,,,,476264,001,2023-10-24_21h31.16.689,fluency,2022.2.5,Win32,60.77549532,,,,,,,,,,,,,,,,,,,,,,,0,8,img/B08_00.jpg,CONTROL,Press J as soon as you see a face, ,JK,,,,,,,,,,,,,,,,,,,,,,,,,,,,,,,,,,,,,,,,,,,,,,911.5866,0,92,92,77,1,109,0,0,0,0,1,98,,,,,,,,,,,,,,,,,,,,,,,,,,,,,,,,,,,,,,,,,,,,,,,,,,,,,,,,,,,,,,,,,,,,,,,,,,
,,,,476264,001,2023-10-24_21h31.16.689,fluency,2022.2.5,Win32,60.77549532,,,,,,,,,,,,,,,,,,,,,,,,,,,,,,,,,,,,,,,,,,,,,,,,,,,,,,,,,,,,,,,,,,,,,,,,,,,,,,,,,,0,0,0,0,1,,"[""j""]",[0.7510999999994965],2,"[""j""]",[0.7510999999994965],,,,,,,,,,,,,,,,,,,,,,,,,,,,,,,,,,,,,,,,,,,,,,,,,,,,,,,,,,,,,,,,,,,,,
,,,,476264,001,2023-10-24_21h31.16.689,fluency,2022.2.5,Win32,60.77549532,,,,,,,,,,,,,,,,,,,,,,,0,8,img/B08_00.jpg,CONTROL,Press J as soon as you see a face, ,JK,,,,,,,,,,,,,,,,,,,,,,,,,,,,,,,,2,0.381,,,,,,,,,,,,,,0,92,92,77,1,,,,,,,,,,,,,space,0.6824,,,,,,,,,,,,,,,,,,,,,,,,,,,,,,,,,,,,,,,,,,,,,,,,,,,,,,,,,,,,,,,,,,,
,,,,476264,001,2023-10-24_21h31.16.689,fluency,2022.2.5,Win32,60.77549532,,,,,,,,,,,,,,,,,,,,,,,4,6,img/B06_04.jpg,CONTROL,Press J as soon as you see a face, ,JK,,,,,,,,,,,,,,,,,,,,,,,,,,,,,,,,,,,,,,,,,,,,,,917.7195,0,93,93,59,1,109,0,0,0,0,1,98,,,,,,,,,,,,,,,,,,,,,,,,,,,,,,,,,,,,,,,,,,,,,,,,,,,,,,,,,,,,,,,,,,,,,,,,,,
,,,,476264,001,2023-10-24_21h31.16.689,fluency,2022.2.5,Win32,60.77549532,,,,,,,,,,,,,,,,,,,,,,,,,,,,,,,,,,,,,,,,,,,,,,,,,,,,,,,,,,,,,,,,,,,,,,,,,,,,,,,,,,0,0,0,0,1,,"[""j""]",[0.8849000000002434],2,"[""j""]",[0.8849000000002434],,,,,,,,,,,,,,,,,,,,,,,,,,,,,,,,,,,,,,,,,,,,,,,,,,,,,,,,,,,,,,,,,,,,,
,,,,476264,001,2023-10-24_21h31.16.689,fluency,2022.2.5,Win32,60.77549532,,,,,,,,,,,,,,,,,,,,,,,4,6,img/B06_04.jpg,CONTROL,Press J as soon as you see a face, ,JK,,,,,,,,,,,,,,,,,,,,,,,,,,,,,,,,2,0.8613,,,,,,,,,,,,,,0,93,93,59,1,,,,,,,,,,,,,space,0.6436,,,,,,,,,,,,,,,,,,,,,,,,,,,,,,,,,,,,,,,,,,,,,,,,,,,,,,,,,,,,,,,,,,,
,,,,476264,001,2023-10-24_21h31.16.689,fluency,2022.2.5,Win32,60.77549532,,,,,,,,,,,,,,,,,,,,,,,2,10,img/B10_02.jpg,CONTROL,Press J as soon as you see a face, ,JK,,,,,,,,,,,,,,,,,,,,,,,,,,,,,,,,,,,,,,,,,,,,,,924.2689,0,94,94,101,1,109,0,0,0,0,1,98,,,,,,,,,,,,,,,,,,,,,,,,,,,,,,,,,,,,,,,,,,,,,,,,,,,,,,,,,,,,,,,,,,,,,,,,,,
,,,,476264,001,2023-10-24_21h31.16.689,fluency,2022.2.5,Win32,60.77549532,,,,,,,,,,,,,,,,,,,,,,,,,,,,,,,,,,,,,,,,,,,,,,,,,,,,,,,,,,,,,,,,,,,,,,,,,,,,,,,,,,0,0,0,0,1,,"[""j""]",[1.467799999998988],2,"[""j""]",[1.467899999998508],,,,,,,,,,,,,,,,,,,,,,,,,,,,,,,,,,,,,,,,,,,,,,,,,,,,,,,,,,,,,,,,,,,,,
,,,,476264,001,2023-10-24_21h31.16.689,fluency,2022.2.5,Win32,60.77549532,,,,,,,,,,,,,,,,,,,,,,,2,10,img/B10_02.jpg,CONTROL,Press J as soon as you see a face, ,JK,,,,,,,,,,,,,,,,,,,,,,,,,,,,,,,,2,1.0609,,,,,,,,,,,,,,0,94,94,101,1,,,,,,,,,,,,,space,0.8072,,,,,,,,,,,,,,,,,,,,,,,,,,,,,,,,,,,,,,,,,,,,,,,,,,,,,,,,,,,,,,,,,,,
,,,,476264,001,2023-10-24_21h31.16.689,fluency,2022.2.5,Win32,60.77549532,,,,,,,,,,,,,,,,,,,,,,,6,4,img/B04_06.jpg,CONTROL,Press J as soon as you see a face, ,JK,,,,,,,,,,,,,,,,,,,,,,,,,,,,,,,,,,,,,,,,,,,,,,931.1849,0,95,95,39,1,109,0,0,0,0,1,98,,,,,,,,,,,,,,,,,,,,,,,,,,,,,,,,,,,,,,,,,,,,,,,,,,,,,,,,,,,,,,,,,,,,,,,,,,
,,,,476264,001,2023-10-24_21h31.16.689,fluency,2022.2.5,Win32,60.77549532,,,,,,,,,,,,,,,,,,,,,,,,,,,,,,,,,,,,,,,,,,,,,,,,,,,,,,,,,,,,,,,,,,,,,,,,,,,,,,,,,,0,0,0,0,1,,"[""j""]",[0.7850000000000819],2,"[""j""]",[0.7849999999998545],,,,,,,,,,,,,,,,,,,,,,,,,,,,,,,,,,,,,,,,,,,,,,,,,,,,,,,,,,,,,,,,,,,,,
,,,,476264,001,2023-10-24_21h31.16.689,fluency,2022.2.5,Win32,60.77549532,,,,,,,,,,,,,,,,,,,,,,,6,4,img/B04_06.jpg,CONTROL,Press J as soon as you see a face, ,JK,,,,,,,,,,,,,,,,,,,,,,,,,,,,,,,,2,0.4904,,,,,,,,,,,,,,0,95,95,39,1,,,,,,,,,,,,,space,1.0528,,,,,,,,,,,,,,,,,,,,,,,,,,,,,,,,,,,,,,,,,,,,,,,,,,,,,,,,,,,,,,,,,,,
,,,,476264,001,2023-10-24_21h31.16.689,fluency,2022.2.5,Win32,60.77549532,,,,,,,,,,,,,,,,,,,,,,,9,5,img/B05_09.jpg,CONTROL,Press J as soon as you see a face, ,JK,,,,,,,,,,,,,,,,,,,,,,,,,,,,,,,,,,,,,,,,,,,,,,936.8017,0,96,96,53,1,109,0,0,0,0,1,98,,,,,,,,,,,,,,,,,,,,,,,,,,,,,,,,,,,,,,,,,,,,,,,,,,,,,,,,,,,,,,,,,,,,,,,,,,
,,,,476264,001,2023-10-24_21h31.16.689,fluency,2022.2.5,Win32,60.77549532,,,,,,,,,,,,,,,,,,,,,,,,,,,,,,,,,,,,,,,,,,,,,,,,,,,,,,,,,,,,,,,,,,,,,,,,,,,,,,,,,,0,0,0,0,1,,"[""j""]",[0.5246999999992568],2,"[""j""]",[0.5236999999992804],,,,,,,,,,,,,,,,,,,,,,,,,,,,,,,,,,,,,,,,,,,,,,,,,,,,,,,,,,,,,,,,,,,,,
