idTextbox.text,welcomeDone.numClicks,welcomeDone.timesOn,welcomeDone.timesOff,participant,session,date,expName,psychopyVersion,OS,frameRate,consent_advance.keys,consent_advance.rt,consent_advance_2.keys,consent_advance_2.rt,consentClick.x,consentClick.y,consentClick.leftButton,consentClick.midButton,consentClick.rightButton,consentClick.time,consentClick.clicked_name,instr_advance_3.keys,instr_advance_3.rt,spec_instr_adv.keys,spec_instr_adv.rt,spec_instr_adv2.keys,spec_instr_adv2.rt,instrLoop.thisRepN,instrLoop.thisTrialN,instrLoop.thisN,instrLoop.thisIndex,instrLoop.ran,steps,fams,face_file,cond,instr,term,key_map,attnKeyResp1.keys,attnKeyResp1.rt,q1.thisRepN,q1.thisTrialN,q1.thisN,q1.thisIndex,q1.ran,attnKeyResp2.keys,attnKeyResp2.rt,q2.thisRepN,q2.thisTrialN,q2.thisN,q2.thisIndex,q2.ran,attnKeyResp3.keys,attnKeyResp3.rt,q3.thisRepN,q3.thisTrialN,q3.thisN,q3.thisIndex,q3.ran,practiceStart.keys,practiceStart.rt,practiceResp.keys,practiceResp.rt,timesRedone,practiceRepeat.thisRepN,practiceRepeat.thisTrialN,practiceRepeat.thisN,practiceRepeat.thisIndex,practiceRepeat.ran,attrRating.keys,attrRating.rt,practiceTrial.thisRepN,practiceTrial.thisTrialN,practiceTrial.thisN,practiceTrial.thisIndex,practiceTrial.ran,key_resp_3.keys,key_resp_3.rt,attnChecker.thisRepN,attnChecker.thisTrialN,attnChecker.thisN,attnChecker.thisIndex,attnChecker.ran,faceOnsetTime,trials.thisRepN,trials.thisTrialN,trials.thisN,trials.thisIndex,trials.ran,trials.order,repeat_loop.thisRepN,repeat_loop.thisTrialN,repeat_loop.thisN,repeat_loop.thisIndex,repeat_loop.ran,repeat_loop.order,catResp.keys,catResp.rt,globalTimesRedone,catAllKeys.keys,catAllKeys.rt,contResp.keys,contResp.rt,redo_keypress.keys,redo_keypress.rt,redo_feedback_loop.thisRepN,redo_feedback_loop.thisTrialN,redo_feedback_loop.thisN,redo_feedback_loop.thisIndex,redo_feedback_loop.ran,contResp_2.keys,contResp_2.rt,respQ1.response,respQ1.rt,respQ2.response,respQ2.rt,respQ3.response,respQ3.rt,respQ4.response,respQ4.rt,surveyContinue1.numClicks,surveyContinue1.timesOn,surveyContinue1.timesOff,respQ5.response,respQ5.rt,respQ6.response,respQ6.rt,respQ7.response,respQ7.rt,respQ8.response,respQ8.rt,surveyContinue2.numClicks,surveyContinue2.timesOn,surveyContinue2.timesOff,respQ9.response,respQ9.rt,respQ10.response,respQ10.rt,respQ11.response,respQ11.rt,respQ12.response,respQ12.rt,surveyContinue3.numClicks,surveyContinue3.timesOn,surveyContinue3.timesOff,respQ13.response,respQ13.rt,respQ14.response,respQ14.rt,respQ15.response,respQ15.rt,surveyContinue4.numClicks,surveyContinue4.timesOn,surveyContinue4.timesOff,respAge.response,respAge.rt,genderResp1.response,genderResp1.rt,genderResp2.text,demogexitClick.numClicks,demogexitClick.timesOn,demogexitClick.timesOff,textbox.text,openAnswerClick.numClicks,openAnswerClick.timesOn,openAnswerClick.timesOff,debriefEnd.keys,debriefEnd.rt,exitKey.keys,exitKey.rt
616ae3f893864f417b704e95,1,[21.282899999998506],[21.283099999994036],357531,001,2023-08-08_21h23.17.450,fluency,2022.2.4,Win32,59.93407252,,,,,,,,,,,,,,,,,,,,,,,,,,,,,,,,,,,,,,,,,,,,,,,,,,,,,,,,,,,,,,,,,,,,,,,,,,,,,,,,,,,,,,,,,,,,,,,,,,,,,,,,,,,,,,,,,,,,,,,,,,,,,,,,,,,,,,,,,,,,,,,,,,,,,,,,,,,,,,,,,
,,,,357531,001,2023-08-08_21h23.17.450,fluency,2022.2.4,Win32,59.93407252,space,76.1098,,,,,,,,,,,,,,,,,,,,,,,,,,,,,,,,,,,,,,,,,,,,,,,,,,,,,,,,,,,,,,,,,,,,,,,,,,,,,,,,,,,,,,,,,,,,,,,,,,,,,,,,,,,,,,,,,,,,,,,,,,,,,,,,,,,,,,,,,,,,,,,,,,,,,,,,,,,,,,,
,,,,357531,001,2023-08-08_21h23.17.450,fluency,2022.2.4,Win32,59.93407252,,,space,43.9052,,,,,,,,,,,,,,,,,,,,,,,,,,,,,,,,,,,,,,,,,,,,,,,,,,,,,,,,,,,,,,,,,,,,,,,,,,,,,,,,,,,,,,,,,,,,,,,,,,,,,,,,,,,,,,,,,,,,,,,,,,,,,,,,,,,,,,,,,,,,,,,,,,,,,,,,,,,,,
,,,,357531,001,2023-08-08_21h23.17.450,fluency,2022.2.4,Win32,59.93407252,,,,,0.258064516,-0.338709677,1,0,0,46.8686,iAgree,,,,,,,,,,,,,,,,,,,,,,,,,,,,,,,,,,,,,,,,,,,,,,,,,,,,,,,,,,,,,,,,,,,,,,,,,,,,,,,,,,,,,,,,,,,,,,,,,,,,,,,,,,,,,,,,,,,,,,,,,,,,,,,,,,,,,,,,,,,,,,,,,,,,,,
,,,,357531,001,2023-08-08_21h23.17.450,fluency,2022.2.4,Win32,59.93407252,,,,,,,,,,,,space,17.4769,,,,,,,,,,,,,,,,,,,,,,,,,,,,,,,,,,,,,,,,,,,,,,,,,,,,,,,,,,,,,,,,,,,,,,,,,,,,,,,,,,,,,,,,,,,,,,,,,,,,,,,,,,,,,,,,,,,,,,,,,,,,,,,,,,,,,,,,,,,,,,,,,,,,
,,,,357531,001,2023-08-08_21h23.17.450,fluency,2022.2.4,Win32,59.93407252,,,,,,,,,,,,,,space,81.3897,space,17.0517,0,0,0,91,1,3,9,img/B09_03.jpg,BLEND,Press J if the face is a BLEND and K if the face is a NON-BLEND,A blend is a computer-generated image created by combining together multiple photos of real human faces. A non-blend is a regular photo of a human face.,JK,,,,,,,,,,,,,,,,,,,,,,,,,,,,,,,,,,,,,,,,,,,,,,,,,,,,,,,,,,,,,,,,,,,,,,,,,,,,,,,,,,,,,,,,,,,,,,,,,,,,,,,,,,,,,,,,,,,,,,,,,,,,,,,,,,,,
,,,,357531,001,2023-08-08_21h23.17.450,fluency,2022.2.4,Win32,59.93407252,,,,,,,,,,,,,,,,,,,,,,,,,,,,,,c,14.0925,0,0,0,0,1,,,,,,,,,,,,,,,,,,,,,,,,,,,,,,,,,,,,,,,,,,,,,,,,,,,,,,,,,,,,,,,,,,,,,,,,,,,,,,,,,,,,,,,,,,,,,,,,,,,,,,,,,,,,,,,,,,,,,,,,,,,,,
,,,,357531,001,2023-08-08_21h23.17.450,fluency,2022.2.4,Win32,59.93407252,,,,,,,,,,,,,,,,,,,,,,,,,,,,,,,,,,,,,a,8.1439,0,0,0,0,1,,,,,,,,,,,,,,,,,,,,,,,,,,,,,,,,,,,,,,,,,,,,,,,,,,,,,,,,,,,,,,,,,,,,,,,,,,,,,,,,,,,,,,,,,,,,,,,,,,,,,,,,,,,,,,,,,,,,,,
,,,,357531,001,2023-08-08_21h23.17.450,fluency,2022.2.4,Win32,59.93407252,,,,,,,,,,,,,,,,,,,,,,,,,,,,,,,,,,,,,,,,,,,,c,10.7506,0,0,0,0,1,,,,,,,,,,,,,,,,,,,,,,,,,,,,,,,,,,,,,,,,,,,,,,,,,,,,,,,,,,,,,,,,,,,,,,,,,,,,,,,,,,,,,,,,,,,,,,,,,,,,,,,,,,,,,,,
,,,,357531,001,2023-08-08_21h23.17.450,fluency,2022.2.4,Win32,59.93407252,,,,,,,,,,,,,,,,,,,,,,,,,,,,,,,,,,,,,,,,,,,,,,,,,,,space,6.1837,k,2.1453,0,0,0,0,0,1,,,,,,,,,,,,,,,,,,,,,,,,,,,,,,,,,,,,,,,,,,,,,,,,,,,,,,,,,,,,,,,,,,,,,,,,,,,,,,,,,,,,,,,,,,,,,,,,,,,,,
,,,,357531,001,2023-08-08_21h23.17.450,fluency,2022.2.4,Win32,59.93407252,,,,,,,,,,,,,,,,,,,,,,,,,,,,,,,,,,,,,,,,,,,,,,,,,,,,,,,,,,,,,6,14.8262,0,0,0,0,1,,,,,,,,,,,,,,,,,,,,,,,,,,,,,,,,,,,,,,,,,,,,,,,,,,,,,,,,,,,,,,,,,,,,,,,,,,,,,,,,,,,,,,,,,,,,,,
,,,,357531,001,2023-08-08_21h23.17.450,fluency,2022.2.4,Win32,59.93407252,,,,,,,,,,,,,,,,,,,,,,,,,,,,,,,,,,,,,,,,,,,,,,,,,,,,,,,,,,,,,,,,,,,,space,13.7167,0,0,0,0,1,,,,,,,,,,,,,,,,,,,,,,,,,,,,,,,,,,,,,,,,,,,,,,,,,,,,,,,,,,,,,,,,,,,,,,,,,,,,,,,,,,,,,,,
,,,,357531,001,2023-08-08_21h23.17.450,fluency,2022.2.4,Win32,59.93407252,,,,,,,,,,,,,,,,,,,,,,,9,6,img/B06_09.jpg,BLEND,Press J if the face is a BLEND and K if the face is a NON-BLEND,A blend is a computer-generated image created by combining together multiple photos of real human faces. A non-blend is a regular photo of a human face.,JK,,,,,,,,,,,,,,,,,,,,,,,,,,,,,,,,,,,,,,,,,,,,,,396.3927,0,0,0,64,1,109,0,0,0,0,1,98,,,,,,,,,,,,,,,,,,,,,,,,,,,,,,,,,,,,,,,,,,,,,,,,,,,,,,,,,,,,,,,,,,,,,,,,,,
,,,,357531,001,2023-08-08_21h23.17.450,fluency,2022.2.4,Win32,59.93407252,,,,,,,,,,,,,,,,,,,,,,,,,,,,,,,,,,,,,,,,,,,,,,,,,,,,,,,,,,,,,,,,,,,,,,,,,,,,,,,,,,0,0,0,0,1,,"[""k""]",[1.0791000000014606],0,"[""k""]",[1.0789000000059445],,,,,,,,,,,,,,,,,,,,,,,,,,,,,,,,,,,,,,,,,,,,,,,,,,,,,,,,,,,,,,,,,,,,,
,,,,357531,001,2023-08-08_21h23.17.450,fluency,2022.2.4,Win32,59.93407252,,,,,,,,,,,,,,,,,,,,,,,9,6,img/B06_09.jpg,BLEND,Press J if the face is a BLEND and K if the face is a NON-BLEND,A blend is a computer-generated image created by combining together multiple photos of real human faces. A non-blend is a regular photo of a human face.,JK,,,,,,,,,,,,,,,,,,,,,,,,,,,,,,,,8,6.9593,,,,,,,,,,,,,,0,0,0,64,1,,,,,,,,,,,,,space,12.0314,,,,,,,,,,,,,,,,,,,,,,,,,,,,,,,,,,,,,,,,,,,,,,,,,,,,,,,,,,,,,,,,,,,
,,,,357531,001,2023-08-08_21h23.17.450,fluency,2022.2.4,Win32,59.93407252,,,,,,,,,,,,,,,,,,,,,,,8,4,img/B04_08.jpg,BLEND,Press J if the face is a BLEND and K if the face is a NON-BLEND,A blend is a computer-generated image created by combining together multiple photos of real human faces. A non-blend is a regular photo of a human face.,JK,,,,,,,,,,,,,,,,,,,,,,,,,,,,,,,,,,,,,,,,,,,,,,419.5857,0,1,1,41,1,109,0,0,0,0,1,98,,,,,,,,,,,,,,,,,,,,,,,,,,,,,,,,,,,,,,,,,,,,,,,,,,,,,,,,,,,,,,,,,,,,,,,,,,
,,,,357531,001,2023-08-08_21h23.17.450,fluency,2022.2.4,Win32,59.93407252,,,,,,,,,,,,,,,,,,,,,,,,,,,,,,,,,,,,,,,,,,,,,,,,,,,,,,,,,,,,,,,,,,,,,,,,,,,,,,,,,,0,0,0,0,1,,"[""k""]",[1.9252999999969802],0,"[""k""]",[1.9250999999940177],,,,,,,,,,,,,,,,,,,,,,,,,,,,,,,,,,,,,,,,,,,,,,,,,,,,,,,,,,,,,,,,,,,,,
,,,,357531,001,2023-08-08_21h23.17.450,fluency,2022.2.4,Win32,59.93407252,,,,,,,,,,,,,,,,,,,,,,,8,4,img/B04_08.jpg,BLEND,Press J if the face is a BLEND and K if the face is a NON-BLEND,A blend is a computer-generated image created by combining together multiple photos of real human faces. A non-blend is a regular photo of a human face.,JK,,,,,,,,,,,,,,,,,,,,,,,,,,,,,,,,8,8.3289,,,,,,,,,,,,,,0,1,1,41,1,,,,,,,,,,,,,space,4.2346,,,,,,,,,,,,,,,,,,,,,,,,,,,,,,,,,,,,,,,,,,,,,,,,,,,,,,,,,,,,,,,,,,,
,,,,357531,001,2023-08-08_21h23.17.450,fluency,2022.2.4,Win32,59.93407252,,,,,,,,,,,,,,,,,,,,,,,1,2,img/B02_01.jpg,BLEND,Press J if the face is a BLEND and K if the face is a NON-BLEND,A blend is a computer-generated image created by combining together multiple photos of real human faces. A non-blend is a regular photo of a human face.,JK,,,,,,,,,,,,,,,,,,,,,,,,,,,,,,,,,,,,,,,,,,,,,,437.3023,0,2,2,12,1,109,0,0,0,0,1,98,,,,,,,,,,,,,,,,,,,,,,,,,,,,,,,,,,,,,,,,,,,,,,,,,,,,,,,,,,,,,,,,,,,,,,,,,,
,,,,357531,001,2023-08-08_21h23.17.450,fluency,2022.2.4,Win32,59.93407252,,,,,,,,,,,,,,,,,,,,,,,,,,,,,,,,,,,,,,,,,,,,,,,,,,,,,,,,,,,,,,,,,,,,,,,,,,,,,,,,,,,,,,,,,,1,,,,,space,6.9279,0,0,0,0,1,,,,,,,,,,,,,,,,,,,,,,,,,,,,,,,,,,,,,,,,,,,,,,,,,,,,,,,,,,,,
,,,,357531,001,2023-08-08_21h23.17.450,fluency,2022.2.4,Win32,59.93407252,,,,,,,,,,,,,,,,,,,,,,,,,,,,,,,,,,,,,,,,,,,,,,,,,,,,,,,,,,,,,,,,,,,,,,,,,,,,,,,,,,0,0,0,0,1,,,,,,,,,,,,,,,,,,,,,,,,,,,,,,,,,,,,,,,,,,,,,,,,,,,,,,,,,,,,,,,,,,,,,,,,,,,
,,,,357531,001,2023-08-08_21h23.17.450,fluency,2022.2.4,Win32,59.93407252,,,,,,,,,,,,,,,,,,,,,,,1,2,img/B02_01.jpg,BLEND,Press J if the face is a BLEND and K if the face is a NON-BLEND,A blend is a computer-generated image created by combining together multiple photos of real human faces. A non-blend is a regular photo of a human face.,JK,,,,,,,,,,,,,,,,,,,,,,,,,,,,,,,,,,,,,,,,,,,,,,448.3527,0,2,2,12,1,109,1,0,1,0,1,98,,,,,,,,,,,,,,,,,,,,,,,,,,,,,,,,,,,,,,,,,,,,,,,,,,,,,,,,,,,,,,,,,,,,,,,,,,
,,,,357531,001,2023-08-08_21h23.17.450,fluency,2022.2.4,Win32,59.93407252,,,,,,,,,,,,,,,,,,,,,,,,,,,,,,,,,,,,,,,,,,,,,,,,,,,,,,,,,,,,,,,,,,,,,,,,,,,,,,,,,,1,0,1,0,1,,"[""j"",""k""]","[1.6727000000029193,1.751799999997047]",1,"[""j"",""k""]","[1.6725000000000136,1.751600000001531]",,,,,,,,,,,,,,,,,,,,,,,,,,,,,,,,,,,,,,,,,,,,,,,,,,,,,,,,,,,,,,,,,,,,,
,,,,357531,001,2023-08-08_21h23.17.450,fluency,2022.2.4,Win32,59.93407252,,,,,,,,,,,,,,,,,,,,,,,1,2,img/B02_01.jpg,BLEND,Press J if the face is a BLEND and K if the face is a NON-BLEND,A blend is a computer-generated image created by combining together multiple photos of real human faces. A non-blend is a regular photo of a human face.,JK,,,,,,,,,,,,,,,,,,,,,,,,,,,,,,,,5,9.8068,,,,,,,,,,,,,,0,2,2,12,1,,,,,,,,,,,,,space,5.705,,,,,,,,,,,,,,,,,,,,,,,,,,,,,,,,,,,,,,,,,,,,,,,,,,,,,,,,,,,,,,,,,,,
,,,,357531,001,2023-08-08_21h23.17.450,fluency,2022.2.4,Win32,59.93407252,,,,,,,,,,,,,,,,,,,,,,,8,8,img/B08_08.jpg,BLEND,Press J if the face is a BLEND and K if the face is a NON-BLEND,A blend is a computer-generated image created by combining together multiple photos of real human faces. A non-blend is a regular photo of a human face.,JK,,,,,,,,,,,,,,,,,,,,,,,,,,,,,,,,,,,,,,,,,,,,,,468.0045,0,3,3,85,1,109,0,0,0,0,1,98,,,,,,,,,,,,,,,,,,,,,,,,,,,,,,,,,,,,,,,,,,,,,,,,,,,,,,,,,,,,,,,,,,,,,,,,,,
,,,,357531,001,2023-08-08_21h23.17.450,fluency,2022.2.4,Win32,59.93407252,,,,,,,,,,,,,,,,,,,,,,,,,,,,,,,,,,,,,,,,,,,,,,,,,,,,,,,,,,,,,,,,,,,,,,,,,,,,,,,,,,0,0,0,0,1,,"[""k""]",[1.0573000000044885],1,"[""k""]",[1.0571999999955324],,,,,,,,,,,,,,,,,,,,,,,,,,,,,,,,,,,,,,,,,,,,,,,,,,,,,,,,,,,,,,,,,,,,,
,,,,357531,001,2023-08-08_21h23.17.450,fluency,2022.2.4,Win32,59.93407252,,,,,,,,,,,,,,,,,,,,,,,8,8,img/B08_08.jpg,BLEND,Press J if the face is a BLEND and K if the face is a NON-BLEND,A blend is a computer-generated image created by combining together multiple photos of real human faces. A non-blend is a regular photo of a human face.,JK,,,,,,,,,,,,,,,,,,,,,,,,,,,,,,,,6,3.4421,,,,,,,,,,,,,,0,3,3,85,1,,,,,,,,,,,,,space,2.3194,,,,,,,,,,,,,,,,,,,,,,,,,,,,,,,,,,,,,,,,,,,,,,,,,,,,,,,,,,,,,,,,,,,
,,,,357531,001,2023-08-08_21h23.17.450,fluency,2022.2.4,Win32,59.93407252,,,,,,,,,,,,,,,,,,,,,,,0,10,img/B10_00.jpg,BLEND,Press J if the face is a BLEND and K if the face is a NON-BLEND,A blend is a computer-generated image created by combining together multiple photos of real human faces. A non-blend is a regular photo of a human face.,JK,,,,,,,,,,,,,,,,,,,,,,,,,,,,,,,,,,,,,,,,,,,,,,478.9202,0,4,4,99,1,109,0,0,0,0,1,98,,,,,,,,,,,,,,,,,,,,,,,,,,,,,,,,,,,,,,,,,,,,,,,,,,,,,,,,,,,,,,,,,,,,,,,,,,
,,,,357531,001,2023-08-08_21h23.17.450,fluency,2022.2.4,Win32,59.93407252,,,,,,,,,,,,,,,,,,,,,,,,,,,,,,,,,,,,,,,,,,,,,,,,,,,,,,,,,,,,,,,,,,,,,,,,,,,,,,,,,,0,0,0,0,1,,"[""k""]",[0.939100000001531],1,"[""k""]",[0.9388999999985117],,,,,,,,,,,,,,,,,,,,,,,,,,,,,,,,,,,,,,,,,,,,,,,,,,,,,,,,,,,,,,,,,,,,,
,,,,357531,001,2023-08-08_21h23.17.450,fluency,2022.2.4,Win32,59.93407252,,,,,,,,,,,,,,,,,,,,,,,0,10,img/B10_00.jpg,BLEND,Press J if the face is a BLEND and K if the face is a NON-BLEND,A blend is a computer-generated image created by combining together multiple photos of real human faces. A non-blend is a regular photo of a human face.,JK,,,,,,,,,,,,,,,,,,,,,,,,,,,,,,,,5,5.2614,,,,,,,,,,,,,,0,4,4,99,1,,,,,,,,,,,,,space,1.3359,,,,,,,,,,,,,,,,,,,,,,,,,,,,,,,,,,,,,,,,,,,,,,,,,,,,,,,,,,,,,,,,,,,
,,,,357531,001,2023-08-08_21h23.17.450,fluency,2022.2.4,Win32,59.93407252,,,,,,,,,,,,,,,,,,,,,,,5,2,img/B02_05.jpg,BLEND,Press J if the face is a BLEND and K if the face is a NON-BLEND,A blend is a computer-generated image created by combining together multiple photos of real human faces. A non-blend is a regular photo of a human face.,JK,,,,,,,,,,,,,,,,,,,,,,,,,,,,,,,,,,,,,,,,,,,,,,489.6709,0,5,5,16,1,109,0,0,0,0,1,98,,,,,,,,,,,,,,,,,,,,,,,,,,,,,,,,,,,,,,,,,,,,,,,,,,,,,,,,,,,,,,,,,,,,,,,,,,
,,,,357531,001,2023-08-08_21h23.17.450,fluency,2022.2.4,Win32,59.93407252,,,,,,,,,,,,,,,,,,,,,,,,,,,,,,,,,,,,,,,,,,,,,,,,,,,,,,,,,,,,,,,,,,,,,,,,,,,,,,,,,,0,0,0,0,1,,"[""j""]",[1.3453999999985626],1,"[""j""]",[1.3453999999985626],,,,,,,,,,,,,,,,,,,,,,,,,,,,,,,,,,,,,,,,,,,,,,,,,,,,,,,,,,,,,,,,,,,,,
,,,,357531,001,2023-08-08_21h23.17.450,fluency,2022.2.4,Win32,59.93407252,,,,,,,,,,,,,,,,,,,,,,,5,2,img/B02_05.jpg,BLEND,Press J if the face is a BLEND and K if the face is a NON-BLEND,A blend is a computer-generated image created by combining together multiple photos of real human faces. A non-blend is a regular photo of a human face.,JK,,,,,,,,,,,,,,,,,,,,,,,,,,,,,,,,5,5.0947,,,,,,,,,,,,,,0,5,5,16,1,,,,,,,,,,,,,space,1.5361,,,,,,,,,,,,,,,,,,,,,,,,,,,,,,,,,,,,,,,,,,,,,,,,,,,,,,,,,,,,,,,,,,,
,,,,357531,001,2023-08-08_21h23.17.450,fluency,2022.2.4,Win32,59.93407252,,,,,,,,,,,,,,,,,,,,,,,5,5,img/B05_05.jpg,BLEND,Press J if the face is a BLEND and K if the face is a NON-BLEND,A blend is a computer-generated image created by combining together multiple photos of real human faces. A non-blend is a regular photo of a human face.,JK,,,,,,,,,,,,,,,,,,,,,,,,,,,,,,,,,,,,,,,,,,,,,,501.4583,0,6,6,49,1,109,0,0,0,0,1,98,,,,,,,,,,,,,,,,,,,,,,,,,,,,,,,,,,,,,,,,,,,,,,,,,,,,,,,,,,,,,,,,,,,,,,,,,,
,,,,357531,001,2023-08-08_21h23.17.450,fluency,2022.2.4,Win32,59.93407252,,,,,,,,,,,,,,,,,,,,,,,,,,,,,,,,,,,,,,,,,,,,,,,,,,,,,,,,,,,,,,,,,,,,,,,,,,,,,,,,,,0,0,0,0,1,,"[""k""]",[0.9377000000030193],1,"[""k""]",[0.9375],,,,,,,,,,,,,,,,,,,,,,,,,,,,,,,,,,,,,,,,,,,,,,,,,,,,,,,,,,,,,,,,,,,,,
,,,,357531,001,2023-08-08_21h23.17.450,fluency,2022.2.4,Win32,59.93407252,,,,,,,,,,,,,,,,,,,,,,,5,5,img/B05_05.jpg,BLEND,Press J if the face is a BLEND and K if the face is a NON-BLEND,A blend is a computer-generated image created by combining together multiple photos of real human faces. A non-blend is a regular photo of a human face.,JK,,,,,,,,,,,,,,,,,,,,,,,,,,,,,,,,6,3.5551,,,,,,,,,,,,,,0,6,6,49,1,,,,,,,,,,,,,space,1.102,,,,,,,,,,,,,,,,,,,,,,,,,,,,,,,,,,,,,,,,,,,,,,,,,,,,,,,,,,,,,,,,,,,
,,,,357531,001,2023-08-08_21h23.17.450,fluency,2022.2.4,Win32,59.93407252,,,,,,,,,,,,,,,,,,,,,,,1,6,img/B06_01.jpg,BLEND,Press J if the face is a BLEND and K if the face is a NON-BLEND,A blend is a computer-generated image created by combining together multiple photos of real human faces. A non-blend is a regular photo of a human face.,JK,,,,,,,,,,,,,,,,,,,,,,,,,,,,,,,,,,,,,,,,,,,,,,510.2709,0,7,7,56,1,109,0,0,0,0,1,98,,,,,,,,,,,,,,,,,,,,,,,,,,,,,,,,,,,,,,,,,,,,,,,,,,,,,,,,,,,,,,,,,,,,,,,,,,
,,,,357531,001,2023-08-08_21h23.17.450,fluency,2022.2.4,Win32,59.93407252,,,,,,,,,,,,,,,,,,,,,,,,,,,,,,,,,,,,,,,,,,,,,,,,,,,,,,,,,,,,,,,,,,,,,,,,,,,,,,,,,,0,0,0,0,1,,"[""j""]",[1.3543999999984635],1,"[""j""]",[1.3541999999954442],,,,,,,,,,,,,,,,,,,,,,,,,,,,,,,,,,,,,,,,,,,,,,,,,,,,,,,,,,,,,,,,,,,,,
,,,,357531,001,2023-08-08_21h23.17.450,fluency,2022.2.4,Win32,59.93407252,,,,,,,,,,,,,,,,,,,,,,,1,6,img/B06_01.jpg,BLEND,Press J if the face is a BLEND and K if the face is a NON-BLEND,A blend is a computer-generated image created by combining together multiple photos of real human faces. A non-blend is a regular photo of a human face.,JK,,,,,,,,,,,,,,,,,,,,,,,,,,,,,,,,5,4.9855,,,,,,,,,,,,,,0,7,7,56,1,,,,,,,,,,,,,space,1.1692,,,,,,,,,,,,,,,,,,,,,,,,,,,,,,,,,,,,,,,,,,,,,,,,,,,,,,,,,,,,,,,,,,,
,,,,357531,001,2023-08-08_21h23.17.450,fluency,2022.2.4,Win32,59.93407252,,,,,,,,,,,,,,,,,,,,,,,6,4,img/B04_06.jpg,BLEND,Press J if the face is a BLEND and K if the face is a NON-BLEND,A blend is a computer-generated image created by combining together multiple photos of real human faces. A non-blend is a regular photo of a human face.,JK,,,,,,,,,,,,,,,,,,,,,,,,,,,,,,,,,,,,,,,,,,,,,,520.5603,0,8,8,39,1,109,0,0,0,0,1,98,,,,,,,,,,,,,,,,,,,,,,,,,,,,,,,,,,,,,,,,,,,,,,,,,,,,,,,,,,,,,,,,,,,,,,,,,,
,,,,357531,001,2023-08-08_21h23.17.450,fluency,2022.2.4,Win32,59.93407252,,,,,,,,,,,,,,,,,,,,,,,,,,,,,,,,,,,,,,,,,,,,,,,,,,,,,,,,,,,,,,,,,,,,,,,,,,,,,,,,,,0,0,0,0,1,,"[""k""]",[1.2445999999939659],1,"[""k""]",[1.2445000000000164],,,,,,,,,,,,,,,,,,,,,,,,,,,,,,,,,,,,,,,,,,,,,,,,,,,,,,,,,,,,,,,,,,,,,
,,,,357531,001,2023-08-08_21h23.17.450,fluency,2022.2.4,Win32,59.93407252,,,,,,,,,,,,,,,,,,,,,,,6,4,img/B04_06.jpg,BLEND,Press J if the face is a BLEND and K if the face is a NON-BLEND,A blend is a computer-generated image created by combining together multiple photos of real human faces. A non-blend is a regular photo of a human face.,JK,,,,,,,,,,,,,,,,,,,,,,,,,,,,,,,,6,4.2844,,,,,,,,,,,,,,0,8,8,39,1,,,,,,,,,,,,,space,1.6033,,,,,,,,,,,,,,,,,,,,,,,,,,,,,,,,,,,,,,,,,,,,,,,,,,,,,,,,,,,,,,,,,,,
,,,,357531,001,2023-08-08_21h23.17.450,fluency,2022.2.4,Win32,59.93407252,,,,,,,,,,,,,,,,,,,,,,,0,2,img/B02_00.jpg,BLEND,Press J if the face is a BLEND and K if the face is a NON-BLEND,A blend is a computer-generated image created by combining together multiple photos of real human faces. A non-blend is a regular photo of a human face.,JK,,,,,,,,,,,,,,,,,,,,,,,,,,,,,,,,,,,,,,,,,,,,,,531.5721,0,9,9,11,1,109,0,0,0,0,1,98,,,,,,,,,,,,,,,,,,,,,,,,,,,,,,,,,,,,,,,,,,,,,,,,,,,,,,,,,,,,,,,,,,,,,,,,,,
,,,,357531,001,2023-08-08_21h23.17.450,fluency,2022.2.4,Win32,59.93407252,,,,,,,,,,,,,,,,,,,,,,,,,,,,,,,,,,,,,,,,,,,,,,,,,,,,,,,,,,,,,,,,,,,,,,,,,,,,,,,,,,0,0,0,0,1,,"[""k""]",[1.1272999999970352],1,"[""k""]",[1.127200000002972],,,,,,,,,,,,,,,,,,,,,,,,,,,,,,,,,,,,,,,,,,,,,,,,,,,,,,,,,,,,,,,,,,,,,
,,,,357531,001,2023-08-08_21h23.17.450,fluency,2022.2.4,Win32,59.93407252,,,,,,,,,,,,,,,,,,,,,,,0,2,img/B02_00.jpg,BLEND,Press J if the face is a BLEND and K if the face is a NON-BLEND,A blend is a computer-generated image created by combining together multiple photos of real human faces. A non-blend is a regular photo of a human face.,JK,,,,,,,,,,,,,,,,,,,,,,,,,,,,,,,,4,4.6895,,,,,,,,,,,,,,0,9,9,11,1,,,,,,,,,,,,,space,1.3169,,,,,,,,,,,,,,,,,,,,,,,,,,,,,,,,,,,,,,,,,,,,,,,,,,,,,,,,,,,,,,,,,,,
,,,,357531,001,2023-08-08_21h23.17.450,fluency,2022.2.4,Win32,59.93407252,,,,,,,,,,,,,,,,,,,,,,,7,4,img/B04_07.jpg,BLEND,Press J if the face is a BLEND and K if the face is a NON-BLEND,A blend is a computer-generated image created by combining together multiple photos of real human faces. A non-blend is a regular photo of a human face.,JK,,,,,,,,,,,,,,,,,,,,,,,,,,,,,,,,,,,,,,,,,,,,,,541.7217,0,10,10,40,1,109,0,0,0,0,1,98,,,,,,,,,,,,,,,,,,,,,,,,,,,,,,,,,,,,,,,,,,,,,,,,,,,,,,,,,,,,,,,,,,,,,,,,,,
,,,,357531,001,2023-08-08_21h23.17.450,fluency,2022.2.4,Win32,59.93407252,,,,,,,,,,,,,,,,,,,,,,,,,,,,,,,,,,,,,,,,,,,,,,,,,,,,,,,,,,,,,,,,,,,,,,,,,,,,,,,,,,0,0,0,0,1,,"[""k""]",[1.2085000000000719],1,"[""k""]",[1.2081999999955997],,,,,,,,,,,,,,,,,,,,,,,,,,,,,,,,,,,,,,,,,,,,,,,,,,,,,,,,,,,,,,,,,,,,,
,,,,357531,001,2023-08-08_21h23.17.450,fluency,2022.2.4,Win32,59.93407252,,,,,,,,,,,,,,,,,,,,,,,7,4,img/B04_07.jpg,BLEND,Press J if the face is a BLEND and K if the face is a NON-BLEND,A blend is a computer-generated image created by combining together multiple photos of real human faces. A non-blend is a regular photo of a human face.,JK,,,,,,,,,,,,,,,,,,,,,,,,,,,,,,,,7,5.4049,,,,,,,,,,,,,,0,10,10,40,1,,,,,,,,,,,,,space,2.9198,,,,,,,,,,,,,,,,,,,,,,,,,,,,,,,,,,,,,,,,,,,,,,,,,,,,,,,,,,,,,,,,,,,
,,,,357531,001,2023-08-08_21h23.17.450,fluency,2022.2.4,Win32,59.93407252,,,,,,,,,,,,,,,,,,,,,,,7,5,img/B05_07.jpg,BLEND,Press J if the face is a BLEND and K if the face is a NON-BLEND,A blend is a computer-generated image created by combining together multiple photos of real human faces. A non-blend is a regular photo of a human face.,JK,,,,,,,,,,,,,,,,,,,,,,,,,,,,,,,,,,,,,,,,,,,,,,554.1886,0,11,11,51,1,109,0,0,0,0,1,98,,,,,,,,,,,,,,,,,,,,,,,,,,,,,,,,,,,,,,,,,,,,,,,,,,,,,,,,,,,,,,,,,,,,,,,,,,
,,,,357531,001,2023-08-08_21h23.17.450,fluency,2022.2.4,Win32,59.93407252,,,,,,,,,,,,,,,,,,,,,,,,,,,,,,,,,,,,,,,,,,,,,,,,,,,,,,,,,,,,,,,,,,,,,,,,,,,,,,,,,,0,0,0,0,1,,"[""k""]",[1.0446999999956006],1,"[""k""]",[1.0446000000015374],,,,,,,,,,,,,,,,,,,,,,,,,,,,,,,,,,,,,,,,,,,,,,,,,,,,,,,,,,,,,,,,,,,,,
,,,,357531,001,2023-08-08_21h23.17.450,fluency,2022.2.4,Win32,59.93407252,,,,,,,,,,,,,,,,,,,,,,,7,5,img/B05_07.jpg,BLEND,Press J if the face is a BLEND and K if the face is a NON-BLEND,A blend is a computer-generated image created by combining together multiple photos of real human faces. A non-blend is a regular photo of a human face.,JK,,,,,,,,,,,,,,,,,,,,,,,,,,,,,,,,7,3.2433,,,,,,,,,,,,,,0,11,11,51,1,,,,,,,,,,,,,space,2.4026,,,,,,,,,,,,,,,,,,,,,,,,,,,,,,,,,,,,,,,,,,,,,,,,,,,,,,,,,,,,,,,,,,,
,,,,357531,001,2023-08-08_21h23.17.450,fluency,2022.2.4,Win32,59.93407252,,,,,,,,,,,,,,,,,,,,,,,3,1,img/B01_03.jpg,BLEND,Press J if the face is a BLEND and K if the face is a NON-BLEND,A blend is a computer-generated image created by combining together multiple photos of real human faces. A non-blend is a regular photo of a human face.,JK,,,,,,,,,,,,,,,,,,,,,,,,,,,,,,,,,,,,,,,,,,,,,,564.9778,0,12,12,3,1,109,0,0,0,0,1,98,,,,,,,,,,,,,,,,,,,,,,,,,,,,,,,,,,,,,,,,,,,,,,,,,,,,,,,,,,,,,,,,,,,,,,,,,,
,,,,357531,001,2023-08-08_21h23.17.450,fluency,2022.2.4,Win32,59.93407252,,,,,,,,,,,,,,,,,,,,,,,,,,,,,,,,,,,,,,,,,,,,,,,,,,,,,,,,,,,,,,,,,,,,,,,,,,,,,,,,,,0,0,0,0,1,,"[""j""]",[1.100800000004483],1,"[""j""]",[1.100900000005936],,,,,,,,,,,,,,,,,,,,,,,,,,,,,,,,,,,,,,,,,,,,,,,,,,,,,,,,,,,,,,,,,,,,,
,,,,357531,001,2023-08-08_21h23.17.450,fluency,2022.2.4,Win32,59.93407252,,,,,,,,,,,,,,,,,,,,,,,3,1,img/B01_03.jpg,BLEND,Press J if the face is a BLEND and K if the face is a NON-BLEND,A blend is a computer-generated image created by combining together multiple photos of real human faces. A non-blend is a regular photo of a human face.,JK,,,,,,,,,,,,,,,,,,,,,,,,,,,,,,,,5,3.0951,,,,,,,,,,,,,,0,12,12,3,1,,,,,,,,,,,,,space,1.902,,,,,,,,,,,,,,,,,,,,,,,,,,,,,,,,,,,,,,,,,,,,,,,,,,,,,,,,,,,,,,,,,,,
,,,,357531,001,2023-08-08_21h23.17.450,fluency,2022.2.4,Win32,59.93407252,,,,,,,,,,,,,,,,,,,,,,,3,7,img/B07_03.jpg,BLEND,Press J if the face is a BLEND and K if the face is a NON-BLEND,A blend is a computer-generated image created by combining together multiple photos of real human faces. A non-blend is a regular photo of a human face.,JK,,,,,,,,,,,,,,,,,,,,,,,,,,,,,,,,,,,,,,,,,,,,,,574.1562,0,13,13,69,1,109,0,0,0,0,1,98,,,,,,,,,,,,,,,,,,,,,,,,,,,,,,,,,,,,,,,,,,,,,,,,,,,,,,,,,,,,,,,,,,,,,,,,,,
,,,,357531,001,2023-08-08_21h23.17.450,fluency,2022.2.4,Win32,59.93407252,,,,,,,,,,,,,,,,,,,,,,,,,,,,,,,,,,,,,,,,,,,,,,,,,,,,,,,,,,,,,,,,,,,,,,,,,,,,,,,,,,0,0,0,0,1,,"[""j""]",[1.3577999999970416],1,"[""j""]",[1.3576000000015256],,,,,,,,,,,,,,,,,,,,,,,,,,,,,,,,,,,,,,,,,,,,,,,,,,,,,,,,,,,,,,,,,,,,,
,,,,357531,001,2023-08-08_21h23.17.450,fluency,2022.2.4,Win32,59.93407252,,,,,,,,,,,,,,,,,,,,,,,3,7,img/B07_03.jpg,BLEND,Press J if the face is a BLEND and K if the face is a NON-BLEND,A blend is a computer-generated image created by combining together multiple photos of real human faces. A non-blend is a regular photo of a human face.,JK,,,,,,,,,,,,,,,,,,,,,,,,,,,,,,,,6,2.8727,,,,,,,,,,,,,,0,13,13,69,1,,,,,,,,,,,,,space,1.4015,,,,,,,,,,,,,,,,,,,,,,,,,,,,,,,,,,,,,,,,,,,,,,,,,,,,,,,,,,,,,,,,,,,
,,,,357531,001,2023-08-08_21h23.17.450,fluency,2022.2.4,Win32,59.93407252,,,,,,,,,,,,,,,,,,,,,,,1,7,img/B07_01.jpg,BLEND,Press J if the face is a BLEND and K if the face is a NON-BLEND,A blend is a computer-generated image created by combining together multiple photos of real human faces. A non-blend is a regular photo of a human face.,JK,,,,,,,,,,,,,,,,,,,,,,,,,,,,,,,,,,,,,,,,,,,,,,582.5728,0,14,14,67,1,109,0,0,0,0,1,98,,,,,,,,,,,,,,,,,,,,,,,,,,,,,,,,,,,,,,,,,,,,,,,,,,,,,,,,,,,,,,,,,,,,,,,,,,
,,,,357531,001,2023-08-08_21h23.17.450,fluency,2022.2.4,Win32,59.93407252,,,,,,,,,,,,,,,,,,,,,,,,,,,,,,,,,,,,,,,,,,,,,,,,,,,,,,,,,,,,,,,,,,,,,,,,,,,,,,,,,,0,0,0,0,1,,"[""k""]",[1.5102000000030102],1,"[""k""]",[1.509999999999991],,,,,,,,,,,,,,,,,,,,,,,,,,,,,,,,,,,,,,,,,,,,,,,,,,,,,,,,,,,,,,,,,,,,,
,,,,357531,001,2023-08-08_21h23.17.450,fluency,2022.2.4,Win32,59.93407252,,,,,,,,,,,,,,,,,,,,,,,1,7,img/B07_01.jpg,BLEND,Press J if the face is a BLEND and K if the face is a NON-BLEND,A blend is a computer-generated image created by combining together multiple photos of real human faces. A non-blend is a regular photo of a human face.,JK,,,,,,,,,,,,,,,,,,,,,,,,,,,,,,,,6,4.3801,,,,,,,,,,,,,,0,14,14,67,1,,,,,,,,,,,,,space,1.0041,,,,,,,,,,,,,,,,,,,,,,,,,,,,,,,,,,,,,,,,,,,,,,,,,,,,,,,,,,,,,,,,,,,
,,,,357531,001,2023-08-08_21h23.17.450,fluency,2022.2.4,Win32,59.93407252,,,,,,,,,,,,,,,,,,,,,,,9,9,img/B09_09.jpg,BLEND,Press J if the face is a BLEND and K if the face is a NON-BLEND,A blend is a computer-generated image created by combining together multiple photos of real human faces. A non-blend is a regular photo of a human face.,JK,,,,,,,,,,,,,,,,,,,,,,,,,,,,,,,,,,,,,,,,,,,,,,593.0739,0,15,15,97,1,109,0,0,0,0,1,98,,,,,,,,,,,,,,,,,,,,,,,,,,,,,,,,,,,,,,,,,,,,,,,,,,,,,,,,,,,,,,,,,,,,,,,,,,
,,,,357531,001,2023-08-08_21h23.17.450,fluency,2022.2.4,Win32,59.93407252,,,,,,,,,,,,,,,,,,,,,,,,,,,,,,,,,,,,,,,,,,,,,,,,,,,,,,,,,,,,,,,,,,,,,,,,,,,,,,,,,,0,0,0,0,1,,"[""j""]",[1.1212999999970634],1,"[""j""]",[1.1212999999970634],,,,,,,,,,,,,,,,,,,,,,,,,,,,,,,,,,,,,,,,,,,,,,,,,,,,,,,,,,,,,,,,,,,,,
,,,,357531,001,2023-08-08_21h23.17.450,fluency,2022.2.4,Win32,59.93407252,,,,,,,,,,,,,,,,,,,,,,,9,9,img/B09_09.jpg,BLEND,Press J if the face is a BLEND and K if the face is a NON-BLEND,A blend is a computer-generated image created by combining together multiple photos of real human faces. A non-blend is a regular photo of a human face.,JK,,,,,,,,,,,,,,,,,,,,,,,,,,,,,,,,6,3.7737,,,,,,,,,,,,,,0,15,15,97,1,,,,,,,,,,,,,space,0.9015,,,,,,,,,,,,,,,,,,,,,,,,,,,,,,,,,,,,,,,,,,,,,,,,,,,,,,,,,,,,,,,,,,,
,,,,357531,001,2023-08-08_21h23.17.450,fluency,2022.2.4,Win32,59.93407252,,,,,,,,,,,,,,,,,,,,,,,3,2,img/B02_03.jpg,BLEND,Press J if the face is a BLEND and K if the face is a NON-BLEND,A blend is a computer-generated image created by combining together multiple photos of real human faces. A non-blend is a regular photo of a human face.,JK,,,,,,,,,,,,,,,,,,,,,,,,,,,,,,,,,,,,,,,,,,,,,,601.9239,0,16,16,14,1,109,0,0,0,0,1,98,,,,,,,,,,,,,,,,,,,,,,,,,,,,,,,,,,,,,,,,,,,,,,,,,,,,,,,,,,,,,,,,,,,,,,,,,,
,,,,357531,001,2023-08-08_21h23.17.450,fluency,2022.2.4,Win32,59.93407252,,,,,,,,,,,,,,,,,,,,,,,,,,,,,,,,,,,,,,,,,,,,,,,,,,,,,,,,,,,,,,,,,,,,,,,,,,,,,,,,,,0,0,0,0,1,,"[""j""]",[1.9731999999954724],1,"[""j""]",[1.97300000000007],,,,,,,,,,,,,,,,,,,,,,,,,,,,,,,,,,,,,,,,,,,,,,,,,,,,,,,,,,,,,,,,,,,,,
,,,,357531,001,2023-08-08_21h23.17.450,fluency,2022.2.4,Win32,59.93407252,,,,,,,,,,,,,,,,,,,,,,,3,2,img/B02_03.jpg,BLEND,Press J if the face is a BLEND and K if the face is a NON-BLEND,A blend is a computer-generated image created by combining together multiple photos of real human faces. A non-blend is a regular photo of a human face.,JK,,,,,,,,,,,,,,,,,,,,,,,,,,,,,,,,5,1.4237,,,,,,,,,,,,,,0,16,16,14,1,,,,,,,,,,,,,space,1.3053,,,,,,,,,,,,,,,,,,,,,,,,,,,,,,,,,,,,,,,,,,,,,,,,,,,,,,,,,,,,,,,,,,,
,,,,357531,001,2023-08-08_21h23.17.450,fluency,2022.2.4,Win32,59.93407252,,,,,,,,,,,,,,,,,,,,,,,9,4,img/B04_09.jpg,BLEND,Press J if the face is a BLEND and K if the face is a NON-BLEND,A blend is a computer-generated image created by combining together multiple photos of real human faces. A non-blend is a regular photo of a human face.,JK,,,,,,,,,,,,,,,,,,,,,,,,,,,,,,,,,,,,,,,,,,,,,,608.7903,0,17,17,42,1,109,0,0,0,0,1,98,,,,,,,,,,,,,,,,,,,,,,,,,,,,,,,,,,,,,,,,,,,,,,,,,,,,,,,,,,,,,,,,,,,,,,,,,,
,,,,357531,001,2023-08-08_21h23.17.450,fluency,2022.2.4,Win32,59.93407252,,,,,,,,,,,,,,,,,,,,,,,,,,,,,,,,,,,,,,,,,,,,,,,,,,,,,,,,,,,,,,,,,,,,,,,,,,,,,,,,,,0,0,0,0,1,,"[""j""]",[2.8728000000044176],1,"[""j""]",[2.8728000000044176],,,,,,,,,,,,,,,,,,,,,,,,,,,,,,,,,,,,,,,,,,,,,,,,,,,,,,,,,,,,,,,,,,,,,
,,,,357531,001,2023-08-08_21h23.17.450,fluency,2022.2.4,Win32,59.93407252,,,,,,,,,,,,,,,,,,,,,,,9,4,img/B04_09.jpg,BLEND,Press J if the face is a BLEND and K if the face is a NON-BLEND,A blend is a computer-generated image created by combining together multiple photos of real human faces. A non-blend is a regular photo of a human face.,JK,,,,,,,,,,,,,,,,,,,,,,,,,,,,,,,,6,4.2101,,,,,,,,,,,,,,0,17,17,42,1,,,,,,,,,,,,,space,1.1338,,,,,,,,,,,,,,,,,,,,,,,,,,,,,,,,,,,,,,,,,,,,,,,,,,,,,,,,,,,,,,,,,,,
,,,,357531,001,2023-08-08_21h23.17.450,fluency,2022.2.4,Win32,59.93407252,,,,,,,,,,,,,,,,,,,,,,,1,5,img/B05_01.jpg,BLEND,Press J if the face is a BLEND and K if the face is a NON-BLEND,A blend is a computer-generated image created by combining together multiple photos of real human faces. A non-blend is a regular photo of a human face.,JK,,,,,,,,,,,,,,,,,,,,,,,,,,,,,,,,,,,,,,,,,,,,,,619.327,0,18,18,45,1,109,0,0,0,0,1,98,,,,,,,,,,,,,,,,,,,,,,,,,,,,,,,,,,,,,,,,,,,,,,,,,,,,,,,,,,,,,,,,,,,,,,,,,,
,,,,357531,001,2023-08-08_21h23.17.450,fluency,2022.2.4,Win32,59.93407252,,,,,,,,,,,,,,,,,,,,,,,,,,,,,,,,,,,,,,,,,,,,,,,,,,,,,,,,,,,,,,,,,,,,,,,,,,,,,,,,,,0,0,0,0,1,,"[""j""]",[1.212100000001442],1,"[""j""]",[1.211999999999989],,,,,,,,,,,,,,,,,,,,,,,,,,,,,,,,,,,,,,,,,,,,,,,,,,,,,,,,,,,,,,,,,,,,,
,,,,357531,001,2023-08-08_21h23.17.450,fluency,2022.2.4,Win32,59.93407252,,,,,,,,,,,,,,,,,,,,,,,1,5,img/B05_01.jpg,BLEND,Press J if the face is a BLEND and K if the face is a NON-BLEND,A blend is a computer-generated image created by combining together multiple photos of real human faces. A non-blend is a regular photo of a human face.,JK,,,,,,,,,,,,,,,,,,,,,,,,,,,,,,,,5,1.8418,,,,,,,,,,,,,,0,18,18,45,1,,,,,,,,,,,,,space,0.8848,,,,,,,,,,,,,,,,,,,,,,,,,,,,,,,,,,,,,,,,,,,,,,,,,,,,,,,,,,,,,,,,,,,
,,,,357531,001,2023-08-08_21h23.17.450,fluency,2022.2.4,Win32,59.93407252,,,,,,,,,,,,,,,,,,,,,,,8,1,img/B01_08.jpg,BLEND,Press J if the face is a BLEND and K if the face is a NON-BLEND,A blend is a computer-generated image created by combining together multiple photos of real human faces. A non-blend is a regular photo of a human face.,JK,,,,,,,,,,,,,,,,,,,,,,,,,,,,,,,,,,,,,,,,,,,,,,627.1738,0,19,19,8,1,109,0,0,0,0,1,98,,,,,,,,,,,,,,,,,,,,,,,,,,,,,,,,,,,,,,,,,,,,,,,,,,,,,,,,,,,,,,,,,,,,,,,,,,
,,,,357531,001,2023-08-08_21h23.17.450,fluency,2022.2.4,Win32,59.93407252,,,,,,,,,,,,,,,,,,,,,,,,,,,,,,,,,,,,,,,,,,,,,,,,,,,,,,,,,,,,,,,,,,,,,,,,,,,,,,,,,,0,0,0,0,1,,"[""j""]",[1.1469999999999345],1,"[""j""]",[1.1467000000029657],,,,,,,,,,,,,,,,,,,,,,,,,,,,,,,,,,,,,,,,,,,,,,,,,,,,,,,,,,,,,,,,,,,,,
,,,,357531,001,2023-08-08_21h23.17.450,fluency,2022.2.4,Win32,59.93407252,,,,,,,,,,,,,,,,,,,,,,,8,1,img/B01_08.jpg,BLEND,Press J if the face is a BLEND and K if the face is a NON-BLEND,A blend is a computer-generated image created by combining together multiple photos of real human faces. A non-blend is a regular photo of a human face.,JK,,,,,,,,,,,,,,,,,,,,,,,,,,,,,,,,7,3.2271,,,,,,,,,,,,,,0,19,19,8,1,,,,,,,,,,,,,space,0.8717,,,,,,,,,,,,,,,,,,,,,,,,,,,,,,,,,,,,,,,,,,,,,,,,,,,,,,,,,,,,,,,,,,,
,,,,357531,001,2023-08-08_21h23.17.450,fluency,2022.2.4,Win32,59.93407252,,,,,,,,,,,,,,,,,,,,,,,0,3,img/B03_00.jpg,BLEND,Press J if the face is a BLEND and K if the face is a NON-BLEND,A blend is a computer-generated image created by combining together multiple photos of real human faces. A non-blend is a regular photo of a human face.,JK,,,,,,,,,,,,,,,,,,,,,,,,,,,,,,,,,,,,,,,,,,,,,,635.4412,0,20,20,22,1,109,0,0,0,0,1,98,,,,,,,,,,,,,,,,,,,,,,,,,,,,,,,,,,,,,,,,,,,,,,,,,,,,,,,,,,,,,,,,,,,,,,,,,,
,,,,357531,001,2023-08-08_21h23.17.450,fluency,2022.2.4,Win32,59.93407252,,,,,,,,,,,,,,,,,,,,,,,,,,,,,,,,,,,,,,,,,,,,,,,,,,,,,,,,,,,,,,,,,,,,,,,,,,,,,,,,,,0,0,0,0,1,,"[""k""]",[0.855700000002912],1,"[""k""]",[0.8553999999984399],,,,,,,,,,,,,,,,,,,,,,,,,,,,,,,,,,,,,,,,,,,,,,,,,,,,,,,,,,,,,,,,,,,,,
,,,,357531,001,2023-08-08_21h23.17.450,fluency,2022.2.4,Win32,59.93407252,,,,,,,,,,,,,,,,,,,,,,,0,3,img/B03_00.jpg,BLEND,Press J if the face is a BLEND and K if the face is a NON-BLEND,A blend is a computer-generated image created by combining together multiple photos of real human faces. A non-blend is a regular photo of a human face.,JK,,,,,,,,,,,,,,,,,,,,,,,,,,,,,,,,6,3.4749,,,,,,,,,,,,,,0,20,20,22,1,,,,,,,,,,,,,space,1.1704,,,,,,,,,,,,,,,,,,,,,,,,,,,,,,,,,,,,,,,,,,,,,,,,,,,,,,,,,,,,,,,,,,,
,,,,357531,001,2023-08-08_21h23.17.450,fluency,2022.2.4,Win32,59.93407252,,,,,,,,,,,,,,,,,,,,,,,6,10,img/B10_06.jpg,BLEND,Press J if the face is a BLEND and K if the face is a NON-BLEND,A blend is a computer-generated image created by combining together multiple photos of real human faces. A non-blend is a regular photo of a human face.,JK,,,,,,,,,,,,,,,,,,,,,,,,,,,,,,,,,,,,,,,,,,,,,,645.2755,0,21,21,105,1,109,0,0,0,0,1,98,,,,,,,,,,,,,,,,,,,,,,,,,,,,,,,,,,,,,,,,,,,,,,,,,,,,,,,,,,,,,,,,,,,,,,,,,,
,,,,357531,001,2023-08-08_21h23.17.450,fluency,2022.2.4,Win32,59.93407252,,,,,,,,,,,,,,,,,,,,,,,,,,,,,,,,,,,,,,,,,,,,,,,,,,,,,,,,,,,,,,,,,,,,,,,,,,,,,,,,,,0,0,0,0,1,,"[""k""]",[1.2587000000030457],1,"[""k""]",[1.2585999999939759],,,,,,,,,,,,,,,,,,,,,,,,,,,,,,,,,,,,,,,,,,,,,,,,,,,,,,,,,,,,,,,,,,,,,
,,,,357531,001,2023-08-08_21h23.17.450,fluency,2022.2.4,Win32,59.93407252,,,,,,,,,,,,,,,,,,,,,,,6,10,img/B10_06.jpg,BLEND,Press J if the face is a BLEND and K if the face is a NON-BLEND,A blend is a computer-generated image created by combining together multiple photos of real human faces. A non-blend is a regular photo of a human face.,JK,,,,,,,,,,,,,,,,,,,,,,,,,,,,,,,,5,4.0351,,,,,,,,,,,,,,0,21,21,105,1,,,,,,,,,,,,,space,0.8166,,,,,,,,,,,,,,,,,,,,,,,,,,,,,,,,,,,,,,,,,,,,,,,,,,,,,,,,,,,,,,,,,,,
,,,,357531,001,2023-08-08_21h23.17.450,fluency,2022.2.4,Win32,59.93407252,,,,,,,,,,,,,,,,,,,,,,,5,3,img/B03_05.jpg,BLEND,Press J if the face is a BLEND and K if the face is a NON-BLEND,A blend is a computer-generated image created by combining together multiple photos of real human faces. A non-blend is a regular photo of a human face.,JK,,,,,,,,,,,,,,,,,,,,,,,,,,,,,,,,,,,,,,,,,,,,,,655.2581,0,22,22,27,1,109,0,0,0,0,1,98,,,,,,,,,,,,,,,,,,,,,,,,,,,,,,,,,,,,,,,,,,,,,,,,,,,,,,,,,,,,,,,,,,,,,,,,,,
,,,,357531,001,2023-08-08_21h23.17.450,fluency,2022.2.4,Win32,59.93407252,,,,,,,,,,,,,,,,,,,,,,,,,,,,,,,,,,,,,,,,,,,,,,,,,,,,,,,,,,,,,,,,,,,,,,,,,,,,,,,,,,0,0,0,0,1,,"[""k""]",[1.4288999999985208],1,"[""k""]",[1.4288999999985208],,,,,,,,,,,,,,,,,,,,,,,,,,,,,,,,,,,,,,,,,,,,,,,,,,,,,,,,,,,,,,,,,,,,,
,,,,357531,001,2023-08-08_21h23.17.450,fluency,2022.2.4,Win32,59.93407252,,,,,,,,,,,,,,,,,,,,,,,5,3,img/B03_05.jpg,BLEND,Press J if the face is a BLEND and K if the face is a NON-BLEND,A blend is a computer-generated image created by combining together multiple photos of real human faces. A non-blend is a regular photo of a human face.,JK,,,,,,,,,,,,,,,,,,,,,,,,,,,,,,,,5,2.7398,,,,,,,,,,,,,,0,22,22,27,1,,,,,,,,,,,,,space,0.7014,,,,,,,,,,,,,,,,,,,,,,,,,,,,,,,,,,,,,,,,,,,,,,,,,,,,,,,,,,,,,,,,,,,
,,,,357531,001,2023-08-08_21h23.17.450,fluency,2022.2.4,Win32,59.93407252,,,,,,,,,,,,,,,,,,,,,,,4,6,img/B06_04.jpg,BLEND,Press J if the face is a BLEND and K if the face is a NON-BLEND,A blend is a computer-generated image created by combining together multiple photos of real human faces. A non-blend is a regular photo of a human face.,JK,,,,,,,,,,,,,,,,,,,,,,,,,,,,,,,,,,,,,,,,,,,,,,663.842,0,23,23,59,1,109,0,0,0,0,1,98,,,,,,,,,,,,,,,,,,,,,,,,,,,,,,,,,,,,,,,,,,,,,,,,,,,,,,,,,,,,,,,,,,,,,,,,,,
,,,,357531,001,2023-08-08_21h23.17.450,fluency,2022.2.4,Win32,59.93407252,,,,,,,,,,,,,,,,,,,,,,,,,,,,,,,,,,,,,,,,,,,,,,,,,,,,,,,,,,,,,,,,,,,,,,,,,,,,,,,,,,0,0,0,0,1,,"[""j""]",[1.0783999999985099],1,"[""j""]",[1.0783999999985099],,,,,,,,,,,,,,,,,,,,,,,,,,,,,,,,,,,,,,,,,,,,,,,,,,,,,,,,,,,,,,,,,,,,,
,,,,357531,001,2023-08-08_21h23.17.450,fluency,2022.2.4,Win32,59.93407252,,,,,,,,,,,,,,,,,,,,,,,4,6,img/B06_04.jpg,BLEND,Press J if the face is a BLEND and K if the face is a NON-BLEND,A blend is a computer-generated image created by combining together multiple photos of real human faces. A non-blend is a regular photo of a human face.,JK,,,,,,,,,,,,,,,,,,,,,,,,,,,,,,,,4,1.9794,,,,,,,,,,,,,,0,23,23,59,1,,,,,,,,,,,,,space,0.8354,,,,,,,,,,,,,,,,,,,,,,,,,,,,,,,,,,,,,,,,,,,,,,,,,,,,,,,,,,,,,,,,,,,
,,,,357531,001,2023-08-08_21h23.17.450,fluency,2022.2.4,Win32,59.93407252,,,,,,,,,,,,,,,,,,,,,,,6,9,img/B09_06.jpg,BLEND,Press J if the face is a BLEND and K if the face is a NON-BLEND,A blend is a computer-generated image created by combining together multiple photos of real human faces. A non-blend is a regular photo of a human face.,JK,,,,,,,,,,,,,,,,,,,,,,,,,,,,,,,,,,,,,,,,,,,,,,671.7919,0,24,24,94,1,109,0,0,0,0,1,98,,,,,,,,,,,,,,,,,,,,,,,,,,,,,,,,,,,,,,,,,,,,,,,,,,,,,,,,,,,,,,,,,,,,,,,,,,
,,,,357531,001,2023-08-08_21h23.17.450,fluency,2022.2.4,Win32,59.93407252,,,,,,,,,,,,,,,,,,,,,,,,,,,,,,,,,,,,,,,,,,,,,,,,,,,,,,,,,,,,,,,,,,,,,,,,,,,,,,,,,,0,0,0,0,1,,"[""j""]",[1.4920000000000755],1,"[""j""]",[1.491899999998509],,,,,,,,,,,,,,,,,,,,,,,,,,,,,,,,,,,,,,,,,,,,,,,,,,,,,,,,,,,,,,,,,,,,,
,,,,357531,001,2023-08-08_21h23.17.450,fluency,2022.2.4,Win32,59.93407252,,,,,,,,,,,,,,,,,,,,,,,6,9,img/B09_06.jpg,BLEND,Press J if the face is a BLEND and K if the face is a NON-BLEND,A blend is a computer-generated image created by combining together multiple photos of real human faces. A non-blend is a regular photo of a human face.,JK,,,,,,,,,,,,,,,,,,,,,,,,,,,,,,,,5,1.6931,,,,,,,,,,,,,,0,24,24,94,1,,,,,,,,,,,,,space,0.9992,,,,,,,,,,,,,,,,,,,,,,,,,,,,,,,,,,,,,,,,,,,,,,,,,,,,,,,,,,,,,,,,,,,
,,,,357531,001,2023-08-08_21h23.17.450,fluency,2022.2.4,Win32,59.93407252,,,,,,,,,,,,,,,,,,,,,,,0,8,img/B08_00.jpg,BLEND,Press J if the face is a BLEND and K if the face is a NON-BLEND,A blend is a computer-generated image created by combining together multiple photos of real human faces. A non-blend is a regular photo of a human face.,JK,,,,,,,,,,,,,,,,,,,,,,,,,,,,,,,,,,,,,,,,,,,,,,679.6255,0,25,25,77,1,109,0,0,0,0,1,98,,,,,,,,,,,,,,,,,,,,,,,,,,,,,,,,,,,,,,,,,,,,,,,,,,,,,,,,,,,,,,,,,,,,,,,,,,
,,,,357531,001,2023-08-08_21h23.17.450,fluency,2022.2.4,Win32,59.93407252,,,,,,,,,,,,,,,,,,,,,,,,,,,,,,,,,,,,,,,,,,,,,,,,,,,,,,,,,,,,,,,,,,,,,,,,,,,,,,,,,,0,0,0,0,1,,"[""j""]",[1.1400000000001],1,"[""j""]",[1.1398999999985335],,,,,,,,,,,,,,,,,,,,,,,,,,,,,,,,,,,,,,,,,,,,,,,,,,,,,,,,,,,,,,,,,,,,,
,,,,357531,001,2023-08-08_21h23.17.450,fluency,2022.2.4,Win32,59.93407252,,,,,,,,,,,,,,,,,,,,,,,0,8,img/B08_00.jpg,BLEND,Press J if the face is a BLEND and K if the face is a NON-BLEND,A blend is a computer-generated image created by combining together multiple photos of real human faces. A non-blend is a regular photo of a human face.,JK,,,,,,,,,,,,,,,,,,,,,,,,,,,,,,,,3,1.443,,,,,,,,,,,,,,0,25,25,77,1,,,,,,,,,,,,,space,0.8401,,,,,,,,,,,,,,,,,,,,,,,,,,,,,,,,,,,,,,,,,,,,,,,,,,,,,,,,,,,,,,,,,,,
,,,,357531,001,2023-08-08_21h23.17.450,fluency,2022.2.4,Win32,59.93407252,,,,,,,,,,,,,,,,,,,,,,,2,1,img/B01_02.jpg,BLEND,Press J if the face is a BLEND and K if the face is a NON-BLEND,A blend is a computer-generated image created by combining together multiple photos of real human faces. A non-blend is a regular photo of a human face.,JK,,,,,,,,,,,,,,,,,,,,,,,,,,,,,,,,,,,,,,,,,,,,,,686.0422,0,26,26,2,1,109,0,0,0,0,1,98,,,,,,,,,,,,,,,,,,,,,,,,,,,,,,,,,,,,,,,,,,,,,,,,,,,,,,,,,,,,,,,,,,,,,,,,,,
,,,,357531,001,2023-08-08_21h23.17.450,fluency,2022.2.4,Win32,59.93407252,,,,,,,,,,,,,,,,,,,,,,,,,,,,,,,,,,,,,,,,,,,,,,,,,,,,,,,,,,,,,,,,,,,,,,,,,,,,,,,,,,0,0,0,0,1,,"[""j""]",[1.129100000001472],1,"[""j""]",[1.129000000000019],,,,,,,,,,,,,,,,,,,,,,,,,,,,,,,,,,,,,,,,,,,,,,,,,,,,,,,,,,,,,,,,,,,,,
,,,,357531,001,2023-08-08_21h23.17.450,fluency,2022.2.4,Win32,59.93407252,,,,,,,,,,,,,,,,,,,,,,,2,1,img/B01_02.jpg,BLEND,Press J if the face is a BLEND and K if the face is a NON-BLEND,A blend is a computer-generated image created by combining together multiple photos of real human faces. A non-blend is a regular photo of a human face.,JK,,,,,,,,,,,,,,,,,,,,,,,,,,,,,,,,5,1.5804,,,,,,,,,,,,,,0,26,26,2,1,,,,,,,,,,,,,space,1.0688,,,,,,,,,,,,,,,,,,,,,,,,,,,,,,,,,,,,,,,,,,,,,,,,,,,,,,,,,,,,,,,,,,,
,,,,357531,001,2023-08-08_21h23.17.450,fluency,2022.2.4,Win32,59.93407252,,,,,,,,,,,,,,,,,,,,,,,8,6,img/B06_08.jpg,BLEND,Press J if the face is a BLEND and K if the face is a NON-BLEND,A blend is a computer-generated image created by combining together multiple photos of real human faces. A non-blend is a regular photo of a human face.,JK,,,,,,,,,,,,,,,,,,,,,,,,,,,,,,,,,,,,,,,,,,,,,,693.826,0,27,27,63,1,109,0,0,0,0,1,98,,,,,,,,,,,,,,,,,,,,,,,,,,,,,,,,,,,,,,,,,,,,,,,,,,,,,,,,,,,,,,,,,,,,,,,,,,
,,,,357531,001,2023-08-08_21h23.17.450,fluency,2022.2.4,Win32,59.93407252,,,,,,,,,,,,,,,,,,,,,,,,,,,,,,,,,,,,,,,,,,,,,,,,,,,,,,,,,,,,,,,,,,,,,,,,,,,,,,,,,,0,0,0,0,1,,"[""k""]",[1.288799999996968],1,"[""k""]",[1.288600000001452],,,,,,,,,,,,,,,,,,,,,,,,,,,,,,,,,,,,,,,,,,,,,,,,,,,,,,,,,,,,,,,,,,,,,
,,,,357531,001,2023-08-08_21h23.17.450,fluency,2022.2.4,Win32,59.93407252,,,,,,,,,,,,,,,,,,,,,,,8,6,img/B06_08.jpg,BLEND,Press J if the face is a BLEND and K if the face is a NON-BLEND,A blend is a computer-generated image created by combining together multiple photos of real human faces. A non-blend is a regular photo of a human face.,JK,,,,,,,,,,,,,,,,,,,,,,,,,,,,,,,,7,3.5447,,,,,,,,,,,,,,0,27,27,63,1,,,,,,,,,,,,,space,0.8193,,,,,,,,,,,,,,,,,,,,,,,,,,,,,,,,,,,,,,,,,,,,,,,,,,,,,,,,,,,,,,,,,,,
,,,,357531,001,2023-08-08_21h23.17.450,fluency,2022.2.4,Win32,59.93407252,,,,,,,,,,,,,,,,,,,,,,,1,4,img/B04_01.jpg,BLEND,Press J if the face is a BLEND and K if the face is a NON-BLEND,A blend is a computer-generated image created by combining together multiple photos of real human faces. A non-blend is a regular photo of a human face.,JK,,,,,,,,,,,,,,,,,,,,,,,,,,,,,,,,,,,,,,,,,,,,,,702.3761,0,28,28,34,1,109,0,0,0,0,1,98,,,,,,,,,,,,,,,,,,,,,,,,,,,,,,,,,,,,,,,,,,,,,,,,,,,,,,,,,,,,,,,,,,,,,,,,,,
,,,,357531,001,2023-08-08_21h23.17.450,fluency,2022.2.4,Win32,59.93407252,,,,,,,,,,,,,,,,,,,,,,,,,,,,,,,,,,,,,,,,,,,,,,,,,,,,,,,,,,,,,,,,,,,,,,,,,,,,,,,,,,0,0,0,0,1,,"[""k""]",[1.6702999999970416],1,"[""k""]",[1.6700000000000728],,,,,,,,,,,,,,,,,,,,,,,,,,,,,,,,,,,,,,,,,,,,,,,,,,,,,,,,,,,,,,,,,,,,,
,,,,357531,001,2023-08-08_21h23.17.450,fluency,2022.2.4,Win32,59.93407252,,,,,,,,,,,,,,,,,,,,,,,1,4,img/B04_01.jpg,BLEND,Press J if the face is a BLEND and K if the face is a NON-BLEND,A blend is a computer-generated image created by combining together multiple photos of real human faces. A non-blend is a regular photo of a human face.,JK,,,,,,,,,,,,,,,,,,,,,,,,,,,,,,,,7,2.2572,,,,,,,,,,,,,,0,28,28,34,1,,,,,,,,,,,,,space,3.7984,,,,,,,,,,,,,,,,,,,,,,,,,,,,,,,,,,,,,,,,,,,,,,,,,,,,,,,,,,,,,,,,,,,
,,,,357531,001,2023-08-08_21h23.17.450,fluency,2022.2.4,Win32,59.93407252,,,,,,,,,,,,,,,,,,,,,,,9,3,img/B03_09.jpg,BLEND,Press J if the face is a BLEND and K if the face is a NON-BLEND,A blend is a computer-generated image created by combining together multiple photos of real human faces. A non-blend is a regular photo of a human face.,JK,,,,,,,,,,,,,,,,,,,,,,,,,,,,,,,,,,,,,,,,,,,,,,712.5597,0,29,29,31,1,109,0,0,0,0,1,98,,,,,,,,,,,,,,,,,,,,,,,,,,,,,,,,,,,,,,,,,,,,,,,,,,,,,,,,,,,,,,,,,,,,,,,,,,
,,,,357531,001,2023-08-08_21h23.17.450,fluency,2022.2.4,Win32,59.93407252,,,,,,,,,,,,,,,,,,,,,,,,,,,,,,,,,,,,,,,,,,,,,,,,,,,,,,,,,,,,,,,,,,,,,,,,,,,,,,,,,,0,0,0,0,1,,"[""j""]",[1.7943000000044549],1,"[""j""]",[1.7941000000015492],,,,,,,,,,,,,,,,,,,,,,,,,,,,,,,,,,,,,,,,,,,,,,,,,,,,,,,,,,,,,,,,,,,,,
,,,,357531,001,2023-08-08_21h23.17.450,fluency,2022.2.4,Win32,59.93407252,,,,,,,,,,,,,,,,,,,,,,,9,3,img/B03_09.jpg,BLEND,Press J if the face is a BLEND and K if the face is a NON-BLEND,A blend is a computer-generated image created by combining together multiple photos of real human faces. A non-blend is a regular photo of a human face.,JK,,,,,,,,,,,,,,,,,,,,,,,,,,,,,,,,6,1.9951,,,,,,,,,,,,,,0,29,29,31,1,,,,,,,,,,,,,space,0.9853,,,,,,,,,,,,,,,,,,,,,,,,,,,,,,,,,,,,,,,,,,,,,,,,,,,,,,,,,,,,,,,,,,,
,,,,357531,001,2023-08-08_21h23.17.450,fluency,2022.2.4,Win32,59.93407252,,,,,,,,,,,,,,,,,,,,,,,9,5,img/B05_09.jpg,BLEND,Press J if the face is a BLEND and K if the face is a NON-BLEND,A blend is a computer-generated image created by combining together multiple photos of real human faces. A non-blend is a regular photo of a human face.,JK,,,,,,,,,,,,,,,,,,,,,,,,,,,,,,,,,,,,,,,,,,,,,,719.6771,0,30,30,53,1,109,0,0,0,0,1,98,,,,,,,,,,,,,,,,,,,,,,,,,,,,,,,,,,,,,,,,,,,,,,,,,,,,,,,,,,,,,,,,,,,,,,,,,,
,,,,357531,001,2023-08-08_21h23.17.450,fluency,2022.2.4,Win32,59.93407252,,,,,,,,,,,,,,,,,,,,,,,,,,,,,,,,,,,,,,,,,,,,,,,,,,,,,,,,,,,,,,,,,,,,,,,,,,,,,,,,,,0,0,0,0,1,,"[""k""]",[1.2241999999955624],1,"[""k""]",[1.2238999999985936],,,,,,,,,,,,,,,,,,,,,,,,,,,,,,,,,,,,,,,,,,,,,,,,,,,,,,,,,,,,,,,,,,,,,
,,,,357531,001,2023-08-08_21h23.17.450,fluency,2022.2.4,Win32,59.93407252,,,,,,,,,,,,,,,,,,,,,,,9,5,img/B05_09.jpg,BLEND,Press J if the face is a BLEND and K if the face is a NON-BLEND,A blend is a computer-generated image created by combining together multiple photos of real human faces. A non-blend is a regular photo of a human face.,JK,,,,,,,,,,,,,,,,,,,,,,,,,,,,,,,,6,2.6028,,,,,,,,,,,,,,0,30,30,53,1,,,,,,,,,,,,,space,1.1425,,,,,,,,,,,,,,,,,,,,,,,,,,,,,,,,,,,,,,,,,,,,,,,,,,,,,,,,,,,,,,,,,,,
,,,,357531,001,2023-08-08_21h23.17.450,fluency,2022.2.4,Win32,59.93407252,,,,,,,,,,,,,,,,,,,,,,,5,8,img/B08_05.jpg,BLEND,Press J if the face is a BLEND and K if the face is a NON-BLEND,A blend is a computer-generated image created by combining together multiple photos of real human faces. A non-blend is a regular photo of a human face.,JK,,,,,,,,,,,,,,,,,,,,,,,,,,,,,,,,,,,,,,,,,,,,,,727.5765,0,31,31,82,1,109,0,0,0,0,1,98,,,,,,,,,,,,,,,,,,,,,,,,,,,,,,,,,,,,,,,,,,,,,,,,,,,,,,,,,,,,,,,,,,,,,,,,,,
,,,,357531,001,2023-08-08_21h23.17.450,fluency,2022.2.4,Win32,59.93407252,,,,,,,,,,,,,,,,,,,,,,,,,,,,,,,,,,,,,,,,,,,,,,,,,,,,,,,,,,,,,,,,,,,,,,,,,,,,,,,,,,0,0,0,0,1,,"[""j""]",[1.095599999993965],1,"[""j""]",[1.095399999998449],,,,,,,,,,,,,,,,,,,,,,,,,,,,,,,,,,,,,,,,,,,,,,,,,,,,,,,,,,,,,,,,,,,,,
,,,,357531,001,2023-08-08_21h23.17.450,fluency,2022.2.4,Win32,59.93407252,,,,,,,,,,,,,,,,,,,,,,,5,8,img/B08_05.jpg,BLEND,Press J if the face is a BLEND and K if the face is a NON-BLEND,A blend is a computer-generated image created by combining together multiple photos of real human faces. A non-blend is a regular photo of a human face.,JK,,,,,,,,,,,,,,,,,,,,,,,,,,,,,,,,4,2.3777,,,,,,,,,,,,,,0,31,31,82,1,,,,,,,,,,,,,space,0.7695,,,,,,,,,,,,,,,,,,,,,,,,,,,,,,,,,,,,,,,,,,,,,,,,,,,,,,,,,,,,,,,,,,,
,,,,357531,001,2023-08-08_21h23.17.450,fluency,2022.2.4,Win32,59.93407252,,,,,,,,,,,,,,,,,,,,,,,2,8,img/B08_02.jpg,BLEND,Press J if the face is a BLEND and K if the face is a NON-BLEND,A blend is a computer-generated image created by combining together multiple photos of real human faces. A non-blend is a regular photo of a human face.,JK,,,,,,,,,,,,,,,,,,,,,,,,,,,,,,,,,,,,,,,,,,,,,,734.8436,0,32,32,79,1,109,0,0,0,0,1,98,,,,,,,,,,,,,,,,,,,,,,,,,,,,,,,,,,,,,,,,,,,,,,,,,,,,,,,,,,,,,,,,,,,,,,,,,,
,,,,357531,001,2023-08-08_21h23.17.450,fluency,2022.2.4,Win32,59.93407252,,,,,,,,,,,,,,,,,,,,,,,,,,,,,,,,,,,,,,,,,,,,,,,,,,,,,,,,,,,,,,,,,,,,,,,,,,,,,,,,,,0,0,0,0,1,,"[""j""]",[1.188100000001441],1,"[""j""]",[1.1878999999985353],,,,,,,,,,,,,,,,,,,,,,,,,,,,,,,,,,,,,,,,,,,,,,,,,,,,,,,,,,,,,,,,,,,,,
,,,,357531,001,2023-08-08_21h23.17.450,fluency,2022.2.4,Win32,59.93407252,,,,,,,,,,,,,,,,,,,,,,,2,8,img/B08_02.jpg,BLEND,Press J if the face is a BLEND and K if the face is a NON-BLEND,A blend is a computer-generated image created by combining together multiple photos of real human faces. A non-blend is a regular photo of a human face.,JK,,,,,,,,,,,,,,,,,,,,,,,,,,,,,,,,4,5.4085,,,,,,,,,,,,,,0,32,32,79,1,,,,,,,,,,,,,space,0.9003,,,,,,,,,,,,,,,,,,,,,,,,,,,,,,,,,,,,,,,,,,,,,,,,,,,,,,,,,,,,,,,,,,,
,,,,357531,001,2023-08-08_21h23.17.450,fluency,2022.2.4,Win32,59.93407252,,,,,,,,,,,,,,,,,,,,,,,2,6,img/B06_02.jpg,BLEND,Press J if the face is a BLEND and K if the face is a NON-BLEND,A blend is a computer-generated image created by combining together multiple photos of real human faces. A non-blend is a regular photo of a human face.,JK,,,,,,,,,,,,,,,,,,,,,,,,,,,,,,,,,,,,,,,,,,,,,,746.3105,0,33,33,57,1,109,0,0,0,0,1,98,,,,,,,,,,,,,,,,,,,,,,,,,,,,,,,,,,,,,,,,,,,,,,,,,,,,,,,,,,,,,,,,,,,,,,,,,,
,,,,357531,001,2023-08-08_21h23.17.450,fluency,2022.2.4,Win32,59.93407252,,,,,,,,,,,,,,,,,,,,,,,,,,,,,,,,,,,,,,,,,,,,,,,,,,,,,,,,,,,,,,,,,,,,,,,,,,,,,,,,,,0,0,0,0,1,,"[""k""]",[1.5955000000000155],1,"[""k""]",[1.5955000000000155],,,,,,,,,,,,,,,,,,,,,,,,,,,,,,,,,,,,,,,,,,,,,,,,,,,,,,,,,,,,,,,,,,,,,
,,,,357531,001,2023-08-08_21h23.17.450,fluency,2022.2.4,Win32,59.93407252,,,,,,,,,,,,,,,,,,,,,,,2,6,img/B06_02.jpg,BLEND,Press J if the face is a BLEND and K if the face is a NON-BLEND,A blend is a computer-generated image created by combining together multiple photos of real human faces. A non-blend is a regular photo of a human face.,JK,,,,,,,,,,,,,,,,,,,,,,,,,,,,,,,,5,3.4287,,,,,,,,,,,,,,0,33,33,57,1,,,,,,,,,,,,,space,1.052,,,,,,,,,,,,,,,,,,,,,,,,,,,,,,,,,,,,,,,,,,,,,,,,,,,,,,,,,,,,,,,,,,,
,,,,357531,001,2023-08-08_21h23.17.450,fluency,2022.2.4,Win32,59.93407252,,,,,,,,,,,,,,,,,,,,,,,8,2,img/B02_08.jpg,BLEND,Press J if the face is a BLEND and K if the face is a NON-BLEND,A blend is a computer-generated image created by combining together multiple photos of real human faces. A non-blend is a regular photo of a human face.,JK,,,,,,,,,,,,,,,,,,,,,,,,,,,,,,,,,,,,,,,,,,,,,,755.978,0,34,34,19,1,109,0,0,0,0,1,98,,,,,,,,,,,,,,,,,,,,,,,,,,,,,,,,,,,,,,,,,,,,,,,,,,,,,,,,,,,,,,,,,,,,,,,,,,
,,,,357531,001,2023-08-08_21h23.17.450,fluency,2022.2.4,Win32,59.93407252,,,,,,,,,,,,,,,,,,,,,,,,,,,,,,,,,,,,,,,,,,,,,,,,,,,,,,,,,,,,,,,,,,,,,,,,,,,,,,,,,,0,0,0,0,1,,"[""k""]",[1.4734000000058813],1,"[""k""]",[1.4732999999970389],,,,,,,,,,,,,,,,,,,,,,,,,,,,,,,,,,,,,,,,,,,,,,,,,,,,,,,,,,,,,,,,,,,,,
,,,,357531,001,2023-08-08_21h23.17.450,fluency,2022.2.4,Win32,59.93407252,,,,,,,,,,,,,,,,,,,,,,,8,2,img/B02_08.jpg,BLEND,Press J if the face is a BLEND and K if the face is a NON-BLEND,A blend is a computer-generated image created by combining together multiple photos of real human faces. A non-blend is a regular photo of a human face.,JK,,,,,,,,,,,,,,,,,,,,,,,,,,,,,,,,7,2.8567,,,,,,,,,,,,,,0,34,34,19,1,,,,,,,,,,,,,space,1.1868,,,,,,,,,,,,,,,,,,,,,,,,,,,,,,,,,,,,,,,,,,,,,,,,,,,,,,,,,,,,,,,,,,,
,,,,357531,001,2023-08-08_21h23.17.450,fluency,2022.2.4,Win32,59.93407252,,,,,,,,,,,,,,,,,,,,,,,5,4,img/B04_05.jpg,BLEND,Press J if the face is a BLEND and K if the face is a NON-BLEND,A blend is a computer-generated image created by combining together multiple photos of real human faces. A non-blend is a regular photo of a human face.,JK,,,,,,,,,,,,,,,,,,,,,,,,,,,,,,,,,,,,,,,,,,,,,,764.211,0,35,35,38,1,109,0,0,0,0,1,98,,,,,,,,,,,,,,,,,,,,,,,,,,,,,,,,,,,,,,,,,,,,,,,,,,,,,,,,,,,,,,,,,,,,,,,,,,
,,,,357531,001,2023-08-08_21h23.17.450,fluency,2022.2.4,Win32,59.93407252,,,,,,,,,,,,,,,,,,,,,,,,,,,,,,,,,,,,,,,,,,,,,,,,,,,,,,,,,,,,,,,,,,,,,,,,,,,,,,,,,,0,0,0,0,1,,"[""k""]",[1.3631000000015092],1,"[""k""]",[1.3630999999940059],,,,,,,,,,,,,,,,,,,,,,,,,,,,,,,,,,,,,,,,,,,,,,,,,,,,,,,,,,,,,,,,,,,,,
,,,,357531,001,2023-08-08_21h23.17.450,fluency,2022.2.4,Win32,59.93407252,,,,,,,,,,,,,,,,,,,,,,,5,4,img/B04_05.jpg,BLEND,Press J if the face is a BLEND and K if the face is a NON-BLEND,A blend is a computer-generated image created by combining together multiple photos of real human faces. A non-blend is a regular photo of a human face.,JK,,,,,,,,,,,,,,,,,,,,,,,,,,,,,,,,7,3.9765,,,,,,,,,,,,,,0,35,35,38,1,,,,,,,,,,,,,space,1.1354,,,,,,,,,,,,,,,,,,,,,,,,,,,,,,,,,,,,,,,,,,,,,,,,,,,,,,,,,,,,,,,,,,,
,,,,357531,001,2023-08-08_21h23.17.450,fluency,2022.2.4,Win32,59.93407252,,,,,,,,,,,,,,,,,,,,,,,0,5,img/B05_00.jpg,BLEND,Press J if the face is a BLEND and K if the face is a NON-BLEND,A blend is a computer-generated image created by combining together multiple photos of real human faces. A non-blend is a regular photo of a human face.,JK,,,,,,,,,,,,,,,,,,,,,,,,,,,,,,,,,,,,,,,,,,,,,,774.5112,0,36,36,44,1,109,0,0,0,0,1,98,,,,,,,,,,,,,,,,,,,,,,,,,,,,,,,,,,,,,,,,,,,,,,,,,,,,,,,,,,,,,,,,,,,,,,,,,,
,,,,357531,001,2023-08-08_21h23.17.450,fluency,2022.2.4,Win32,59.93407252,,,,,,,,,,,,,,,,,,,,,,,,,,,,,,,,,,,,,,,,,,,,,,,,,,,,,,,,,,,,,,,,,,,,,,,,,,,,,,,,,,0,0,0,0,1,,"[""j""]",[1.109200000002943],1,"[""j""]",[1.1088999999984708],,,,,,,,,,,,,,,,,,,,,,,,,,,,,,,,,,,,,,,,,,,,,,,,,,,,,,,,,,,,,,,,,,,,,
,,,,357531,001,2023-08-08_21h23.17.450,fluency,2022.2.4,Win32,59.93407252,,,,,,,,,,,,,,,,,,,,,,,0,5,img/B05_00.jpg,BLEND,Press J if the face is a BLEND and K if the face is a NON-BLEND,A blend is a computer-generated image created by combining together multiple photos of real human faces. A non-blend is a regular photo of a human face.,JK,,,,,,,,,,,,,,,,,,,,,,,,,,,,,,,,5,2.0902,,,,,,,,,,,,,,0,36,36,44,1,,,,,,,,,,,,,space,2.4696,,,,,,,,,,,,,,,,,,,,,,,,,,,,,,,,,,,,,,,,,,,,,,,,,,,,,,,,,,,,,,,,,,,
,,,,357531,001,2023-08-08_21h23.17.450,fluency,2022.2.4,Win32,59.93407252,,,,,,,,,,,,,,,,,,,,,,,1,10,img/B10_01.jpg,BLEND,Press J if the face is a BLEND and K if the face is a NON-BLEND,A blend is a computer-generated image created by combining together multiple photos of real human faces. A non-blend is a regular photo of a human face.,JK,,,,,,,,,,,,,,,,,,,,,,,,,,,,,,,,,,,,,,,,,,,,,,783.25,0,37,37,100,1,109,0,0,0,0,1,98,,,,,,,,,,,,,,,,,,,,,,,,,,,,,,,,,,,,,,,,,,,,,,,,,,,,,,,,,,,,,,,,,,,,,,,,,,
,,,,357531,001,2023-08-08_21h23.17.450,fluency,2022.2.4,Win32,59.93407252,,,,,,,,,,,,,,,,,,,,,,,,,,,,,,,,,,,,,,,,,,,,,,,,,,,,,,,,,,,,,,,,,,,,,,,,,,,,,,,,,,0,0,0,0,1,,"[""k""]",[1.2797000000030039],1,"[""k""]",[1.279600000001551],,,,,,,,,,,,,,,,,,,,,,,,,,,,,,,,,,,,,,,,,,,,,,,,,,,,,,,,,,,,,,,,,,,,,
,,,,357531,001,2023-08-08_21h23.17.450,fluency,2022.2.4,Win32,59.93407252,,,,,,,,,,,,,,,,,,,,,,,1,10,img/B10_01.jpg,BLEND,Press J if the face is a BLEND and K if the face is a NON-BLEND,A blend is a computer-generated image created by combining together multiple photos of real human faces. A non-blend is a regular photo of a human face.,JK,,,,,,,,,,,,,,,,,,,,,,,,,,,,,,,,4,4.8554,,,,,,,,,,,,,,0,37,37,100,1,,,,,,,,,,,,,space,1.1884,,,,,,,,,,,,,,,,,,,,,,,,,,,,,,,,,,,,,,,,,,,,,,,,,,,,,,,,,,,,,,,,,,,
,,,,357531,001,2023-08-08_21h23.17.450,fluency,2022.2.4,Win32,59.93407252,,,,,,,,,,,,,,,,,,,,,,,0,7,img/B07_00.jpg,BLEND,Press J if the face is a BLEND and K if the face is a NON-BLEND,A blend is a computer-generated image created by combining together multiple photos of real human faces. A non-blend is a regular photo of a human face.,JK,,,,,,,,,,,,,,,,,,,,,,,,,,,,,,,,,,,,,,,,,,,,,,794.4153,0,38,38,66,1,109,0,0,0,0,1,98,,,,,,,,,,,,,,,,,,,,,,,,,,,,,,,,,,,,,,,,,,,,,,,,,,,,,,,,,,,,,,,,,,,,,,,,,,
,,,,357531,001,2023-08-08_21h23.17.450,fluency,2022.2.4,Win32,59.93407252,,,,,,,,,,,,,,,,,,,,,,,,,,,,,,,,,,,,,,,,,,,,,,,,,,,,,,,,,,,,,,,,,,,,,,,,,,,,,,,,,,0,0,0,0,1,,"[""k""]",[2.187399999998547],1,"[""k""]",[2.1872999999969807],,,,,,,,,,,,,,,,,,,,,,,,,,,,,,,,,,,,,,,,,,,,,,,,,,,,,,,,,,,,,,,,,,,,,
,,,,357531,001,2023-08-08_21h23.17.450,fluency,2022.2.4,Win32,59.93407252,,,,,,,,,,,,,,,,,,,,,,,0,7,img/B07_00.jpg,BLEND,Press J if the face is a BLEND and K if the face is a NON-BLEND,A blend is a computer-generated image created by combining together multiple photos of real human faces. A non-blend is a regular photo of a human face.,JK,,,,,,,,,,,,,,,,,,,,,,,,,,,,,,,,5,1.576,,,,,,,,,,,,,,0,38,38,66,1,,,,,,,,,,,,,space,1.6513,,,,,,,,,,,,,,,,,,,,,,,,,,,,,,,,,,,,,,,,,,,,,,,,,,,,,,,,,,,,,,,,,,,
,,,,357531,001,2023-08-08_21h23.17.450,fluency,2022.2.4,Win32,59.93407252,,,,,,,,,,,,,,,,,,,,,,,5,6,img/B06_05.jpg,BLEND,Press J if the face is a BLEND and K if the face is a NON-BLEND,A blend is a computer-generated image created by combining together multiple photos of real human faces. A non-blend is a regular photo of a human face.,JK,,,,,,,,,,,,,,,,,,,,,,,,,,,,,,,,,,,,,,,,,,,,,,802.8292,0,39,39,60,1,109,0,0,0,0,1,98,,,,,,,,,,,,,,,,,,,,,,,,,,,,,,,,,,,,,,,,,,,,,,,,,,,,,,,,,,,,,,,,,,,,,,,,,,
,,,,357531,001,2023-08-08_21h23.17.450,fluency,2022.2.4,Win32,59.93407252,,,,,,,,,,,,,,,,,,,,,,,,,,,,,,,,,,,,,,,,,,,,,,,,,,,,,,,,,,,,,,,,,,,,,,,,,,,,,,,,,,0,0,0,0,1,,"[""j""]",[1.1063000000044667],1,"[""j""]",[1.10639999999853],,,,,,,,,,,,,,,,,,,,,,,,,,,,,,,,,,,,,,,,,,,,,,,,,,,,,,,,,,,,,,,,,,,,,
,,,,357531,001,2023-08-08_21h23.17.450,fluency,2022.2.4,Win32,59.93407252,,,,,,,,,,,,,,,,,,,,,,,5,6,img/B06_05.jpg,BLEND,Press J if the face is a BLEND and K if the face is a NON-BLEND,A blend is a computer-generated image created by combining together multiple photos of real human faces. A non-blend is a regular photo of a human face.,JK,,,,,,,,,,,,,,,,,,,,,,,,,,,,,,,,4,2.3562,,,,,,,,,,,,,,0,39,39,60,1,,,,,,,,,,,,,space,1.0707,,,,,,,,,,,,,,,,,,,,,,,,,,,,,,,,,,,,,,,,,,,,,,,,,,,,,,,,,,,,,,,,,,,
,,,,357531,001,2023-08-08_21h23.17.450,fluency,2022.2.4,Win32,59.93407252,,,,,,,,,,,,,,,,,,,,,,,1,3,img/B03_01.jpg,BLEND,Press J if the face is a BLEND and K if the face is a NON-BLEND,A blend is a computer-generated image created by combining together multiple photos of real human faces. A non-blend is a regular photo of a human face.,JK,,,,,,,,,,,,,,,,,,,,,,,,,,,,,,,,,,,,,,,,,,,,,,811.4007,0,40,40,23,1,109,0,0,0,0,1,98,,,,,,,,,,,,,,,,,,,,,,,,,,,,,,,,,,,,,,,,,,,,,,,,,,,,,,,,,,,,,,,,,,,,,,,,,,
,,,,357531,001,2023-08-08_21h23.17.450,fluency,2022.2.4,Win32,59.93407252,,,,,,,,,,,,,,,,,,,,,,,,,,,,,,,,,,,,,,,,,,,,,,,,,,,,,,,,,,,,,,,,,,,,,,,,,,,,,,,,,,0,0,0,0,1,,"[""k""]",[1.1235000000000355],1,"[""k""]",[1.1235000000000355],,,,,,,,,,,,,,,,,,,,,,,,,,,,,,,,,,,,,,,,,,,,,,,,,,,,,,,,,,,,,,,,,,,,,
,,,,357531,001,2023-08-08_21h23.17.450,fluency,2022.2.4,Win32,59.93407252,,,,,,,,,,,,,,,,,,,,,,,1,3,img/B03_01.jpg,BLEND,Press J if the face is a BLEND and K if the face is a NON-BLEND,A blend is a computer-generated image created by combining together multiple photos of real human faces. A non-blend is a regular photo of a human face.,JK,,,,,,,,,,,,,,,,,,,,,,,,,,,,,,,,6,2.1051,,,,,,,,,,,,,,0,40,40,23,1,,,,,,,,,,,,,space,0.9357,,,,,,,,,,,,,,,,,,,,,,,,,,,,,,,,,,,,,,,,,,,,,,,,,,,,,,,,,,,,,,,,,,,
,,,,357531,001,2023-08-08_21h23.17.450,fluency,2022.2.4,Win32,59.93407252,,,,,,,,,,,,,,,,,,,,,,,9,2,img/B02_09.jpg,BLEND,Press J if the face is a BLEND and K if the face is a NON-BLEND,A blend is a computer-generated image created by combining together multiple photos of real human faces. A non-blend is a regular photo of a human face.,JK,,,,,,,,,,,,,,,,,,,,,,,,,,,,,,,,,,,,,,,,,,,,,,818.5844,0,41,41,20,1,109,0,0,0,0,1,98,,,,,,,,,,,,,,,,,,,,,,,,,,,,,,,,,,,,,,,,,,,,,,,,,,,,,,,,,,,,,,,,,,,,,,,,,,
,,,,357531,001,2023-08-08_21h23.17.450,fluency,2022.2.4,Win32,59.93407252,,,,,,,,,,,,,,,,,,,,,,,,,,,,,,,,,,,,,,,,,,,,,,,,,,,,,,,,,,,,,,,,,,,,,,,,,,,,,,,,,,0,0,0,0,1,,"[""k""]",[1.4121999999955506],1,"[""k""]",[1.411899999998468],,,,,,,,,,,,,,,,,,,,,,,,,,,,,,,,,,,,,,,,,,,,,,,,,,,,,,,,,,,,,,,,,,,,,
,,,,357531,001,2023-08-08_21h23.17.450,fluency,2022.2.4,Win32,59.93407252,,,,,,,,,,,,,,,,,,,,,,,9,2,img/B02_09.jpg,BLEND,Press J if the face is a BLEND and K if the face is a NON-BLEND,A blend is a computer-generated image created by combining together multiple photos of real human faces. A non-blend is a regular photo of a human face.,JK,,,,,,,,,,,,,,,,,,,,,,,,,,,,,,,,5,2.2099,,,,,,,,,,,,,,0,41,41,20,1,,,,,,,,,,,,,space,0.9519,,,,,,,,,,,,,,,,,,,,,,,,,,,,,,,,,,,,,,,,,,,,,,,,,,,,,,,,,,,,,,,,,,,
,,,,357531,001,2023-08-08_21h23.17.450,fluency,2022.2.4,Win32,59.93407252,,,,,,,,,,,,,,,,,,,,,,,7,8,img/B08_07.jpg,BLEND,Press J if the face is a BLEND and K if the face is a NON-BLEND,A blend is a computer-generated image created by combining together multiple photos of real human faces. A non-blend is a regular photo of a human face.,JK,,,,,,,,,,,,,,,,,,,,,,,,,,,,,,,,,,,,,,,,,,,,,,826.9349,0,42,42,84,1,109,0,0,0,0,1,98,,,,,,,,,,,,,,,,,,,,,,,,,,,,,,,,,,,,,,,,,,,,,,,,,,,,,,,,,,,,,,,,,,,,,,,,,,
,,,,357531,001,2023-08-08_21h23.17.450,fluency,2022.2.4,Win32,59.93407252,,,,,,,,,,,,,,,,,,,,,,,,,,,,,,,,,,,,,,,,,,,,,,,,,,,,,,,,,,,,,,,,,,,,,,,,,,,,,,,,,,0,0,0,0,1,,"[""k""]",[1.4967000000029884],1,"[""k""]",[1.496699999995485],,,,,,,,,,,,,,,,,,,,,,,,,,,,,,,,,,,,,,,,,,,,,,,,,,,,,,,,,,,,,,,,,,,,,
,,,,357531,001,2023-08-08_21h23.17.450,fluency,2022.2.4,Win32,59.93407252,,,,,,,,,,,,,,,,,,,,,,,7,8,img/B08_07.jpg,BLEND,Press J if the face is a BLEND and K if the face is a NON-BLEND,A blend is a computer-generated image created by combining together multiple photos of real human faces. A non-blend is a regular photo of a human face.,JK,,,,,,,,,,,,,,,,,,,,,,,,,,,,,,,,6,4.6602,,,,,,,,,,,,,,0,42,42,84,1,,,,,,,,,,,,,space,0.7416,,,,,,,,,,,,,,,,,,,,,,,,,,,,,,,,,,,,,,,,,,,,,,,,,,,,,,,,,,,,,,,,,,,
,,,,357531,001,2023-08-08_21h23.17.450,fluency,2022.2.4,Win32,59.93407252,,,,,,,,,,,,,,,,,,,,,,,4,8,img/B08_04.jpg,BLEND,Press J if the face is a BLEND and K if the face is a NON-BLEND,A blend is a computer-generated image created by combining together multiple photos of real human faces. A non-blend is a regular photo of a human face.,JK,,,,,,,,,,,,,,,,,,,,,,,,,,,,,,,,,,,,,,,,,,,,,,836.4662,0,43,43,81,1,109,0,0,0,0,1,98,,,,,,,,,,,,,,,,,,,,,,,,,,,,,,,,,,,,,,,,,,,,,,,,,,,,,,,,,,,,,,,,,,,,,,,,,,
,,,,357531,001,2023-08-08_21h23.17.450,fluency,2022.2.4,Win32,59.93407252,,,,,,,,,,,,,,,,,,,,,,,,,,,,,,,,,,,,,,,,,,,,,,,,,,,,,,,,,,,,,,,,,,,,,,,,,,,,,,,,,,0,0,0,0,1,,"[""j""]",[0.9707999999969843],1,"[""j""]",[0.9706999999955315],,,,,,,,,,,,,,,,,,,,,,,,,,,,,,,,,,,,,,,,,,,,,,,,,,,,,,,,,,,,,,,,,,,,,
,,,,357531,001,2023-08-08_21h23.17.450,fluency,2022.2.4,Win32,59.93407252,,,,,,,,,,,,,,,,,,,,,,,4,8,img/B08_04.jpg,BLEND,Press J if the face is a BLEND and K if the face is a NON-BLEND,A blend is a computer-generated image created by combining together multiple photos of real human faces. A non-blend is a regular photo of a human face.,JK,,,,,,,,,,,,,,,,,,,,,,,,,,,,,,,,5,3.7593,,,,,,,,,,,,,,0,43,43,81,1,,,,,,,,,,,,,space,0.4189,,,,,,,,,,,,,,,,,,,,,,,,,,,,,,,,,,,,,,,,,,,,,,,,,,,,,,,,,,,,,,,,,,,
,,,,357531,001,2023-08-08_21h23.17.450,fluency,2022.2.4,Win32,59.93407252,,,,,,,,,,,,,,,,,,,,,,,5,1,img/B01_05.jpg,BLEND,Press J if the face is a BLEND and K if the face is a NON-BLEND,A blend is a computer-generated image created by combining together multiple photos of real human faces. A non-blend is a regular photo of a human face.,JK,,,,,,,,,,,,,,,,,,,,,,,,,,,,,,,,,,,,,,,,,,,,,,844.8348,0,44,44,5,1,109,0,0,0,0,1,98,,,,,,,,,,,,,,,,,,,,,,,,,,,,,,,,,,,,,,,,,,,,,,,,,,,,,,,,,,,,,,,,,,,,,,,,,,
,,,,357531,001,2023-08-08_21h23.17.450,fluency,2022.2.4,Win32,59.93407252,,,,,,,,,,,,,,,,,,,,,,,,,,,,,,,,,,,,,,,,,,,,,,,,,,,,,,,,,,,,,,,,,,,,,,,,,,,,,,,,,,0,0,0,0,1,,"[""j""]",[1.0113999999985026],1,"[""j""]",[1.0112000000029866],,,,,,,,,,,,,,,,,,,,,,,,,,,,,,,,,,,,,,,,,,,,,,,,,,,,,,,,,,,,,,,,,,,,,
,,,,357531,001,2023-08-08_21h23.17.450,fluency,2022.2.4,Win32,59.93407252,,,,,,,,,,,,,,,,,,,,,,,5,1,img/B01_05.jpg,BLEND,Press J if the face is a BLEND and K if the face is a NON-BLEND,A blend is a computer-generated image created by combining together multiple photos of real human faces. A non-blend is a regular photo of a human face.,JK,,,,,,,,,,,,,,,,,,,,,,,,,,,,,,,,3,2.538,,,,,,,,,,,,,,0,44,44,5,1,,,,,,,,,,,,,space,0.9019,,,,,,,,,,,,,,,,,,,,,,,,,,,,,,,,,,,,,,,,,,,,,,,,,,,,,,,,,,,,,,,,,,,
,,,,357531,001,2023-08-08_21h23.17.450,fluency,2022.2.4,Win32,59.93407252,,,,,,,,,,,,,,,,,,,,,,,5,9,img/B09_05.jpg,BLEND,Press J if the face is a BLEND and K if the face is a NON-BLEND,A blend is a computer-generated image created by combining together multiple photos of real human faces. A non-blend is a regular photo of a human face.,JK,,,,,,,,,,,,,,,,,,,,,,,,,,,,,,,,,,,,,,,,,,,,,,852.4299,0,45,45,93,1,109,0,0,0,0,1,98,,,,,,,,,,,,,,,,,,,,,,,,,,,,,,,,,,,,,,,,,,,,,,,,,,,,,,,,,,,,,,,,,,,,,,,,,,
,,,,357531,001,2023-08-08_21h23.17.450,fluency,2022.2.4,Win32,59.93407252,,,,,,,,,,,,,,,,,,,,,,,,,,,,,,,,,,,,,,,,,,,,,,,,,,,,,,,,,,,,,,,,,,,,,,,,,,,,,,,,,,0,0,0,0,1,,"[""j""]",[1.0137999999969907],1,"[""j""]",[1.0137999999969907],,,,,,,,,,,,,,,,,,,,,,,,,,,,,,,,,,,,,,,,,,,,,,,,,,,,,,,,,,,,,,,,,,,,,
,,,,357531,001,2023-08-08_21h23.17.450,fluency,2022.2.4,Win32,59.93407252,,,,,,,,,,,,,,,,,,,,,,,5,9,img/B09_05.jpg,BLEND,Press J if the face is a BLEND and K if the face is a NON-BLEND,A blend is a computer-generated image created by combining together multiple photos of real human faces. A non-blend is a regular photo of a human face.,JK,,,,,,,,,,,,,,,,,,,,,,,,,,,,,,,,3,1.5044,,,,,,,,,,,,,,0,45,45,93,1,,,,,,,,,,,,,space,1.1516,,,,,,,,,,,,,,,,,,,,,,,,,,,,,,,,,,,,,,,,,,,,,,,,,,,,,,,,,,,,,,,,,,,
,,,,357531,001,2023-08-08_21h23.17.450,fluency,2022.2.4,Win32,59.93407252,,,,,,,,,,,,,,,,,,,,,,,2,10,img/B10_02.jpg,BLEND,Press J if the face is a BLEND and K if the face is a NON-BLEND,A blend is a computer-generated image created by combining together multiple photos of real human faces. A non-blend is a regular photo of a human face.,JK,,,,,,,,,,,,,,,,,,,,,,,,,,,,,,,,,,,,,,,,,,,,,,860.2301,0,46,46,101,1,109,0,0,0,0,1,98,,,,,,,,,,,,,,,,,,,,,,,,,,,,,,,,,,,,,,,,,,,,,,,,,,,,,,,,,,,,,,,,,,,,,,,,,,
,,,,357531,001,2023-08-08_21h23.17.450,fluency,2022.2.4,Win32,59.93407252,,,,,,,,,,,,,,,,,,,,,,,,,,,,,,,,,,,,,,,,,,,,,,,,,,,,,,,,,,,,,,,,,,,,,,,,,,,,,,,,,,0,0,0,0,1,,"[""k""]",[1.3613999999985253],1,"[""k""]",[1.361199999995506],,,,,,,,,,,,,,,,,,,,,,,,,,,,,,,,,,,,,,,,,,,,,,,,,,,,,,,,,,,,,,,,,,,,,
,,,,357531,001,2023-08-08_21h23.17.450,fluency,2022.2.4,Win32,59.93407252,,,,,,,,,,,,,,,,,,,,,,,2,10,img/B10_02.jpg,BLEND,Press J if the face is a BLEND and K if the face is a NON-BLEND,A blend is a computer-generated image created by combining together multiple photos of real human faces. A non-blend is a regular photo of a human face.,JK,,,,,,,,,,,,,,,,,,,,,,,,,,,,,,,,4,5.7709,,,,,,,,,,,,,,0,46,46,101,1,,,,,,,,,,,,,space,0.5679,,,,,,,,,,,,,,,,,,,,,,,,,,,,,,,,,,,,,,,,,,,,,,,,,,,,,,,,,,,,,,,,,,,
,,,,357531,001,2023-08-08_21h23.17.450,fluency,2022.2.4,Win32,59.93407252,,,,,,,,,,,,,,,,,,,,,,,5,7,img/B07_05.jpg,BLEND,Press J if the face is a BLEND and K if the face is a NON-BLEND,A blend is a computer-generated image created by combining together multiple photos of real human faces. A non-blend is a regular photo of a human face.,JK,,,,,,,,,,,,,,,,,,,,,,,,,,,,,,,,,,,,,,,,,,,,,,871.7523,0,47,47,71,1,109,0,0,0,0,1,98,,,,,,,,,,,,,,,,,,,,,,,,,,,,,,,,,,,,,,,,,,,,,,,,,,,,,,,,,,,,,,,,,,,,,,,,,,
,,,,357531,001,2023-08-08_21h23.17.450,fluency,2022.2.4,Win32,59.93407252,,,,,,,,,,,,,,,,,,,,,,,,,,,,,,,,,,,,,,,,,,,,,,,,,,,,,,,,,,,,,,,,,,,,,,,,,,,,,,,,,,0,0,0,0,1,,"[""j""]",[1.4543999999986],1,"[""j""]",[1.4543000000045367],,,,,,,,,,,,,,,,,,,,,,,,,,,,,,,,,,,,,,,,,,,,,,,,,,,,,,,,,,,,,,,,,,,,,
,,,,357531,001,2023-08-08_21h23.17.450,fluency,2022.2.4,Win32,59.93407252,,,,,,,,,,,,,,,,,,,,,,,5,7,img/B07_05.jpg,BLEND,Press J if the face is a BLEND and K if the face is a NON-BLEND,A blend is a computer-generated image created by combining together multiple photos of real human faces. A non-blend is a regular photo of a human face.,JK,,,,,,,,,,,,,,,,,,,,,,,,,,,,,,,,3,2.65,,,,,,,,,,,,,,0,47,47,71,1,,,,,,,,,,,,,space,1.1697,,,,,,,,,,,,,,,,,,,,,,,,,,,,,,,,,,,,,,,,,,,,,,,,,,,,,,,,,,,,,,,,,,,
,,,,357531,001,2023-08-08_21h23.17.450,fluency,2022.2.4,Win32,59.93407252,,,,,,,,,,,,,,,,,,,,,,,7,9,img/B09_07.jpg,BLEND,Press J if the face is a BLEND and K if the face is a NON-BLEND,A blend is a computer-generated image created by combining together multiple photos of real human faces. A non-blend is a regular photo of a human face.,JK,,,,,,,,,,,,,,,,,,,,,,,,,,,,,,,,,,,,,,,,,,,,,,880.6978,0,48,48,95,1,109,0,0,0,0,1,98,,,,,,,,,,,,,,,,,,,,,,,,,,,,,,,,,,,,,,,,,,,,,,,,,,,,,,,,,,,,,,,,,,,,,,,,,,
,,,,357531,001,2023-08-08_21h23.17.450,fluency,2022.2.4,Win32,59.93407252,,,,,,,,,,,,,,,,,,,,,,,,,,,,,,,,,,,,,,,,,,,,,,,,,,,,,,,,,,,,,,,,,,,,,,,,,,,,,,,,,,0,0,0,0,1,,"[""j""]",[1.0821000000015601],1,"[""j""]",[1.0821000000014465],,,,,,,,,,,,,,,,,,,,,,,,,,,,,,,,,,,,,,,,,,,,,,,,,,,,,,,,,,,,,,,,,,,,,
,,,,357531,001,2023-08-08_21h23.17.450,fluency,2022.2.4,Win32,59.93407252,,,,,,,,,,,,,,,,,,,,,,,7,9,img/B09_07.jpg,BLEND,Press J if the face is a BLEND and K if the face is a NON-BLEND,A blend is a computer-generated image created by combining together multiple photos of real human faces. A non-blend is a regular photo of a human face.,JK,,,,,,,,,,,,,,,,,,,,,,,,,,,,,,,,4,2.4325,,,,,,,,,,,,,,0,48,48,95,1,,,,,,,,,,,,,space,0.6195,,,,,,,,,,,,,,,,,,,,,,,,,,,,,,,,,,,,,,,,,,,,,,,,,,,,,,,,,,,,,,,,,,,
,,,,357531,001,2023-08-08_21h23.17.450,fluency,2022.2.4,Win32,59.93407252,,,,,,,,,,,,,,,,,,,,,,,1,9,img/B09_01.jpg,BLEND,Press J if the face is a BLEND and K if the face is a NON-BLEND,A blend is a computer-generated image created by combining together multiple photos of real human faces. A non-blend is a regular photo of a human face.,JK,,,,,,,,,,,,,,,,,,,,,,,,,,,,,,,,,,,,,,,,,,,,,,888.8651,0,49,49,89,1,109,0,0,0,0,1,98,,,,,,,,,,,,,,,,,,,,,,,,,,,,,,,,,,,,,,,,,,,,,,,,,,,,,,,,,,,,,,,,,,,,,,,,,,
,,,,357531,001,2023-08-08_21h23.17.450,fluency,2022.2.4,Win32,59.93407252,,,,,,,,,,,,,,,,,,,,,,,,,,,,,,,,,,,,,,,,,,,,,,,,,,,,,,,,,,,,,,,,,,,,,,,,,,,,,,,,,,0,0,0,0,1,,"[""k""]",[1.8042000000028793],1,"[""k""]",[1.8041000000015401],,,,,,,,,,,,,,,,,,,,,,,,,,,,,,,,,,,,,,,,,,,,,,,,,,,,,,,,,,,,,,,,,,,,,
,,,,357531,001,2023-08-08_21h23.17.450,fluency,2022.2.4,Win32,59.93407252,,,,,,,,,,,,,,,,,,,,,,,1,9,img/B09_01.jpg,BLEND,Press J if the face is a BLEND and K if the face is a NON-BLEND,A blend is a computer-generated image created by combining together multiple photos of real human faces. A non-blend is a regular photo of a human face.,JK,,,,,,,,,,,,,,,,,,,,,,,,,,,,,,,,6,1.5935,,,,,,,,,,,,,,0,49,49,89,1,,,,,,,,,,,,,space,0.7262,,,,,,,,,,,,,,,,,,,,,,,,,,,,,,,,,,,,,,,,,,,,,,,,,,,,,,,,,,,,,,,,,,,
,,,,357531,001,2023-08-08_21h23.17.450,fluency,2022.2.4,Win32,59.93407252,,,,,,,,,,,,,,,,,,,,,,,10,7,img/B07_10.jpg,BLEND,Press J if the face is a BLEND and K if the face is a NON-BLEND,A blend is a computer-generated image created by combining together multiple photos of real human faces. A non-blend is a regular photo of a human face.,JK,,,,,,,,,,,,,,,,,,,,,,,,,,,,,,,,,,,,,,,,,,,,,,896.3145,0,50,50,76,1,109,0,0,0,0,1,98,,,,,,,,,,,,,,,,,,,,,,,,,,,,,,,,,,,,,,,,,,,,,,,,,,,,,,,,,,,,,,,,,,,,,,,,,,
,,,,357531,001,2023-08-08_21h23.17.450,fluency,2022.2.4,Win32,59.93407252,,,,,,,,,,,,,,,,,,,,,,,,,,,,,,,,,,,,,,,,,,,,,,,,,,,,,,,,,,,,,,,,,,,,,,,,,,,,,,,,,,0,0,0,0,1,,"[""k""]",[1.3697999999969852],1,"[""k""]",[1.369700000002922],,,,,,,,,,,,,,,,,,,,,,,,,,,,,,,,,,,,,,,,,,,,,,,,,,,,,,,,,,,,,,,,,,,,,
,,,,357531,001,2023-08-08_21h23.17.450,fluency,2022.2.4,Win32,59.93407252,,,,,,,,,,,,,,,,,,,,,,,10,7,img/B07_10.jpg,BLEND,Press J if the face is a BLEND and K if the face is a NON-BLEND,A blend is a computer-generated image created by combining together multiple photos of real human faces. A non-blend is a regular photo of a human face.,JK,,,,,,,,,,,,,,,,,,,,,,,,,,,,,,,,8,2.5776,,,,,,,,,,,,,,0,50,50,76,1,,,,,,,,,,,,,space,0.9216,,,,,,,,,,,,,,,,,,,,,,,,,,,,,,,,,,,,,,,,,,,,,,,,,,,,,,,,,,,,,,,,,,,
,,,,357531,001,2023-08-08_21h23.17.450,fluency,2022.2.4,Win32,59.93407252,,,,,,,,,,,,,,,,,,,,,,,4,7,img/B07_04.jpg,BLEND,Press J if the face is a BLEND and K if the face is a NON-BLEND,A blend is a computer-generated image created by combining together multiple photos of real human faces. A non-blend is a regular photo of a human face.,JK,,,,,,,,,,,,,,,,,,,,,,,,,,,,,,,,,,,,,,,,,,,,,,904.9313,0,51,51,70,1,109,0,0,0,0,1,98,,,,,,,,,,,,,,,,,,,,,,,,,,,,,,,,,,,,,,,,,,,,,,,,,,,,,,,,,,,,,,,,,,,,,,,,,,
,,,,357531,001,2023-08-08_21h23.17.450,fluency,2022.2.4,Win32,59.93407252,,,,,,,,,,,,,,,,,,,,,,,,,,,,,,,,,,,,,,,,,,,,,,,,,,,,,,,,,,,,,,,,,,,,,,,,,,,,,,,,,,0,0,0,0,1,,"[""j""]",[1.5913999999985435],1,"[""j""]",[1.5913999999985435],,,,,,,,,,,,,,,,,,,,,,,,,,,,,,,,,,,,,,,,,,,,,,,,,,,,,,,,,,,,,,,,,,,,,
,,,,357531,001,2023-08-08_21h23.17.450,fluency,2022.2.4,Win32,59.93407252,,,,,,,,,,,,,,,,,,,,,,,4,7,img/B07_04.jpg,BLEND,Press J if the face is a BLEND and K if the face is a NON-BLEND,A blend is a computer-generated image created by combining together multiple photos of real human faces. A non-blend is a regular photo of a human face.,JK,,,,,,,,,,,,,,,,,,,,,,,,,,,,,,,,5,2.7898,,,,,,,,,,,,,,0,51,51,70,1,,,,,,,,,,,,,space,0.639,,,,,,,,,,,,,,,,,,,,,,,,,,,,,,,,,,,,,,,,,,,,,,,,,,,,,,,,,,,,,,,,,,,
,,,,357531,001,2023-08-08_21h23.17.450,fluency,2022.2.4,Win32,59.93407252,,,,,,,,,,,,,,,,,,,,,,,3,3,img/B03_03.jpg,BLEND,Press J if the face is a BLEND and K if the face is a NON-BLEND,A blend is a computer-generated image created by combining together multiple photos of real human faces. A non-blend is a regular photo of a human face.,JK,,,,,,,,,,,,,,,,,,,,,,,,,,,,,,,,,,,,,,,,,,,,,,913.5035,0,52,52,25,1,109,0,0,0,0,1,98,,,,,,,,,,,,,,,,,,,,,,,,,,,,,,,,,,,,,,,,,,,,,,,,,,,,,,,,,,,,,,,,,,,,,,,,,,
,,,,357531,001,2023-08-08_21h23.17.450,fluency,2022.2.4,Win32,59.93407252,,,,,,,,,,,,,,,,,,,,,,,,,,,,,,,,,,,,,,,,,,,,,,,,,,,,,,,,,,,,,,,,,,,,,,,,,,,,,,,,,,0,0,0,0,1,,"[""j""]",[1.3995999999940523],1,"[""j""]",[1.399499999999989],,,,,,,,,,,,,,,,,,,,,,,,,,,,,,,,,,,,,,,,,,,,,,,,,,,,,,,,,,,,,,,,,,,,,
,,,,357531,001,2023-08-08_21h23.17.450,fluency,2022.2.4,Win32,59.93407252,,,,,,,,,,,,,,,,,,,,,,,3,3,img/B03_03.jpg,BLEND,Press J if the face is a BLEND and K if the face is a NON-BLEND,A blend is a computer-generated image created by combining together multiple photos of real human faces. A non-blend is a regular photo of a human face.,JK,,,,,,,,,,,,,,,,,,,,,,,,,,,,,,,,5,2.329,,,,,,,,,,,,,,0,52,52,25,1,,,,,,,,,,,,,space,2.5192,,,,,,,,,,,,,,,,,,,,,,,,,,,,,,,,,,,,,,,,,,,,,,,,,,,,,,,,,,,,,,,,,,,
,,,,357531,001,2023-08-08_21h23.17.450,fluency,2022.2.4,Win32,59.93407252,,,,,,,,,,,,,,,,,,,,,,,3,5,img/B05_03.jpg,BLEND,Press J if the face is a BLEND and K if the face is a NON-BLEND,A blend is a computer-generated image created by combining together multiple photos of real human faces. A non-blend is a regular photo of a human face.,JK,,,,,,,,,,,,,,,,,,,,,,,,,,,,,,,,,,,,,,,,,,,,,,922.4869,0,53,53,47,1,109,0,0,0,0,1,98,,,,,,,,,,,,,,,,,,,,,,,,,,,,,,,,,,,,,,,,,,,,,,,,,,,,,,,,,,,,,,,,,,,,,,,,,,
,,,,357531,001,2023-08-08_21h23.17.450,fluency,2022.2.4,Win32,59.93407252,,,,,,,,,,,,,,,,,,,,,,,,,,,,,,,,,,,,,,,,,,,,,,,,,,,,,,,,,,,,,,,,,,,,,,,,,,,,,,,,,,0,0,0,0,1,,"[""j""]",[0.9209999999999354],1,"[""j""]",[0.9208999999985963],,,,,,,,,,,,,,,,,,,,,,,,,,,,,,,,,,,,,,,,,,,,,,,,,,,,,,,,,,,,,,,,,,,,,
,,,,357531,001,2023-08-08_21h23.17.450,fluency,2022.2.4,Win32,59.93407252,,,,,,,,,,,,,,,,,,,,,,,3,5,img/B05_03.jpg,BLEND,Press J if the face is a BLEND and K if the face is a NON-BLEND,A blend is a computer-generated image created by combining together multiple photos of real human faces. A non-blend is a regular photo of a human face.,JK,,,,,,,,,,,,,,,,,,,,,,,,,,,,,,,,4,4.1804,,,,,,,,,,,,,,0,53,53,47,1,,,,,,,,,,,,,space,0.5193,,,,,,,,,,,,,,,,,,,,,,,,,,,,,,,,,,,,,,,,,,,,,,,,,,,,,,,,,,,,,,,,,,,
,,,,357531,001,2023-08-08_21h23.17.450,fluency,2022.2.4,Win32,59.93407252,,,,,,,,,,,,,,,,,,,,,,,10,9,img/B09_10.jpg,BLEND,Press J if the face is a BLEND and K if the face is a NON-BLEND,A blend is a computer-generated image created by combining together multiple photos of real human faces. A non-blend is a regular photo of a human face.,JK,,,,,,,,,,,,,,,,,,,,,,,,,,,,,,,,,,,,,,,,,,,,,,931.3655,0,54,54,98,1,109,0,0,0,0,1,98,,,,,,,,,,,,,,,,,,,,,,,,,,,,,,,,,,,,,,,,,,,,,,,,,,,,,,,,,,,,,,,,,,,,,,,,,,
,,,,357531,001,2023-08-08_21h23.17.450,fluency,2022.2.4,Win32,59.93407252,,,,,,,,,,,,,,,,,,,,,,,,,,,,,,,,,,,,,,,,,,,,,,,,,,,,,,,,,,,,,,,,,,,,,,,,,,,,,,,,,,0,0,0,0,1,,"[""j""]",[0.9717000000030112],1,"[""j""]",[0.9716000000014446],,,,,,,,,,,,,,,,,,,,,,,,,,,,,,,,,,,,,,,,,,,,,,,,,,,,,,,,,,,,,,,,,,,,,
,,,,357531,001,2023-08-08_21h23.17.450,fluency,2022.2.4,Win32,59.93407252,,,,,,,,,,,,,,,,,,,,,,,10,9,img/B09_10.jpg,BLEND,Press J if the face is a BLEND and K if the face is a NON-BLEND,A blend is a computer-generated image created by combining together multiple photos of real human faces. A non-blend is a regular photo of a human face.,JK,,,,,,,,,,,,,,,,,,,,,,,,,,,,,,,,5,4.7713,,,,,,,,,,,,,,0,54,54,98,1,,,,,,,,,,,,,space,1.8508,,,,,,,,,,,,,,,,,,,,,,,,,,,,,,,,,,,,,,,,,,,,,,,,,,,,,,,,,,,,,,,,,,,
,,,,357531,001,2023-08-08_21h23.17.450,fluency,2022.2.4,Win32,59.93407252,,,,,,,,,,,,,,,,,,,,,,,6,8,img/B08_06.jpg,BLEND,Press J if the face is a BLEND and K if the face is a NON-BLEND,A blend is a computer-generated image created by combining together multiple photos of real human faces. A non-blend is a regular photo of a human face.,JK,,,,,,,,,,,,,,,,,,,,,,,,,,,,,,,,,,,,,,,,,,,,,,943.1377,0,55,55,83,1,109,0,0,0,0,1,98,,,,,,,,,,,,,,,,,,,,,,,,,,,,,,,,,,,,,,,,,,,,,,,,,,,,,,,,,,,,,,,,,,,,,,,,,,
,,,,357531,001,2023-08-08_21h23.17.450,fluency,2022.2.4,Win32,59.93407252,,,,,,,,,,,,,,,,,,,,,,,,,,,,,,,,,,,,,,,,,,,,,,,,,,,,,,,,,,,,,,,,,,,,,,,,,,,,,,,,,,0,0,0,0,1,,"[""j""]",[1.0128999999985808],1,"[""j""]",[1.0126000000014983],,,,,,,,,,,,,,,,,,,,,,,,,,,,,,,,,,,,,,,,,,,,,,,,,,,,,,,,,,,,,,,,,,,,,
,,,,357531,001,2023-08-08_21h23.17.450,fluency,2022.2.4,Win32,59.93407252,,,,,,,,,,,,,,,,,,,,,,,6,8,img/B08_06.jpg,BLEND,Press J if the face is a BLEND and K if the face is a NON-BLEND,A blend is a computer-generated image created by combining together multiple photos of real human faces. A non-blend is a regular photo of a human face.,JK,,,,,,,,,,,,,,,,,,,,,,,,,,,,,,,,4,4.1132,,,,,,,,,,,,,,0,55,55,83,1,,,,,,,,,,,,,space,0.5691,,,,,,,,,,,,,,,,,,,,,,,,,,,,,,,,,,,,,,,,,,,,,,,,,,,,,,,,,,,,,,,,,,,
,,,,357531,001,2023-08-08_21h23.17.450,fluency,2022.2.4,Win32,59.93407252,,,,,,,,,,,,,,,,,,,,,,,8,3,img/B03_08.jpg,BLEND,Press J if the face is a BLEND and K if the face is a NON-BLEND,A blend is a computer-generated image created by combining together multiple photos of real human faces. A non-blend is a regular photo of a human face.,JK,,,,,,,,,,,,,,,,,,,,,,,,,,,,,,,,,,,,,,,,,,,,,,951.9997,0,56,56,30,1,109,0,0,0,0,1,98,,,,,,,,,,,,,,,,,,,,,,,,,,,,,,,,,,,,,,,,,,,,,,,,,,,,,,,,,,,,,,,,,,,,,,,,,,
,,,,357531,001,2023-08-08_21h23.17.450,fluency,2022.2.4,Win32,59.93407252,,,,,,,,,,,,,,,,,,,,,,,,,,,,,,,,,,,,,,,,,,,,,,,,,,,,,,,,,,,,,,,,,,,,,,,,,,,,,,,,,,0,0,0,0,1,,"[""k""]",[1.1574999999998],1,"[""k""]",[1.1575000000000273],,,,,,,,,,,,,,,,,,,,,,,,,,,,,,,,,,,,,,,,,,,,,,,,,,,,,,,,,,,,,,,,,,,,,
,,,,357531,001,2023-08-08_21h23.17.450,fluency,2022.2.4,Win32,59.93407252,,,,,,,,,,,,,,,,,,,,,,,8,3,img/B03_08.jpg,BLEND,Press J if the face is a BLEND and K if the face is a NON-BLEND,A blend is a computer-generated image created by combining together multiple photos of real human faces. A non-blend is a regular photo of a human face.,JK,,,,,,,,,,,,,,,,,,,,,,,,,,,,,,,,7,2.1391,,,,,,,,,,,,,,0,56,56,30,1,,,,,,,,,,,,,space,0.5517,,,,,,,,,,,,,,,,,,,,,,,,,,,,,,,,,,,,,,,,,,,,,,,,,,,,,,,,,,,,,,,,,,,
,,,,357531,001,2023-08-08_21h23.17.450,fluency,2022.2.4,Win32,59.93407252,,,,,,,,,,,,,,,,,,,,,,,2,5,img/B05_02.jpg,BLEND,Press J if the face is a BLEND and K if the face is a NON-BLEND,A blend is a computer-generated image created by combining together multiple photos of real human faces. A non-blend is a regular photo of a human face.,JK,,,,,,,,,,,,,,,,,,,,,,,,,,,,,,,,,,,,,,,,,,,,,,959.836,0,57,57,46,1,109,0,0,0,0,1,98,,,,,,,,,,,,,,,,,,,,,,,,,,,,,,,,,,,,,,,,,,,,,,,,,,,,,,,,,,,,,,,,,,,,,,,,,,
,,,,357531,001,2023-08-08_21h23.17.450,fluency,2022.2.4,Win32,59.93407252,,,,,,,,,,,,,,,,,,,,,,,,,,,,,,,,,,,,,,,,,,,,,,,,,,,,,,,,,,,,,,,,,,,,,,,,,,,,,,,,,,0,0,0,0,1,,"[""k""]",[1.8771000000015192],1,"[""k""]",[1.8771000000015192],,,,,,,,,,,,,,,,,,,,,,,,,,,,,,,,,,,,,,,,,,,,,,,,,,,,,,,,,,,,,,,,,,,,,
,,,,357531,001,2023-08-08_21h23.17.450,fluency,2022.2.4,Win32,59.93407252,,,,,,,,,,,,,,,,,,,,,,,2,5,img/B05_02.jpg,BLEND,Press J if the face is a BLEND and K if the face is a NON-BLEND,A blend is a computer-generated image created by combining together multiple photos of real human faces. A non-blend is a regular photo of a human face.,JK,,,,,,,,,,,,,,,,,,,,,,,,,,,,,,,,5,3.2764,,,,,,,,,,,,,,0,57,57,46,1,,,,,,,,,,,,,space,0.5522,,,,,,,,,,,,,,,,,,,,,,,,,,,,,,,,,,,,,,,,,,,,,,,,,,,,,,,,,,,,,,,,,,,
,,,,357531,001,2023-08-08_21h23.17.450,fluency,2022.2.4,Win32,59.93407252,,,,,,,,,,,,,,,,,,,,,,,7,10,img/B10_07.jpg,BLEND,Press J if the face is a BLEND and K if the face is a NON-BLEND,A blend is a computer-generated image created by combining together multiple photos of real human faces. A non-blend is a regular photo of a human face.,JK,,,,,,,,,,,,,,,,,,,,,,,,,,,,,,,,,,,,,,,,,,,,,,968.7995,0,58,58,106,1,109,0,0,0,0,1,98,,,,,,,,,,,,,,,,,,,,,,,,,,,,,,,,,,,,,,,,,,,,,,,,,,,,,,,,,,,,,,,,,,,,,,,,,,
,,,,357531,001,2023-08-08_21h23.17.450,fluency,2022.2.4,Win32,59.93407252,,,,,,,,,,,,,,,,,,,,,,,,,,,,,,,,,,,,,,,,,,,,,,,,,,,,,,,,,,,,,,,,,,,,,,,,,,,,,,,,,,0,0,0,0,1,,"[""j""]",[1.946399999998448],1,"[""j""]",[1.9463000000046122],,,,,,,,,,,,,,,,,,,,,,,,,,,,,,,,,,,,,,,,,,,,,,,,,,,,,,,,,,,,,,,,,,,,,
,,,,357531,001,2023-08-08_21h23.17.450,fluency,2022.2.4,Win32,59.93407252,,,,,,,,,,,,,,,,,,,,,,,7,10,img/B10_07.jpg,BLEND,Press J if the face is a BLEND and K if the face is a NON-BLEND,A blend is a computer-generated image created by combining together multiple photos of real human faces. A non-blend is a regular photo of a human face.,JK,,,,,,,,,,,,,,,,,,,,,,,,,,,,,,,,5,1.8777,,,,,,,,,,,,,,0,58,58,106,1,,,,,,,,,,,,,space,0.9849,,,,,,,,,,,,,,,,,,,,,,,,,,,,,,,,,,,,,,,,,,,,,,,,,,,,,,,,,,,,,,,,,,,
,,,,357531,001,2023-08-08_21h23.17.450,fluency,2022.2.4,Win32,59.93407252,,,,,,,,,,,,,,,,,,,,,,,8,9,img/B09_08.jpg,BLEND,Press J if the face is a BLEND and K if the face is a NON-BLEND,A blend is a computer-generated image created by combining together multiple photos of real human faces. A non-blend is a regular photo of a human face.,JK,,,,,,,,,,,,,,,,,,,,,,,,,,,,,,,,,,,,,,,,,,,,,,975.7998,0,59,59,96,1,109,0,0,0,0,1,98,,,,,,,,,,,,,,,,,,,,,,,,,,,,,,,,,,,,,,,,,,,,,,,,,,,,,,,,,,,,,,,,,,,,,,,,,,
,,,,357531,001,2023-08-08_21h23.17.450,fluency,2022.2.4,Win32,59.93407252,,,,,,,,,,,,,,,,,,,,,,,,,,,,,,,,,,,,,,,,,,,,,,,,,,,,,,,,,,,,,,,,,,,,,,,,,,,,,,,,,,0,0,0,0,1,,"[""k""]",[1.393399999998337],1,"[""k""]",[1.3934999999999036],,,,,,,,,,,,,,,,,,,,,,,,,,,,,,,,,,,,,,,,,,,,,,,,,,,,,,,,,,,,,,,,,,,,,
,,,,357531,001,2023-08-08_21h23.17.450,fluency,2022.2.4,Win32,59.93407252,,,,,,,,,,,,,,,,,,,,,,,8,9,img/B09_08.jpg,BLEND,Press J if the face is a BLEND and K if the face is a NON-BLEND,A blend is a computer-generated image created by combining together multiple photos of real human faces. A non-blend is a regular photo of a human face.,JK,,,,,,,,,,,,,,,,,,,,,,,,,,,,,,,,5,4.7098,,,,,,,,,,,,,,0,59,59,96,1,,,,,,,,,,,,,space,1.0188,,,,,,,,,,,,,,,,,,,,,,,,,,,,,,,,,,,,,,,,,,,,,,,,,,,,,,,,,,,,,,,,,,,
,,,,357531,001,2023-08-08_21h23.17.450,fluency,2022.2.4,Win32,59.93407252,,,,,,,,,,,,,,,,,,,,,,,2,7,img/B07_02.jpg,BLEND,Press J if the face is a BLEND and K if the face is a NON-BLEND,A blend is a computer-generated image created by combining together multiple photos of real human faces. A non-blend is a regular photo of a human face.,JK,,,,,,,,,,,,,,,,,,,,,,,,,,,,,,,,,,,,,,,,,,,,,,986.6669,0,60,60,68,1,109,0,0,0,0,1,98,,,,,,,,,,,,,,,,,,,,,,,,,,,,,,,,,,,,,,,,,,,,,,,,,,,,,,,,,,,,,,,,,,,,,,,,,,
,,,,357531,001,2023-08-08_21h23.17.450,fluency,2022.2.4,Win32,59.93407252,,,,,,,,,,,,,,,,,,,,,,,,,,,,,,,,,,,,,,,,,,,,,,,,,,,,,,,,,,,,,,,,,,,,,,,,,,,,,,,,,,0,0,0,0,1,,"[""k""]",[0.8716000000013082],1,"[""k""]",[0.8714999999999691],,,,,,,,,,,,,,,,,,,,,,,,,,,,,,,,,,,,,,,,,,,,,,,,,,,,,,,,,,,,,,,,,,,,,
,,,,357531,001,2023-08-08_21h23.17.450,fluency,2022.2.4,Win32,59.93407252,,,,,,,,,,,,,,,,,,,,,,,2,7,img/B07_02.jpg,BLEND,Press J if the face is a BLEND and K if the face is a NON-BLEND,A blend is a computer-generated image created by combining together multiple photos of real human faces. A non-blend is a regular photo of a human face.,JK,,,,,,,,,,,,,,,,,,,,,,,,,,,,,,,,5,4.3799,,,,,,,,,,,,,,0,60,60,68,1,,,,,,,,,,,,,space,4.6516,,,,,,,,,,,,,,,,,,,,,,,,,,,,,,,,,,,,,,,,,,,,,,,,,,,,,,,,,,,,,,,,,,,
,,,,357531,001,2023-08-08_21h23.17.450,fluency,2022.2.4,Win32,59.93407252,,,,,,,,,,,,,,,,,,,,,,,10,5,img/B05_10.jpg,BLEND,Press J if the face is a BLEND and K if the face is a NON-BLEND,A blend is a computer-generated image created by combining together multiple photos of real human faces. A non-blend is a regular photo of a human face.,JK,,,,,,,,,,,,,,,,,,,,,,,,,,,,,,,,,,,,,,,,,,,,,,999.884,0,61,61,54,1,109,0,0,0,0,1,98,,,,,,,,,,,,,,,,,,,,,,,,,,,,,,,,,,,,,,,,,,,,,,,,,,,,,,,,,,,,,,,,,,,,,,,,,,
,,,,357531,001,2023-08-08_21h23.17.450,fluency,2022.2.4,Win32,59.93407252,,,,,,,,,,,,,,,,,,,,,,,,,,,,,,,,,,,,,,,,,,,,,,,,,,,,,,,,,,,,,,,,,,,,,,,,,,,,,,,,,,0,0,0,0,1,,"[""k""]",[1.205799999996998],1,"[""k""]",[1.2057000000029348],,,,,,,,,,,,,,,,,,,,,,,,,,,,,,,,,,,,,,,,,,,,,,,,,,,,,,,,,,,,,,,,,,,,,
,,,,357531,001,2023-08-08_21h23.17.450,fluency,2022.2.4,Win32,59.93407252,,,,,,,,,,,,,,,,,,,,,,,10,5,img/B05_10.jpg,BLEND,Press J if the face is a BLEND and K if the face is a NON-BLEND,A blend is a computer-generated image created by combining together multiple photos of real human faces. A non-blend is a regular photo of a human face.,JK,,,,,,,,,,,,,,,,,,,,,,,,,,,,,,,,6,2.6131,,,,,,,,,,,,,,0,61,61,54,1,,,,,,,,,,,,,space,0.8545,,,,,,,,,,,,,,,,,,,,,,,,,,,,,,,,,,,,,,,,,,,,,,,,,,,,,,,,,,,,,,,,,,,
,,,,357531,001,2023-08-08_21h23.17.450,fluency,2022.2.4,Win32,59.93407252,,,,,,,,,,,,,,,,,,,,,,,9,7,img/B07_09.jpg,BLEND,Press J if the face is a BLEND and K if the face is a NON-BLEND,A blend is a computer-generated image created by combining together multiple photos of real human faces. A non-blend is a regular photo of a human face.,JK,,,,,,,,,,,,,,,,,,,,,,,,,,,,,,,,,,,,,,,,,,,,,,1008.4851,0,62,62,75,1,109,0,0,0,0,1,98,,,,,,,,,,,,,,,,,,,,,,,,,,,,,,,,,,,,,,,,,,,,,,,,,,,,,,,,,,,,,,,,,,,,,,,,,,
,,,,357531,001,2023-08-08_21h23.17.450,fluency,2022.2.4,Win32,59.93407252,,,,,,,,,,,,,,,,,,,,,,,,,,,,,,,,,,,,,,,,,,,,,,,,,,,,,,,,,,,,,,,,,,,,,,,,,,,,,,,,,,0,0,0,0,1,,"[""k""]",[0.9635000000000673],1,"[""k""]",[0.9634000000057767],,,,,,,,,,,,,,,,,,,,,,,,,,,,,,,,,,,,,,,,,,,,,,,,,,,,,,,,,,,,,,,,,,,,,
,,,,357531,001,2023-08-08_21h23.17.450,fluency,2022.2.4,Win32,59.93407252,,,,,,,,,,,,,,,,,,,,,,,9,7,img/B07_09.jpg,BLEND,Press J if the face is a BLEND and K if the face is a NON-BLEND,A blend is a computer-generated image created by combining together multiple photos of real human faces. A non-blend is a regular photo of a human face.,JK,,,,,,,,,,,,,,,,,,,,,,,,,,,,,,,,8,1.0189,,,,,,,,,,,,,,0,62,62,75,1,,,,,,,,,,,,,space,0.9984,,,,,,,,,,,,,,,,,,,,,,,,,,,,,,,,,,,,,,,,,,,,,,,,,,,,,,,,,,,,,,,,,,,
,,,,357531,001,2023-08-08_21h23.17.450,fluency,2022.2.4,Win32,59.93407252,,,,,,,,,,,,,,,,,,,,,,,7,2,img/B02_07.jpg,BLEND,Press J if the face is a BLEND and K if the face is a NON-BLEND,A blend is a computer-generated image created by combining together multiple photos of real human faces. A non-blend is a regular photo of a human face.,JK,,,,,,,,,,,,,,,,,,,,,,,,,,,,,,,,,,,,,,,,,,,,,,1015.6009,0,63,63,18,1,109,0,0,0,0,1,98,,,,,,,,,,,,,,,,,,,,,,,,,,,,,,,,,,,,,,,,,,,,,,,,,,,,,,,,,,,,,,,,,,,,,,,,,,
,,,,357531,001,2023-08-08_21h23.17.450,fluency,2022.2.4,Win32,59.93407252,,,,,,,,,,,,,,,,,,,,,,,,,,,,,,,,,,,,,,,,,,,,,,,,,,,,,,,,,,,,,,,,,,,,,,,,,,,,,,,,,,0,0,0,0,1,,"[""k""]",[1.2600999999938267],1,"[""k""]",[1.259499999999889],,,,,,,,,,,,,,,,,,,,,,,,,,,,,,,,,,,,,,,,,,,,,,,,,,,,,,,,,,,,,,,,,,,,,
,,,,357531,001,2023-08-08_21h23.17.450,fluency,2022.2.4,Win32,59.93407252,,,,,,,,,,,,,,,,,,,,,,,7,2,img/B02_07.jpg,BLEND,Press J if the face is a BLEND and K if the face is a NON-BLEND,A blend is a computer-generated image created by combining together multiple photos of real human faces. A non-blend is a regular photo of a human face.,JK,,,,,,,,,,,,,,,,,,,,,,,,,,,,,,,,7,1.7417,,,,,,,,,,,,,,0,63,63,18,1,,,,,,,,,,,,,space,0.9027,,,,,,,,,,,,,,,,,,,,,,,,,,,,,,,,,,,,,,,,,,,,,,,,,,,,,,,,,,,,,,,,,,,
,,,,357531,001,2023-08-08_21h23.17.450,fluency,2022.2.4,Win32,59.93407252,,,,,,,,,,,,,,,,,,,,,,,2,3,img/B03_02.jpg,BLEND,Press J if the face is a BLEND and K if the face is a NON-BLEND,A blend is a computer-generated image created by combining together multiple photos of real human faces. A non-blend is a regular photo of a human face.,JK,,,,,,,,,,,,,,,,,,,,,,,,,,,,,,,,,,,,,,,,,,,,,,1023.3349,0,64,64,24,1,109,0,0,0,0,1,98,,,,,,,,,,,,,,,,,,,,,,,,,,,,,,,,,,,,,,,,,,,,,,,,,,,,,,,,,,,,,,,,,,,,,,,,,,
,,,,357531,001,2023-08-08_21h23.17.450,fluency,2022.2.4,Win32,59.93407252,,,,,,,,,,,,,,,,,,,,,,,,,,,,,,,,,,,,,,,,,,,,,,,,,,,,,,,,,,,,,,,,,,,,,,,,,,,,,,,,,,0,0,0,0,1,,"[""k""]",[1.2262999999970816],1,"[""k""]",[1.226100000001452],,,,,,,,,,,,,,,,,,,,,,,,,,,,,,,,,,,,,,,,,,,,,,,,,,,,,,,,,,,,,,,,,,,,,
,,,,357531,001,2023-08-08_21h23.17.450,fluency,2022.2.4,Win32,59.93407252,,,,,,,,,,,,,,,,,,,,,,,2,3,img/B03_02.jpg,BLEND,Press J if the face is a BLEND and K if the face is a NON-BLEND,A blend is a computer-generated image created by combining together multiple photos of real human faces. A non-blend is a regular photo of a human face.,JK,,,,,,,,,,,,,,,,,,,,,,,,,,,,,,,,8,3.8759,,,,,,,,,,,,,,0,64,64,24,1,,,,,,,,,,,,,space,0.8855,,,,,,,,,,,,,,,,,,,,,,,,,,,,,,,,,,,,,,,,,,,,,,,,,,,,,,,,,,,,,,,,,,,
,,,,357531,001,2023-08-08_21h23.17.450,fluency,2022.2.4,Win32,59.93407252,,,,,,,,,,,,,,,,,,,,,,,3,8,img/B08_03.jpg,BLEND,Press J if the face is a BLEND and K if the face is a NON-BLEND,A blend is a computer-generated image created by combining together multiple photos of real human faces. A non-blend is a regular photo of a human face.,JK,,,,,,,,,,,,,,,,,,,,,,,,,,,,,,,,,,,,,,,,,,,,,,1033.2886,0,65,65,80,1,109,0,0,0,0,1,98,,,,,,,,,,,,,,,,,,,,,,,,,,,,,,,,,,,,,,,,,,,,,,,,,,,,,,,,,,,,,,,,,,,,,,,,,,
,,,,357531,001,2023-08-08_21h23.17.450,fluency,2022.2.4,Win32,59.93407252,,,,,,,,,,,,,,,,,,,,,,,,,,,,,,,,,,,,,,,,,,,,,,,,,,,,,,,,,,,,,,,,,,,,,,,,,,,,,,,,,,0,0,0,0,1,,"[""j""]",[1.0602999999969143],1,"[""j""]",[1.0600999999940086],,,,,,,,,,,,,,,,,,,,,,,,,,,,,,,,,,,,,,,,,,,,,,,,,,,,,,,,,,,,,,,,,,,,,
,,,,357531,001,2023-08-08_21h23.17.450,fluency,2022.2.4,Win32,59.93407252,,,,,,,,,,,,,,,,,,,,,,,3,8,img/B08_03.jpg,BLEND,Press J if the face is a BLEND and K if the face is a NON-BLEND,A blend is a computer-generated image created by combining together multiple photos of real human faces. A non-blend is a regular photo of a human face.,JK,,,,,,,,,,,,,,,,,,,,,,,,,,,,,,,,2,2.5597,,,,,,,,,,,,,,0,65,65,80,1,,,,,,,,,,,,,space,0.7257,,,,,,,,,,,,,,,,,,,,,,,,,,,,,,,,,,,,,,,,,,,,,,,,,,,,,,,,,,,,,,,,,,,
,,,,357531,001,2023-08-08_21h23.17.450,fluency,2022.2.4,Win32,59.93407252,,,,,,,,,,,,,,,,,,,,,,,7,7,img/B07_07.jpg,BLEND,Press J if the face is a BLEND and K if the face is a NON-BLEND,A blend is a computer-generated image created by combining together multiple photos of real human faces. A non-blend is a regular photo of a human face.,JK,,,,,,,,,,,,,,,,,,,,,,,,,,,,,,,,,,,,,,,,,,,,,,1040.7691,0,66,66,73,1,109,0,0,0,0,1,98,,,,,,,,,,,,,,,,,,,,,,,,,,,,,,,,,,,,,,,,,,,,,,,,,,,,,,,,,,,,,,,,,,,,,,,,,,
,,,,357531,001,2023-08-08_21h23.17.450,fluency,2022.2.4,Win32,59.93407252,,,,,,,,,,,,,,,,,,,,,,,,,,,,,,,,,,,,,,,,,,,,,,,,,,,,,,,,,,,,,,,,,,,,,,,,,,,,,,,,,,0,0,0,0,1,,"[""j""]",[1.347600000001421],1,"[""j""]",[1.3477000000029875],,,,,,,,,,,,,,,,,,,,,,,,,,,,,,,,,,,,,,,,,,,,,,,,,,,,,,,,,,,,,,,,,,,,,
,,,,357531,001,2023-08-08_21h23.17.450,fluency,2022.2.4,Win32,59.93407252,,,,,,,,,,,,,,,,,,,,,,,7,7,img/B07_07.jpg,BLEND,Press J if the face is a BLEND and K if the face is a NON-BLEND,A blend is a computer-generated image created by combining together multiple photos of real human faces. A non-blend is a regular photo of a human face.,JK,,,,,,,,,,,,,,,,,,,,,,,,,,,,,,,,6,4.2238,,,,,,,,,,,,,,0,66,66,73,1,,,,,,,,,,,,,space,1.1176,,,,,,,,,,,,,,,,,,,,,,,,,,,,,,,,,,,,,,,,,,,,,,,,,,,,,,,,,,,,,,,,,,,
,,,,357531,001,2023-08-08_21h23.17.450,fluency,2022.2.4,Win32,59.93407252,,,,,,,,,,,,,,,,,,,,,,,10,2,img/B02_10.jpg,BLEND,Press J if the face is a BLEND and K if the face is a NON-BLEND,A blend is a computer-generated image created by combining together multiple photos of real human faces. A non-blend is a regular photo of a human face.,JK,,,,,,,,,,,,,,,,,,,,,,,,,,,,,,,,,,,,,,,,,,,,,,1051.2904,0,67,67,21,1,109,0,0,0,0,1,98,,,,,,,,,,,,,,,,,,,,,,,,,,,,,,,,,,,,,,,,,,,,,,,,,,,,,,,,,,,,,,,,,,,,,,,,,,
,,,,357531,001,2023-08-08_21h23.17.450,fluency,2022.2.4,Win32,59.93407252,,,,,,,,,,,,,,,,,,,,,,,,,,,,,,,,,,,,,,,,,,,,,,,,,,,,,,,,,,,,,,,,,,,,,,,,,,,,,,,,,,0,0,0,0,1,,"[""j""]",[1.877199999995355],1,"[""j""]",[1.8769999999999527],,,,,,,,,,,,,,,,,,,,,,,,,,,,,,,,,,,,,,,,,,,,,,,,,,,,,,,,,,,,,,,,,,,,,
,,,,357531,001,2023-08-08_21h23.17.450,fluency,2022.2.4,Win32,59.93407252,,,,,,,,,,,,,,,,,,,,,,,10,2,img/B02_10.jpg,BLEND,Press J if the face is a BLEND and K if the face is a NON-BLEND,A blend is a computer-generated image created by combining together multiple photos of real human faces. A non-blend is a regular photo of a human face.,JK,,,,,,,,,,,,,,,,,,,,,,,,,,,,,,,,5,2.1121,,,,,,,,,,,,,,0,67,67,21,1,,,,,,,,,,,,,space,1.2349,,,,,,,,,,,,,,,,,,,,,,,,,,,,,,,,,,,,,,,,,,,,,,,,,,,,,,,,,,,,,,,,,,,
,,,,357531,001,2023-08-08_21h23.17.450,fluency,2022.2.4,Win32,59.93407252,,,,,,,,,,,,,,,,,,,,,,,6,7,img/B07_06.jpg,BLEND,Press J if the face is a BLEND and K if the face is a NON-BLEND,A blend is a computer-generated image created by combining together multiple photos of real human faces. A non-blend is a regular photo of a human face.,JK,,,,,,,,,,,,,,,,,,,,,,,,,,,,,,,,,,,,,,,,,,,,,,1058.8072,0,68,68,72,1,109,0,0,0,0,1,98,,,,,,,,,,,,,,,,,,,,,,,,,,,,,,,,,,,,,,,,,,,,,,,,,,,,,,,,,,,,,,,,,,,,,,,,,,
,,,,357531,001,2023-08-08_21h23.17.450,fluency,2022.2.4,Win32,59.93407252,,,,,,,,,,,,,,,,,,,,,,,,,,,,,,,,,,,,,,,,,,,,,,,,,,,,,,,,,,,,,,,,,,,,,,,,,,,,,,,,,,0,0,0,0,1,,"[""j""]",[1.071600000001581],1,"[""j""]",[1.071600000001581],,,,,,,,,,,,,,,,,,,,,,,,,,,,,,,,,,,,,,,,,,,,,,,,,,,,,,,,,,,,,,,,,,,,,
,,,,357531,001,2023-08-08_21h23.17.450,fluency,2022.2.4,Win32,59.93407252,,,,,,,,,,,,,,,,,,,,,,,6,7,img/B07_06.jpg,BLEND,Press J if the face is a BLEND and K if the face is a NON-BLEND,A blend is a computer-generated image created by combining together multiple photos of real human faces. A non-blend is a regular photo of a human face.,JK,,,,,,,,,,,,,,,,,,,,,,,,,,,,,,,,4,3.9198,,,,,,,,,,,,,,0,68,68,72,1,,,,,,,,,,,,,space,0.6351,,,,,,,,,,,,,,,,,,,,,,,,,,,,,,,,,,,,,,,,,,,,,,,,,,,,,,,,,,,,,,,,,,,
,,,,357531,001,2023-08-08_21h23.17.450,fluency,2022.2.4,Win32,59.93407252,,,,,,,,,,,,,,,,,,,,,,,2,4,img/B04_02.jpg,BLEND,Press J if the face is a BLEND and K if the face is a NON-BLEND,A blend is a computer-generated image created by combining together multiple photos of real human faces. A non-blend is a regular photo of a human face.,JK,,,,,,,,,,,,,,,,,,,,,,,,,,,,,,,,,,,,,,,,,,,,,,1067.5049,0,69,69,35,1,109,0,0,0,0,1,98,,,,,,,,,,,,,,,,,,,,,,,,,,,,,,,,,,,,,,,,,,,,,,,,,,,,,,,,,,,,,,,,,,,,,,,,,,
,,,,357531,001,2023-08-08_21h23.17.450,fluency,2022.2.4,Win32,59.93407252,,,,,,,,,,,,,,,,,,,,,,,,,,,,,,,,,,,,,,,,,,,,,,,,,,,,,,,,,,,,,,,,,,,,,,,,,,,,,,,,,,0,0,0,0,1,,"[""k""]",[2.2943000000045686],1,"[""k""]",[2.2943999999986318],,,,,,,,,,,,,,,,,,,,,,,,,,,,,,,,,,,,,,,,,,,,,,,,,,,,,,,,,,,,,,,,,,,,,
,,,,357531,001,2023-08-08_21h23.17.450,fluency,2022.2.4,Win32,59.93407252,,,,,,,,,,,,,,,,,,,,,,,2,4,img/B04_02.jpg,BLEND,Press J if the face is a BLEND and K if the face is a NON-BLEND,A blend is a computer-generated image created by combining together multiple photos of real human faces. A non-blend is a regular photo of a human face.,JK,,,,,,,,,,,,,,,,,,,,,,,,,,,,,,,,8,4.7485,,,,,,,,,,,,,,0,69,69,35,1,,,,,,,,,,,,,space,0.5018,,,,,,,,,,,,,,,,,,,,,,,,,,,,,,,,,,,,,,,,,,,,,,,,,,,,,,,,,,,,,,,,,,,
,,,,357531,001,2023-08-08_21h23.17.450,fluency,2022.2.4,Win32,59.93407252,,,,,,,,,,,,,,,,,,,,,,,8,5,img/B05_08.jpg,BLEND,Press J if the face is a BLEND and K if the face is a NON-BLEND,A blend is a computer-generated image created by combining together multiple photos of real human faces. A non-blend is a regular photo of a human face.,JK,,,,,,,,,,,,,,,,,,,,,,,,,,,,,,,,,,,,,,,,,,,,,,1076.8854,0,70,70,52,1,109,0,0,0,0,1,98,,,,,,,,,,,,,,,,,,,,,,,,,,,,,,,,,,,,,,,,,,,,,,,,,,,,,,,,,,,,,,,,,,,,,,,,,,
,,,,357531,001,2023-08-08_21h23.17.450,fluency,2022.2.4,Win32,59.93407252,,,,,,,,,,,,,,,,,,,,,,,,,,,,,,,,,,,,,,,,,,,,,,,,,,,,,,,,,,,,,,,,,,,,,,,,,,,,,,,,,,0,0,0,0,1,,"[""k""]",[1.4081000000014683],1,"[""k""]",[1.4079999999999018],,,,,,,,,,,,,,,,,,,,,,,,,,,,,,,,,,,,,,,,,,,,,,,,,,,,,,,,,,,,,,,,,,,,,
,,,,357531,001,2023-08-08_21h23.17.450,fluency,2022.2.4,Win32,59.93407252,,,,,,,,,,,,,,,,,,,,,,,8,5,img/B05_08.jpg,BLEND,Press J if the face is a BLEND and K if the face is a NON-BLEND,A blend is a computer-generated image created by combining together multiple photos of real human faces. A non-blend is a regular photo of a human face.,JK,,,,,,,,,,,,,,,,,,,,,,,,,,,,,,,,6,3.3948,,,,,,,,,,,,,,0,70,70,52,1,,,,,,,,,,,,,space,0.6047,,,,,,,,,,,,,,,,,,,,,,,,,,,,,,,,,,,,,,,,,,,,,,,,,,,,,,,,,,,,,,,,,,,
,,,,357531,001,2023-08-08_21h23.17.450,fluency,2022.2.4,Win32,59.93407252,,,,,,,,,,,,,,,,,,,,,,,0,1,img/B01_00.jpg,BLEND,Press J if the face is a BLEND and K if the face is a NON-BLEND,A blend is a computer-generated image created by combining together multiple photos of real human faces. A non-blend is a regular photo of a human face.,JK,,,,,,,,,,,,,,,,,,,,,,,,,,,,,,,,,,,,,,,,,,,,,,1086.0727,0,71,71,0,1,109,0,0,0,0,1,98,,,,,,,,,,,,,,,,,,,,,,,,,,,,,,,,,,,,,,,,,,,,,,,,,,,,,,,,,,,,,,,,,,,,,,,,,,
