idTextbox.text,welcomeDone.numClicks,welcomeDone.timesOn,welcomeDone.timesOff,participant,session,date,expName,psychopyVersion,OS,frameRate,consent_advance.keys,consent_advance.rt,consent_advance_2.keys,consent_advance_2.rt,consentClick.x,consentClick.y,consentClick.leftButton,consentClick.midButton,consentClick.rightButton,consentClick.time,consentClick.clicked_name,instr_advance_3.keys,instr_advance_3.rt,spec_instr_adv.keys,spec_instr_adv.rt,spec_instr_adv2.keys,spec_instr_adv2.rt,instrLoop.thisRepN,instrLoop.thisTrialN,instrLoop.thisN,instrLoop.thisIndex,instrLoop.ran,steps,fams,face_file,cond,instr,term,key_map,attnKeyResp1.keys,attnKeyResp1.rt,q1.thisRepN,q1.thisTrialN,q1.thisN,q1.thisIndex,q1.ran,attnKeyResp2.keys,attnKeyResp2.rt,q2.thisRepN,q2.thisTrialN,q2.thisN,q2.thisIndex,q2.ran,attnKeyResp3.keys,attnKeyResp3.rt,q3.thisRepN,q3.thisTrialN,q3.thisN,q3.thisIndex,q3.ran,practiceStart.keys,practiceStart.rt,practiceResp.keys,practiceResp.rt,timesRedone,practiceRepeat.thisRepN,practiceRepeat.thisTrialN,practiceRepeat.thisN,practiceRepeat.thisIndex,practiceRepeat.ran,attrRating.keys,attrRating.rt,practiceTrial.thisRepN,practiceTrial.thisTrialN,practiceTrial.thisN,practiceTrial.thisIndex,practiceTrial.ran,key_resp_3.keys,key_resp_3.rt,attnChecker.thisRepN,attnChecker.thisTrialN,attnChecker.thisN,attnChecker.thisIndex,attnChecker.ran,faceOnsetTime,trials.thisRepN,trials.thisTrialN,trials.thisN,trials.thisIndex,trials.ran,trials.order,repeat_loop.thisRepN,repeat_loop.thisTrialN,repeat_loop.thisN,repeat_loop.thisIndex,repeat_loop.ran,repeat_loop.order,catResp.keys,globalTimesRedone,catAllKeys.keys,redo_keypress.keys,redo_keypress.rt,redo_feedback_loop.thisRepN,redo_feedback_loop.thisTrialN,redo_feedback_loop.thisN,redo_feedback_loop.thisIndex,redo_feedback_loop.ran,catResp.rt,catAllKeys.rt,contResp.keys,contResp.rt,contResp_2.keys,contResp_2.rt,respQ1.response,respQ1.rt,respQ2.response,respQ2.rt,respQ3.response,respQ3.rt,respQ4.response,respQ4.rt,surveyContinue1.numClicks,surveyContinue1.timesOn,surveyContinue1.timesOff,respQ5.response,respQ5.rt,respQ6.response,respQ6.rt,respQ7.response,respQ7.rt,respQ8.response,respQ8.rt,surveyContinue2.numClicks,surveyContinue2.timesOn,surveyContinue2.timesOff,respQ9.response,respQ9.rt,respQ10.response,respQ10.rt,respQ11.response,respQ11.rt,respQ12.response,respQ12.rt,surveyContinue3.numClicks,surveyContinue3.timesOn,surveyContinue3.timesOff,respQ13.response,respQ13.rt,respQ14.response,respQ14.rt,respQ15.response,respQ15.rt,surveyContinue4.numClicks,surveyContinue4.timesOn,surveyContinue4.timesOff,respAge.response,respAge.rt,genderResp1.response,genderResp1.rt,genderResp2.text,demogexitClick.numClicks,demogexitClick.timesOn,demogexitClick.timesOff,textbox.text,openAnswerClick.numClicks,openAnswerClick.timesOn,openAnswerClick.timesOff,debriefEnd.keys,debriefEnd.rt,exitKey.keys,exitKey.rt
64f727b4eb2a74836613d979,1,[17.701],[17.701],575325,001,2023-09-28_17h34.36.044,fluency,2022.2.5,MacIntel,58.82352941,,,,,,,,,,,,,,,,,,,,,,,,,,,,,,,,,,,,,,,,,,,,,,,,,,,,,,,,,,,,,,,,,,,,,,,,,,,,,,,,,,,,,,,,,,,,,,,,,,,,,,,,,,,,,,,,,,,,,,,,,,,,,,,,,,,,,,,,,,,,,,,,,,,,,,,,,,,,,,,,,
,,,,575325,001,2023-09-28_17h34.36.044,fluency,2022.2.5,MacIntel,58.82352941,space,1.36,,,,,,,,,,,,,,,,,,,,,,,,,,,,,,,,,,,,,,,,,,,,,,,,,,,,,,,,,,,,,,,,,,,,,,,,,,,,,,,,,,,,,,,,,,,,,,,,,,,,,,,,,,,,,,,,,,,,,,,,,,,,,,,,,,,,,,,,,,,,,,,,,,,,,,,,,,,,,,,
,,,,575325,001,2023-09-28_17h34.36.044,fluency,2022.2.5,MacIntel,58.82352941,,,space,17.627,,,,,,,,,,,,,,,,,,,,,,,,,,,,,,,,,,,,,,,,,,,,,,,,,,,,,,,,,,,,,,,,,,,,,,,,,,,,,,,,,,,,,,,,,,,,,,,,,,,,,,,,,,,,,,,,,,,,,,,,,,,,,,,,,,,,,,,,,,,,,,,,,,,,,,,,,,,,,
,,,,575325,001,2023-09-28_17h34.36.044,fluency,2022.2.5,MacIntel,58.82352941,,,,,0.329347826,-0.360869565,1,0,0,4.805,iAgree,,,,,,,,,,,,,,,,,,,,,,,,,,,,,,,,,,,,,,,,,,,,,,,,,,,,,,,,,,,,,,,,,,,,,,,,,,,,,,,,,,,,,,,,,,,,,,,,,,,,,,,,,,,,,,,,,,,,,,,,,,,,,,,,,,,,,,,,,,,,,,,,,,,,,,
,,,,575325,001,2023-09-28_17h34.36.044,fluency,2022.2.5,MacIntel,58.82352941,,,,,,,,,,,,space,9.433,,,,,,,,,,,,,,,,,,,,,,,,,,,,,,,,,,,,,,,,,,,,,,,,,,,,,,,,,,,,,,,,,,,,,,,,,,,,,,,,,,,,,,,,,,,,,,,,,,,,,,,,,,,,,,,,,,,,,,,,,,,,,,,,,,,,,,,,,,,,,,,,,,,,
,,,,575325,001,2023-09-28_17h34.36.044,fluency,2022.2.5,MacIntel,58.82352941,,,,,,,,,,,,,,space,14.688,space,4.827,0,0,0,12,1,1,2,img/B02_01.jpg,MF,Press J if the face is FEMALE and K if the face is MALE, ,KJ,,,,,,,,,,,,,,,,,,,,,,,,,,,,,,,,,,,,,,,,,,,,,,,,,,,,,,,,,,,,,,,,,,,,,,,,,,,,,,,,,,,,,,,,,,,,,,,,,,,,,,,,,,,,,,,,,,,,,,,,,,,,,,,,,,,,
,,,,575325,001,2023-09-28_17h34.36.044,fluency,2022.2.5,MacIntel,58.82352941,,,,,,,,,,,,,,,,,,,,,,,,,,,,,,c,7.27,0,0,0,0,1,,,,,,,,,,,,,,,,,,,,,,,,,,,,,,,,,,,,,,,,,,,,,,,,,,,,,,,,,,,,,,,,,,,,,,,,,,,,,,,,,,,,,,,,,,,,,,,,,,,,,,,,,,,,,,,,,,,,,,,,,,,,,
,,,,575325,001,2023-09-28_17h34.36.044,fluency,2022.2.5,MacIntel,58.82352941,,,,,,,,,,,,,,,,,,,,,,,,,,,,,,,,,,,,,a,2.516,0,0,0,0,1,,,,,,,,,,,,,,,,,,,,,,,,,,,,,,,,,,,,,,,,,,,,,,,,,,,,,,,,,,,,,,,,,,,,,,,,,,,,,,,,,,,,,,,,,,,,,,,,,,,,,,,,,,,,,,,,,,,,,,
,,,,575325,001,2023-09-28_17h34.36.044,fluency,2022.2.5,MacIntel,58.82352941,,,,,,,,,,,,,,,,,,,,,,,,,,,,,,,,,,,,,,,,,,,,c,5.021,0,0,0,0,1,,,,,,,,,,,,,,,,,,,,,,,,,,,,,,,,,,,,,,,,,,,,,,,,,,,,,,,,,,,,,,,,,,,,,,,,,,,,,,,,,,,,,,,,,,,,,,,,,,,,,,,,,,,,,,,
,,,,575325,001,2023-09-28_17h34.36.044,fluency,2022.2.5,MacIntel,58.82352941,,,,,,,,,,,,,,,,,,,,,,,,,,,,,,,,,,,,,,,,,,,,,,,,,,,space,1.164,k,0.95,0,0,0,0,0,1,,,,,,,,,,,,,,,,,,,,,,,,,,,,,,,,,,,,,,,,,,,,,,,,,,,,,,,,,,,,,,,,,,,,,,,,,,,,,,,,,,,,,,,,,,,,,,,,,,,,,
,,,,575325,001,2023-09-28_17h34.36.044,fluency,2022.2.5,MacIntel,58.82352941,,,,,,,,,,,,,,,,,,,,,,,,,,,,,,,,,,,,,,,,,,,,,,,,,,,,,,,,,,,,,6,7.865,0,0,0,0,1,,,,,,,,,,,,,,,,,,,,,,,,,,,,,,,,,,,,,,,,,,,,,,,,,,,,,,,,,,,,,,,,,,,,,,,,,,,,,,,,,,,,,,,,,,,,,,
,,,,575325,001,2023-09-28_17h34.36.044,fluency,2022.2.5,MacIntel,58.82352941,,,,,,,,,,,,,,,,,,,,,,,,,,,,,,,,,,,,,,,,,,,,,,,,,,,,,,,,,,,,,,,,,,,,space,3.39,0,0,0,0,1,,,,,,,,,,,,,,,,,,,,,,,,,,,,,,,,,,,,,,,,,,,,,,,,,,,,,,,,,,,,,,,,,,,,,,,,,,,,,,,,,,,,,,,
,,,,575325,001,2023-09-28_17h34.36.044,fluency,2022.2.5,MacIntel,58.82352941,,,,,,,,,,,,,,,,,,,,,,,2,7,img/B07_02.jpg,MF,Press J if the face is FEMALE and K if the face is MALE, ,KJ,,,,,,,,,,,,,,,,,,,,,,,,,,,,,,,,,,,,,,,,,,,,,,121.125,0,0,0,68,1,109,0,0,0,0,1,98,,,,,,,,,,,,,,,,,,,,,,,,,,,,,,,,,,,,,,,,,,,,,,,,,,,,,,,,,,,,,,,,,,,,,,,,,,
,,,,575325,001,2023-09-28_17h34.36.044,fluency,2022.2.5,MacIntel,58.82352941,,,,,,,,,,,,,,,,,,,,,,,,,,,,,,,,,,,,,,,,,,,,,,,,,,,,,,,,,,,,,,,,,,,,,,,,,,,,,,,,,,,,,,,,,1,,space,3.66,0,0,0,0,1,,,,,,,,,,,,,,,,,,,,,,,,,,,,,,,,,,,,,,,,,,,,,,,,,,,,,,,,,,,,,,,,
,,,,575325,001,2023-09-28_17h34.36.044,fluency,2022.2.5,MacIntel,58.82352941,,,,,,,,,,,,,,,,,,,,,,,,,,,,,,,,,,,,,,,,,,,,,,,,,,,,,,,,,,,,,,,,,,,,,,,,,,,,,,,,,,0,0,0,0,1,,,,,,,,,,,,,,,,,,,,,,,,,,,,,,,,,,,,,,,,,,,,,,,,,,,,,,,,,,,,,,,,,,,,,,,,,,,
,,,,575325,001,2023-09-28_17h34.36.044,fluency,2022.2.5,MacIntel,58.82352941,,,,,,,,,,,,,,,,,,,,,,,2,7,img/B07_02.jpg,MF,Press J if the face is FEMALE and K if the face is MALE, ,KJ,,,,,,,,,,,,,,,,,,,,,,,,,,,,,,,,,,,,,,,,,,,,,,129.824,0,0,0,68,1,109,1,0,1,0,1,98,,,,,,,,,,,,,,,,,,,,,,,,,,,,,,,,,,,,,,,,,,,,,,,,,,,,,,,,,,,,,,,,,,,,,,,,,,
,,,,575325,001,2023-09-28_17h34.36.044,fluency,2022.2.5,MacIntel,58.82352941,,,,,,,,,,,,,,,,,,,,,,,,,,,,,,,,,,,,,,,,,,,,,,,,,,,,,,,,,,,,,,,,,,,,,,,,,,,,,,,,,,1,0,1,0,1,,"[""k""]",1,"[""k""]",,,,,,,,[0.7079999999999984],[0.7079999999999984],,,,,,,,,,,,,,,,,,,,,,,,,,,,,,,,,,,,,,,,,,,,,,,,,,,,,,,,,,,,,,
,,,,575325,001,2023-09-28_17h34.36.044,fluency,2022.2.5,MacIntel,58.82352941,,,,,,,,,,,,,,,,,,,,,,,2,7,img/B07_02.jpg,MF,Press J if the face is FEMALE and K if the face is MALE, ,KJ,,,,,,,,,,,,,,,,,,,,,,,,,,,,,,,,6,2.787,,,,,,,,,,,,,,0,0,0,68,1,,,,,,,,,,,,,,,,,,,,space,3.079,,,,,,,,,,,,,,,,,,,,,,,,,,,,,,,,,,,,,,,,,,,,,,,,,,,,,,,,,,,,
,,,,575325,001,2023-09-28_17h34.36.044,fluency,2022.2.5,MacIntel,58.82352941,,,,,,,,,,,,,,,,,,,,,,,9,4,img/B04_09.jpg,MF,Press J if the face is FEMALE and K if the face is MALE, ,KJ,,,,,,,,,,,,,,,,,,,,,,,,,,,,,,,,,,,,,,,,,,,,,,140.792,0,1,1,42,1,109,0,0,0,0,1,98,,,,,,,,,,,,,,,,,,,,,,,,,,,,,,,,,,,,,,,,,,,,,,,,,,,,,,,,,,,,,,,,,,,,,,,,,,
,,,,575325,001,2023-09-28_17h34.36.044,fluency,2022.2.5,MacIntel,58.82352941,,,,,,,,,,,,,,,,,,,,,,,,,,,,,,,,,,,,,,,,,,,,,,,,,,,,,,,,,,,,,,,,,,,,,,,,,,,,,,,,,,0,0,0,0,1,,"[""j""]",1,"[""j"",""space""]",,,,,,,,[0.5420000000000016],"[0.5420000000000016,2.6260000000000048]",,,,,,,,,,,,,,,,,,,,,,,,,,,,,,,,,,,,,,,,,,,,,,,,,,,,,,,,,,,,,,
,,,,575325,001,2023-09-28_17h34.36.044,fluency,2022.2.5,MacIntel,58.82352941,,,,,,,,,,,,,,,,,,,,,,,9,4,img/B04_09.jpg,MF,Press J if the face is FEMALE and K if the face is MALE, ,KJ,,,,,,,,,,,,,,,,,,,,,,,,,,,,,,,,4,1.937,,,,,,,,,,,,,,0,1,1,42,1,,,,,,,,,,,,,,,,,,,,space,1.7,,,,,,,,,,,,,,,,,,,,,,,,,,,,,,,,,,,,,,,,,,,,,,,,,,,,,,,,,,,,
,,,,575325,001,2023-09-28_17h34.36.044,fluency,2022.2.5,MacIntel,58.82352941,,,,,,,,,,,,,,,,,,,,,,,0,10,img/B10_00.jpg,MF,Press J if the face is FEMALE and K if the face is MALE, ,KJ,,,,,,,,,,,,,,,,,,,,,,,,,,,,,,,,,,,,,,,,,,,,,,148.508,0,2,2,99,1,109,0,0,0,0,1,98,,,,,,,,,,,,,,,,,,,,,,,,,,,,,,,,,,,,,,,,,,,,,,,,,,,,,,,,,,,,,,,,,,,,,,,,,,
,,,,575325,001,2023-09-28_17h34.36.044,fluency,2022.2.5,MacIntel,58.82352941,,,,,,,,,,,,,,,,,,,,,,,,,,,,,,,,,,,,,,,,,,,,,,,,,,,,,,,,,,,,,,,,,,,,,,,,,,,,,,,,,,0,0,0,0,1,,"[""k""]",1,"[""k""]",,,,,,,,[0.9429999999999836],[0.9429999999999836],,,,,,,,,,,,,,,,,,,,,,,,,,,,,,,,,,,,,,,,,,,,,,,,,,,,,,,,,,,,,,
,,,,575325,001,2023-09-28_17h34.36.044,fluency,2022.2.5,MacIntel,58.82352941,,,,,,,,,,,,,,,,,,,,,,,0,10,img/B10_00.jpg,MF,Press J if the face is FEMALE and K if the face is MALE, ,KJ,,,,,,,,,,,,,,,,,,,,,,,,,,,,,,,,6,1.24,,,,,,,,,,,,,,0,2,2,99,1,,,,,,,,,,,,,,,,,,,,space,0.867,,,,,,,,,,,,,,,,,,,,,,,,,,,,,,,,,,,,,,,,,,,,,,,,,,,,,,,,,,,,
,,,,575325,001,2023-09-28_17h34.36.044,fluency,2022.2.5,MacIntel,58.82352941,,,,,,,,,,,,,,,,,,,,,,,3,7,img/B07_03.jpg,MF,Press J if the face is FEMALE and K if the face is MALE, ,KJ,,,,,,,,,,,,,,,,,,,,,,,,,,,,,,,,,,,,,,,,,,,,,,154.692,0,3,3,69,1,109,0,0,0,0,1,98,,,,,,,,,,,,,,,,,,,,,,,,,,,,,,,,,,,,,,,,,,,,,,,,,,,,,,,,,,,,,,,,,,,,,,,,,,
,,,,575325,001,2023-09-28_17h34.36.044,fluency,2022.2.5,MacIntel,58.82352941,,,,,,,,,,,,,,,,,,,,,,,,,,,,,,,,,,,,,,,,,,,,,,,,,,,,,,,,,,,,,,,,,,,,,,,,,,,,,,,,,,0,0,0,0,1,,"[""k""]",1,"[""k""]",,,,,,,,[0.5799999999999841],[0.5799999999999841],,,,,,,,,,,,,,,,,,,,,,,,,,,,,,,,,,,,,,,,,,,,,,,,,,,,,,,,,,,,,,
,,,,575325,001,2023-09-28_17h34.36.044,fluency,2022.2.5,MacIntel,58.82352941,,,,,,,,,,,,,,,,,,,,,,,3,7,img/B07_03.jpg,MF,Press J if the face is FEMALE and K if the face is MALE, ,KJ,,,,,,,,,,,,,,,,,,,,,,,,,,,,,,,,7,1.39,,,,,,,,,,,,,,0,3,3,69,1,,,,,,,,,,,,,,,,,,,,space,0.55,,,,,,,,,,,,,,,,,,,,,,,,,,,,,,,,,,,,,,,,,,,,,,,,,,,,,,,,,,,,
,,,,575325,001,2023-09-28_17h34.36.044,fluency,2022.2.5,MacIntel,58.82352941,,,,,,,,,,,,,,,,,,,,,,,9,5,img/B05_09.jpg,MF,Press J if the face is FEMALE and K if the face is MALE, ,KJ,,,,,,,,,,,,,,,,,,,,,,,,,,,,,,,,,,,,,,,,,,,,,,160.708,0,4,4,53,1,109,0,0,0,0,1,98,,,,,,,,,,,,,,,,,,,,,,,,,,,,,,,,,,,,,,,,,,,,,,,,,,,,,,,,,,,,,,,,,,,,,,,,,,
,,,,575325,001,2023-09-28_17h34.36.044,fluency,2022.2.5,MacIntel,58.82352941,,,,,,,,,,,,,,,,,,,,,,,,,,,,,,,,,,,,,,,,,,,,,,,,,,,,,,,,,,,,,,,,,,,,,,,,,,,,,,,,,,0,0,0,0,1,,"[""j""]",1,"[""j""]",,,,,,,,[0.7410000000000139],[0.7410000000000139],,,,,,,,,,,,,,,,,,,,,,,,,,,,,,,,,,,,,,,,,,,,,,,,,,,,,,,,,,,,,,
,,,,575325,001,2023-09-28_17h34.36.044,fluency,2022.2.5,MacIntel,58.82352941,,,,,,,,,,,,,,,,,,,,,,,9,5,img/B05_09.jpg,MF,Press J if the face is FEMALE and K if the face is MALE, ,KJ,,,,,,,,,,,,,,,,,,,,,,,,,,,,,,,,3,1.429,,,,,,,,,,,,,,0,4,4,53,1,,,,,,,,,,,,,,,,,,,,space,1.1,,,,,,,,,,,,,,,,,,,,,,,,,,,,,,,,,,,,,,,,,,,,,,,,,,,,,,,,,,,,
,,,,575325,001,2023-09-28_17h34.36.044,fluency,2022.2.5,MacIntel,58.82352941,,,,,,,,,,,,,,,,,,,,,,,5,9,img/B09_05.jpg,MF,Press J if the face is FEMALE and K if the face is MALE, ,KJ,,,,,,,,,,,,,,,,,,,,,,,,,,,,,,,,,,,,,,,,,,,,,,167.308,0,5,5,93,1,109,0,0,0,0,1,98,,,,,,,,,,,,,,,,,,,,,,,,,,,,,,,,,,,,,,,,,,,,,,,,,,,,,,,,,,,,,,,,,,,,,,,,,,
,,,,575325,001,2023-09-28_17h34.36.044,fluency,2022.2.5,MacIntel,58.82352941,,,,,,,,,,,,,,,,,,,,,,,,,,,,,,,,,,,,,,,,,,,,,,,,,,,,,,,,,,,,,,,,,,,,,,,,,,,,,,,,,,0,0,0,0,1,,"[""j""]",1,"[""j""]",,,,,,,,[0.7740000000000009],[0.7740000000000009],,,,,,,,,,,,,,,,,,,,,,,,,,,,,,,,,,,,,,,,,,,,,,,,,,,,,,,,,,,,,,
,,,,575325,001,2023-09-28_17h34.36.044,fluency,2022.2.5,MacIntel,58.82352941,,,,,,,,,,,,,,,,,,,,,,,5,9,img/B09_05.jpg,MF,Press J if the face is FEMALE and K if the face is MALE, ,KJ,,,,,,,,,,,,,,,,,,,,,,,,,,,,,,,,4,0.611,,,,,,,,,,,,,,0,5,5,93,1,,,,,,,,,,,,,,,,,,,,space,0.56,,,,,,,,,,,,,,,,,,,,,,,,,,,,,,,,,,,,,,,,,,,,,,,,,,,,,,,,,,,,
,,,,575325,001,2023-09-28_17h34.36.044,fluency,2022.2.5,MacIntel,58.82352941,,,,,,,,,,,,,,,,,,,,,,,7,4,img/B04_07.jpg,MF,Press J if the face is FEMALE and K if the face is MALE, ,KJ,,,,,,,,,,,,,,,,,,,,,,,,,,,,,,,,,,,,,,,,,,,,,,172.541,0,6,6,40,1,109,0,0,0,0,1,98,,,,,,,,,,,,,,,,,,,,,,,,,,,,,,,,,,,,,,,,,,,,,,,,,,,,,,,,,,,,,,,,,,,,,,,,,,
,,,,575325,001,2023-09-28_17h34.36.044,fluency,2022.2.5,MacIntel,58.82352941,,,,,,,,,,,,,,,,,,,,,,,,,,,,,,,,,,,,,,,,,,,,,,,,,,,,,,,,,,,,,,,,,,,,,,,,,,,,,,,,,,0,0,0,0,1,,"[""j""]",1,"[""j"",""space""]",,,,,,,,[0.8439999999999941],"[0.8439999999999941,2.943000000000012]",,,,,,,,,,,,,,,,,,,,,,,,,,,,,,,,,,,,,,,,,,,,,,,,,,,,,,,,,,,,,,
,,,,575325,001,2023-09-28_17h34.36.044,fluency,2022.2.5,MacIntel,58.82352941,,,,,,,,,,,,,,,,,,,,,,,7,4,img/B04_07.jpg,MF,Press J if the face is FEMALE and K if the face is MALE, ,KJ,,,,,,,,,,,,,,,,,,,,,,,,,,,,,,,,4,0.767,,,,,,,,,,,,,,0,6,6,40,1,,,,,,,,,,,,,,,,,,,,space,1.167,,,,,,,,,,,,,,,,,,,,,,,,,,,,,,,,,,,,,,,,,,,,,,,,,,,,,,,,,,,,
,,,,575325,001,2023-09-28_17h34.36.044,fluency,2022.2.5,MacIntel,58.82352941,,,,,,,,,,,,,,,,,,,,,,,7,7,img/B07_07.jpg,MF,Press J if the face is FEMALE and K if the face is MALE, ,KJ,,,,,,,,,,,,,,,,,,,,,,,,,,,,,,,,,,,,,,,,,,,,,,178.541,0,7,7,73,1,109,0,0,0,0,1,98,,,,,,,,,,,,,,,,,,,,,,,,,,,,,,,,,,,,,,,,,,,,,,,,,,,,,,,,,,,,,,,,,,,,,,,,,,
,,,,575325,001,2023-09-28_17h34.36.044,fluency,2022.2.5,MacIntel,58.82352941,,,,,,,,,,,,,,,,,,,,,,,,,,,,,,,,,,,,,,,,,,,,,,,,,,,,,,,,,,,,,,,,,,,,,,,,,,,,,,,,,,0,0,0,0,1,,"[""j""]",1,"[""j""]",,,,,,,,[0.5420000000000016],[0.5420000000000016],,,,,,,,,,,,,,,,,,,,,,,,,,,,,,,,,,,,,,,,,,,,,,,,,,,,,,,,,,,,,,
,,,,575325,001,2023-09-28_17h34.36.044,fluency,2022.2.5,MacIntel,58.82352941,,,,,,,,,,,,,,,,,,,,,,,7,7,img/B07_07.jpg,MF,Press J if the face is FEMALE and K if the face is MALE, ,KJ,,,,,,,,,,,,,,,,,,,,,,,,,,,,,,,,5,0.475,,,,,,,,,,,,,,0,7,7,73,1,,,,,,,,,,,,,,,,,,,,space,0.468,,,,,,,,,,,,,,,,,,,,,,,,,,,,,,,,,,,,,,,,,,,,,,,,,,,,,,,,,,,,
,,,,575325,001,2023-09-28_17h34.36.044,fluency,2022.2.5,MacIntel,58.82352941,,,,,,,,,,,,,,,,,,,,,,,5,4,img/B04_05.jpg,MF,Press J if the face is FEMALE and K if the face is MALE, ,KJ,,,,,,,,,,,,,,,,,,,,,,,,,,,,,,,,,,,,,,,,,,,,,,183.558,0,8,8,38,1,109,0,0,0,0,1,98,,,,,,,,,,,,,,,,,,,,,,,,,,,,,,,,,,,,,,,,,,,,,,,,,,,,,,,,,,,,,,,,,,,,,,,,,,
,,,,575325,001,2023-09-28_17h34.36.044,fluency,2022.2.5,MacIntel,58.82352941,,,,,,,,,,,,,,,,,,,,,,,,,,,,,,,,,,,,,,,,,,,,,,,,,,,,,,,,,,,,,,,,,,,,,,,,,,,,,,,,,,0,0,0,0,1,,"[""j""]",1,"[""j""]",,,,,,,,[0.6120000000000516],[0.6120000000000516],,,,,,,,,,,,,,,,,,,,,,,,,,,,,,,,,,,,,,,,,,,,,,,,,,,,,,,,,,,,,,
,,,,575325,001,2023-09-28_17h34.36.044,fluency,2022.2.5,MacIntel,58.82352941,,,,,,,,,,,,,,,,,,,,,,,5,4,img/B04_05.jpg,MF,Press J if the face is FEMALE and K if the face is MALE, ,KJ,,,,,,,,,,,,,,,,,,,,,,,,,,,,,,,,2,1.909,,,,,,,,,,,,,,0,8,8,38,1,,,,,,,,,,,,,,,,,,,,space,0.849,,,,,,,,,,,,,,,,,,,,,,,,,,,,,,,,,,,,,,,,,,,,,,,,,,,,,,,,,,,,
,,,,575325,001,2023-09-28_17h34.36.044,fluency,2022.2.5,MacIntel,58.82352941,,,,,,,,,,,,,,,,,,,,,,,9,8,img/B08_09.jpg,MF,Press J if the face is FEMALE and K if the face is MALE, ,KJ,,,,,,,,,,,,,,,,,,,,,,,,,,,,,,,,,,,,,,,,,,,,,,190.391,0,9,9,86,1,109,0,0,0,0,1,98,,,,,,,,,,,,,,,,,,,,,,,,,,,,,,,,,,,,,,,,,,,,,,,,,,,,,,,,,,,,,,,,,,,,,,,,,,
,,,,575325,001,2023-09-28_17h34.36.044,fluency,2022.2.5,MacIntel,58.82352941,,,,,,,,,,,,,,,,,,,,,,,,,,,,,,,,,,,,,,,,,,,,,,,,,,,,,,,,,,,,,,,,,,,,,,,,,,,,,,,,,,0,0,0,0,1,,"[""k""]",1,"[""k"",""space""]",,,,,,,,[0.5430000000000064],"[0.5430000000000064,2.8780000000000143]",,,,,,,,,,,,,,,,,,,,,,,,,,,,,,,,,,,,,,,,,,,,,,,,,,,,,,,,,,,,,,
,,,,575325,001,2023-09-28_17h34.36.044,fluency,2022.2.5,MacIntel,58.82352941,,,,,,,,,,,,,,,,,,,,,,,9,8,img/B08_09.jpg,MF,Press J if the face is FEMALE and K if the face is MALE, ,KJ,,,,,,,,,,,,,,,,,,,,,,,,,,,,,,,,2,0.559,,,,,,,,,,,,,,0,9,9,86,1,,,,,,,,,,,,,,,,,,,,space,0.558,,,,,,,,,,,,,,,,,,,,,,,,,,,,,,,,,,,,,,,,,,,,,,,,,,,,,,,,,,,,
,,,,575325,001,2023-09-28_17h34.36.044,fluency,2022.2.5,MacIntel,58.82352941,,,,,,,,,,,,,,,,,,,,,,,0,1,img/B01_00.jpg,MF,Press J if the face is FEMALE and K if the face is MALE, ,KJ,,,,,,,,,,,,,,,,,,,,,,,,,,,,,,,,,,,,,,,,,,,,,,196.574,0,10,10,0,1,109,0,0,0,0,1,98,,,,,,,,,,,,,,,,,,,,,,,,,,,,,,,,,,,,,,,,,,,,,,,,,,,,,,,,,,,,,,,,,,,,,,,,,,
,,,,575325,001,2023-09-28_17h34.36.044,fluency,2022.2.5,MacIntel,58.82352941,,,,,,,,,,,,,,,,,,,,,,,,,,,,,,,,,,,,,,,,,,,,,,,,,,,,,,,,,,,,,,,,,,,,,,,,,,,,,,,,,,0,0,0,0,1,,"[""k""]",1,"[""k""]",,,,,,,,[0.6809999999999832],[0.6809999999999832],,,,,,,,,,,,,,,,,,,,,,,,,,,,,,,,,,,,,,,,,,,,,,,,,,,,,,,,,,,,,,
,,,,575325,001,2023-09-28_17h34.36.044,fluency,2022.2.5,MacIntel,58.82352941,,,,,,,,,,,,,,,,,,,,,,,0,1,img/B01_00.jpg,MF,Press J if the face is FEMALE and K if the face is MALE, ,KJ,,,,,,,,,,,,,,,,,,,,,,,,,,,,,,,,3,0.589,,,,,,,,,,,,,,0,10,10,0,1,,,,,,,,,,,,,,,,,,,,space,0.35,,,,,,,,,,,,,,,,,,,,,,,,,,,,,,,,,,,,,,,,,,,,,,,,,,,,,,,,,,,,
,,,,575325,001,2023-09-28_17h34.36.044,fluency,2022.2.5,MacIntel,58.82352941,,,,,,,,,,,,,,,,,,,,,,,8,4,img/B04_08.jpg,MF,Press J if the face is FEMALE and K if the face is MALE, ,KJ,,,,,,,,,,,,,,,,,,,,,,,,,,,,,,,,,,,,,,,,,,,,,,201.558,0,11,11,41,1,109,0,0,0,0,1,98,,,,,,,,,,,,,,,,,,,,,,,,,,,,,,,,,,,,,,,,,,,,,,,,,,,,,,,,,,,,,,,,,,,,,,,,,,
,,,,575325,001,2023-09-28_17h34.36.044,fluency,2022.2.5,MacIntel,58.82352941,,,,,,,,,,,,,,,,,,,,,,,,,,,,,,,,,,,,,,,,,,,,,,,,,,,,,,,,,,,,,,,,,,,,,,,,,,,,,,,,,,0,0,0,0,1,,"[""j""]",1,"[""j""]",,,,,,,,[0.578000000000003],[0.578000000000003],,,,,,,,,,,,,,,,,,,,,,,,,,,,,,,,,,,,,,,,,,,,,,,,,,,,,,,,,,,,,,
,,,,575325,001,2023-09-28_17h34.36.044,fluency,2022.2.5,MacIntel,58.82352941,,,,,,,,,,,,,,,,,,,,,,,8,4,img/B04_08.jpg,MF,Press J if the face is FEMALE and K if the face is MALE, ,KJ,,,,,,,,,,,,,,,,,,,,,,,,,,,,,,,,2,0.358,,,,,,,,,,,,,,0,11,11,41,1,,,,,,,,,,,,,,,,,,,,space,0.434,,,,,,,,,,,,,,,,,,,,,,,,,,,,,,,,,,,,,,,,,,,,,,,,,,,,,,,,,,,,
,,,,575325,001,2023-09-28_17h34.36.044,fluency,2022.2.5,MacIntel,58.82352941,,,,,,,,,,,,,,,,,,,,,,,5,8,img/B08_05.jpg,MF,Press J if the face is FEMALE and K if the face is MALE, ,KJ,,,,,,,,,,,,,,,,,,,,,,,,,,,,,,,,,,,,,,,,,,,,,,206.425,0,12,12,82,1,109,0,0,0,0,1,98,,,,,,,,,,,,,,,,,,,,,,,,,,,,,,,,,,,,,,,,,,,,,,,,,,,,,,,,,,,,,,,,,,,,,,,,,,
,,,,575325,001,2023-09-28_17h34.36.044,fluency,2022.2.5,MacIntel,58.82352941,,,,,,,,,,,,,,,,,,,,,,,,,,,,,,,,,,,,,,,,,,,,,,,,,,,,,,,,,,,,,,,,,,,,,,,,,,,,,,,,,,0,0,0,0,1,,"[""j""]",1,"[""j""]",,,,,,,,[0.6929999999999836],[0.6929999999999836],,,,,,,,,,,,,,,,,,,,,,,,,,,,,,,,,,,,,,,,,,,,,,,,,,,,,,,,,,,,,,
,,,,575325,001,2023-09-28_17h34.36.044,fluency,2022.2.5,MacIntel,58.82352941,,,,,,,,,,,,,,,,,,,,,,,5,8,img/B08_05.jpg,MF,Press J if the face is FEMALE and K if the face is MALE, ,KJ,,,,,,,,,,,,,,,,,,,,,,,,,,,,,,,,3,1.879,,,,,,,,,,,,,,0,12,12,82,1,,,,,,,,,,,,,,,,,,,,space,0.974,,,,,,,,,,,,,,,,,,,,,,,,,,,,,,,,,,,,,,,,,,,,,,,,,,,,,,,,,,,,
,,,,575325,001,2023-09-28_17h34.36.044,fluency,2022.2.5,MacIntel,58.82352941,,,,,,,,,,,,,,,,,,,,,,,7,3,img/B03_07.jpg,MF,Press J if the face is FEMALE and K if the face is MALE, ,KJ,,,,,,,,,,,,,,,,,,,,,,,,,,,,,,,,,,,,,,,,,,,,,,213.341,0,13,13,29,1,109,0,0,0,0,1,98,,,,,,,,,,,,,,,,,,,,,,,,,,,,,,,,,,,,,,,,,,,,,,,,,,,,,,,,,,,,,,,,,,,,,,,,,,
,,,,575325,001,2023-09-28_17h34.36.044,fluency,2022.2.5,MacIntel,58.82352941,,,,,,,,,,,,,,,,,,,,,,,,,,,,,,,,,,,,,,,,,,,,,,,,,,,,,,,,,,,,,,,,,,,,,,,,,,,,,,,,,,0,0,0,0,1,,"[""j""]",1,"[""j"",""space""]",,,,,,,,[0.5139999999999816],"[0.5139999999999816,1.625]",,,,,,,,,,,,,,,,,,,,,,,,,,,,,,,,,,,,,,,,,,,,,,,,,,,,,,,,,,,,,,
,,,,575325,001,2023-09-28_17h34.36.044,fluency,2022.2.5,MacIntel,58.82352941,,,,,,,,,,,,,,,,,,,,,,,7,3,img/B03_07.jpg,MF,Press J if the face is FEMALE and K if the face is MALE, ,KJ,,,,,,,,,,,,,,,,,,,,,,,,,,,,,,,,3,0.628,,,,,,,,,,,,,,0,13,13,29,1,,,,,,,,,,,,,,,,,,,,space,0.583,,,,,,,,,,,,,,,,,,,,,,,,,,,,,,,,,,,,,,,,,,,,,,,,,,,,,,,,,,,,
,,,,575325,001,2023-09-28_17h34.36.044,fluency,2022.2.5,MacIntel,58.82352941,,,,,,,,,,,,,,,,,,,,,,,4,1,img/B01_04.jpg,MF,Press J if the face is FEMALE and K if the face is MALE, ,KJ,,,,,,,,,,,,,,,,,,,,,,,,,,,,,,,,,,,,,,,,,,,,,,218.624,0,14,14,4,1,109,0,0,0,0,1,98,,,,,,,,,,,,,,,,,,,,,,,,,,,,,,,,,,,,,,,,,,,,,,,,,,,,,,,,,,,,,,,,,,,,,,,,,,
,,,,575325,001,2023-09-28_17h34.36.044,fluency,2022.2.5,MacIntel,58.82352941,,,,,,,,,,,,,,,,,,,,,,,,,,,,,,,,,,,,,,,,,,,,,,,,,,,,,,,,,,,,,,,,,,,,,,,,,,,,,,,,,,0,0,0,0,1,,"[""j""]",1,"[""j""]",,,,,,,,[0.5100000000000193],[0.5100000000000193],,,,,,,,,,,,,,,,,,,,,,,,,,,,,,,,,,,,,,,,,,,,,,,,,,,,,,,,,,,,,,
,,,,575325,001,2023-09-28_17h34.36.044,fluency,2022.2.5,MacIntel,58.82352941,,,,,,,,,,,,,,,,,,,,,,,4,1,img/B01_04.jpg,MF,Press J if the face is FEMALE and K if the face is MALE, ,KJ,,,,,,,,,,,,,,,,,,,,,,,,,,,,,,,,3,0.659,,,,,,,,,,,,,,0,14,14,4,1,,,,,,,,,,,,,,,,,,,,space,0.357,,,,,,,,,,,,,,,,,,,,,,,,,,,,,,,,,,,,,,,,,,,,,,,,,,,,,,,,,,,,
,,,,575325,001,2023-09-28_17h34.36.044,fluency,2022.2.5,MacIntel,58.82352941,,,,,,,,,,,,,,,,,,,,,,,8,6,img/B06_08.jpg,MF,Press J if the face is FEMALE and K if the face is MALE, ,KJ,,,,,,,,,,,,,,,,,,,,,,,,,,,,,,,,,,,,,,,,,,,,,,223.708,0,15,15,63,1,109,0,0,0,0,1,98,,,,,,,,,,,,,,,,,,,,,,,,,,,,,,,,,,,,,,,,,,,,,,,,,,,,,,,,,,,,,,,,,,,,,,,,,,
,,,,575325,001,2023-09-28_17h34.36.044,fluency,2022.2.5,MacIntel,58.82352941,,,,,,,,,,,,,,,,,,,,,,,,,,,,,,,,,,,,,,,,,,,,,,,,,,,,,,,,,,,,,,,,,,,,,,,,,,,,,,,,,,0,0,0,0,1,,"[""j""]",1,"[""j""]",,,,,,,,[0.5330000000000155],[0.5330000000000155],,,,,,,,,,,,,,,,,,,,,,,,,,,,,,,,,,,,,,,,,,,,,,,,,,,,,,,,,,,,,,
,,,,575325,001,2023-09-28_17h34.36.044,fluency,2022.2.5,MacIntel,58.82352941,,,,,,,,,,,,,,,,,,,,,,,8,6,img/B06_08.jpg,MF,Press J if the face is FEMALE and K if the face is MALE, ,KJ,,,,,,,,,,,,,,,,,,,,,,,,,,,,,,,,4,0.749,,,,,,,,,,,,,,0,15,15,63,1,,,,,,,,,,,,,,,,,,,,space,0.592,,,,,,,,,,,,,,,,,,,,,,,,,,,,,,,,,,,,,,,,,,,,,,,,,,,,,,,,,,,,
,,,,575325,001,2023-09-28_17h34.36.044,fluency,2022.2.5,MacIntel,58.82352941,,,,,,,,,,,,,,,,,,,,,,,1,2,img/B02_01.jpg,MF,Press J if the face is FEMALE and K if the face is MALE, ,KJ,,,,,,,,,,,,,,,,,,,,,,,,,,,,,,,,,,,,,,,,,,,,,,230.107,0,16,16,12,1,109,0,0,0,0,1,98,,,,,,,,,,,,,,,,,,,,,,,,,,,,,,,,,,,,,,,,,,,,,,,,,,,,,,,,,,,,,,,,,,,,,,,,,,
,,,,575325,001,2023-09-28_17h34.36.044,fluency,2022.2.5,MacIntel,58.82352941,,,,,,,,,,,,,,,,,,,,,,,,,,,,,,,,,,,,,,,,,,,,,,,,,,,,,,,,,,,,,,,,,,,,,,,,,,,,,,,,,,0,0,0,0,1,,"[""k""]",1,"[""k""]",,,,,,,,[0.5490000000000066],[0.5490000000000066],,,,,,,,,,,,,,,,,,,,,,,,,,,,,,,,,,,,,,,,,,,,,,,,,,,,,,,,,,,,,,
,,,,575325,001,2023-09-28_17h34.36.044,fluency,2022.2.5,MacIntel,58.82352941,,,,,,,,,,,,,,,,,,,,,,,1,2,img/B02_01.jpg,MF,Press J if the face is FEMALE and K if the face is MALE, ,KJ,,,,,,,,,,,,,,,,,,,,,,,,,,,,,,,,2,2.068,,,,,,,,,,,,,,0,16,16,12,1,,,,,,,,,,,,,,,,,,,,space,0.735,,,,,,,,,,,,,,,,,,,,,,,,,,,,,,,,,,,,,,,,,,,,,,,,,,,,,,,,,,,,
,,,,575325,001,2023-09-28_17h34.36.044,fluency,2022.2.5,MacIntel,58.82352941,,,,,,,,,,,,,,,,,,,,,,,2,8,img/B08_02.jpg,MF,Press J if the face is FEMALE and K if the face is MALE, ,KJ,,,,,,,,,,,,,,,,,,,,,,,,,,,,,,,,,,,,,,,,,,,,,,236.957,0,17,17,79,1,109,0,0,0,0,1,98,,,,,,,,,,,,,,,,,,,,,,,,,,,,,,,,,,,,,,,,,,,,,,,,,,,,,,,,,,,,,,,,,,,,,,,,,,
,,,,575325,001,2023-09-28_17h34.36.044,fluency,2022.2.5,MacIntel,58.82352941,,,,,,,,,,,,,,,,,,,,,,,,,,,,,,,,,,,,,,,,,,,,,,,,,,,,,,,,,,,,,,,,,,,,,,,,,,,,,,,,,,0,0,0,0,1,,"[""j""]",1,"[""j""]",,,,,,,,[0.5150000000000148],[0.5150000000000148],,,,,,,,,,,,,,,,,,,,,,,,,,,,,,,,,,,,,,,,,,,,,,,,,,,,,,,,,,,,,,
,,,,575325,001,2023-09-28_17h34.36.044,fluency,2022.2.5,MacIntel,58.82352941,,,,,,,,,,,,,,,,,,,,,,,2,8,img/B08_02.jpg,MF,Press J if the face is FEMALE and K if the face is MALE, ,KJ,,,,,,,,,,,,,,,,,,,,,,,,,,,,,,,,4,1.922,,,,,,,,,,,,,,0,17,17,79,1,,,,,,,,,,,,,,,,,,,,space,0.551,,,,,,,,,,,,,,,,,,,,,,,,,,,,,,,,,,,,,,,,,,,,,,,,,,,,,,,,,,,,
,,,,575325,001,2023-09-28_17h34.36.044,fluency,2022.2.5,MacIntel,58.82352941,,,,,,,,,,,,,,,,,,,,,,,6,9,img/B09_06.jpg,MF,Press J if the face is FEMALE and K if the face is MALE, ,KJ,,,,,,,,,,,,,,,,,,,,,,,,,,,,,,,,,,,,,,,,,,,,,,244.508,0,18,18,94,1,109,0,0,0,0,1,98,,,,,,,,,,,,,,,,,,,,,,,,,,,,,,,,,,,,,,,,,,,,,,,,,,,,,,,,,,,,,,,,,,,,,,,,,,
,,,,575325,001,2023-09-28_17h34.36.044,fluency,2022.2.5,MacIntel,58.82352941,,,,,,,,,,,,,,,,,,,,,,,,,,,,,,,,,,,,,,,,,,,,,,,,,,,,,,,,,,,,,,,,,,,,,,,,,,,,,,,,,,0,0,0,0,1,,"[""j""]",1,"[""j""]",,,,,,,,[0.632000000000005],[0.632000000000005],,,,,,,,,,,,,,,,,,,,,,,,,,,,,,,,,,,,,,,,,,,,,,,,,,,,,,,,,,,,,,
,,,,575325,001,2023-09-28_17h34.36.044,fluency,2022.2.5,MacIntel,58.82352941,,,,,,,,,,,,,,,,,,,,,,,6,9,img/B09_06.jpg,MF,Press J if the face is FEMALE and K if the face is MALE, ,KJ,,,,,,,,,,,,,,,,,,,,,,,,,,,,,,,,6,0.701,,,,,,,,,,,,,,0,18,18,94,1,,,,,,,,,,,,,,,,,,,,space,0.488,,,,,,,,,,,,,,,,,,,,,,,,,,,,,,,,,,,,,,,,,,,,,,,,,,,,,,,,,,,,
,,,,575325,001,2023-09-28_17h34.36.044,fluency,2022.2.5,MacIntel,58.82352941,,,,,,,,,,,,,,,,,,,,,,,3,9,img/B09_03.jpg,MF,Press J if the face is FEMALE and K if the face is MALE, ,KJ,,,,,,,,,,,,,,,,,,,,,,,,,,,,,,,,,,,,,,,,,,,,,,250.758,0,19,19,91,1,109,0,0,0,0,1,98,,,,,,,,,,,,,,,,,,,,,,,,,,,,,,,,,,,,,,,,,,,,,,,,,,,,,,,,,,,,,,,,,,,,,,,,,,
,,,,575325,001,2023-09-28_17h34.36.044,fluency,2022.2.5,MacIntel,58.82352941,,,,,,,,,,,,,,,,,,,,,,,,,,,,,,,,,,,,,,,,,,,,,,,,,,,,,,,,,,,,,,,,,,,,,,,,,,,,,,,,,,0,0,0,0,1,,"[""j""]",1,"[""space"",""j""]",,,,,,,,[0.61099999999999],"[-3.2730000000000246,0.61099999999999]",,,,,,,,,,,,,,,,,,,,,,,,,,,,,,,,,,,,,,,,,,,,,,,,,,,,,,,,,,,,,,
,,,,575325,001,2023-09-28_17h34.36.044,fluency,2022.2.5,MacIntel,58.82352941,,,,,,,,,,,,,,,,,,,,,,,3,9,img/B09_03.jpg,MF,Press J if the face is FEMALE and K if the face is MALE, ,KJ,,,,,,,,,,,,,,,,,,,,,,,,,,,,,,,,4,0.5,,,,,,,,,,,,,,0,19,19,91,1,,,,,,,,,,,,,,,,,,,,space,0.451,,,,,,,,,,,,,,,,,,,,,,,,,,,,,,,,,,,,,,,,,,,,,,,,,,,,,,,,,,,,
,,,,575325,001,2023-09-28_17h34.36.044,fluency,2022.2.5,MacIntel,58.82352941,,,,,,,,,,,,,,,,,,,,,,,4,3,img/B03_04.jpg,MF,Press J if the face is FEMALE and K if the face is MALE, ,KJ,,,,,,,,,,,,,,,,,,,,,,,,,,,,,,,,,,,,,,,,,,,,,,255.774,0,20,20,26,1,109,0,0,0,0,1,98,,,,,,,,,,,,,,,,,,,,,,,,,,,,,,,,,,,,,,,,,,,,,,,,,,,,,,,,,,,,,,,,,,,,,,,,,,
,,,,575325,001,2023-09-28_17h34.36.044,fluency,2022.2.5,MacIntel,58.82352941,,,,,,,,,,,,,,,,,,,,,,,,,,,,,,,,,,,,,,,,,,,,,,,,,,,,,,,,,,,,,,,,,,,,,,,,,,,,,,,,,,0,0,0,0,1,,"[""k""]",1,"[""k""]",,,,,,,,[0.9839999999999804],[0.9839999999999804],,,,,,,,,,,,,,,,,,,,,,,,,,,,,,,,,,,,,,,,,,,,,,,,,,,,,,,,,,,,,,
,,,,575325,001,2023-09-28_17h34.36.044,fluency,2022.2.5,MacIntel,58.82352941,,,,,,,,,,,,,,,,,,,,,,,4,3,img/B03_04.jpg,MF,Press J if the face is FEMALE and K if the face is MALE, ,KJ,,,,,,,,,,,,,,,,,,,,,,,,,,,,,,,,3,0.443,,,,,,,,,,,,,,0,20,20,26,1,,,,,,,,,,,,,,,,,,,,space,0.351,,,,,,,,,,,,,,,,,,,,,,,,,,,,,,,,,,,,,,,,,,,,,,,,,,,,,,,,,,,,
,,,,575325,001,2023-09-28_17h34.36.044,fluency,2022.2.5,MacIntel,58.82352941,,,,,,,,,,,,,,,,,,,,,,,10,6,img/B06_10.jpg,MF,Press J if the face is FEMALE and K if the face is MALE, ,KJ,,,,,,,,,,,,,,,,,,,,,,,,,,,,,,,,,,,,,,,,,,,,,,260.641,0,21,21,65,1,109,0,0,0,0,1,98,,,,,,,,,,,,,,,,,,,,,,,,,,,,,,,,,,,,,,,,,,,,,,,,,,,,,,,,,,,,,,,,,,,,,,,,,,
,,,,575325,001,2023-09-28_17h34.36.044,fluency,2022.2.5,MacIntel,58.82352941,,,,,,,,,,,,,,,,,,,,,,,,,,,,,,,,,,,,,,,,,,,,,,,,,,,,,,,,,,,,,,,,,,,,,,,,,,,,,,,,,,0,0,0,0,1,,"[""j""]",1,"[""j""]",,,,,,,,[0.47699999999997544],[0.47699999999997544],,,,,,,,,,,,,,,,,,,,,,,,,,,,,,,,,,,,,,,,,,,,,,,,,,,,,,,,,,,,,,
,,,,575325,001,2023-09-28_17h34.36.044,fluency,2022.2.5,MacIntel,58.82352941,,,,,,,,,,,,,,,,,,,,,,,10,6,img/B06_10.jpg,MF,Press J if the face is FEMALE and K if the face is MALE, ,KJ,,,,,,,,,,,,,,,,,,,,,,,,,,,,,,,,4,0.341,,,,,,,,,,,,,,0,21,21,65,1,,,,,,,,,,,,,,,,,,,,space,0.593,,,,,,,,,,,,,,,,,,,,,,,,,,,,,,,,,,,,,,,,,,,,,,,,,,,,,,,,,,,,
,,,,575325,001,2023-09-28_17h34.36.044,fluency,2022.2.5,MacIntel,58.82352941,,,,,,,,,,,,,,,,,,,,,,,3,10,img/B10_03.jpg,MF,Press J if the face is FEMALE and K if the face is MALE, ,KJ,,,,,,,,,,,,,,,,,,,,,,,,,,,,,,,,,,,,,,,,,,,,,,265.64,0,22,22,102,1,109,0,0,0,0,1,98,,,,,,,,,,,,,,,,,,,,,,,,,,,,,,,,,,,,,,,,,,,,,,,,,,,,,,,,,,,,,,,,,,,,,,,,,,
,,,,575325,001,2023-09-28_17h34.36.044,fluency,2022.2.5,MacIntel,58.82352941,,,,,,,,,,,,,,,,,,,,,,,,,,,,,,,,,,,,,,,,,,,,,,,,,,,,,,,,,,,,,,,,,,,,,,,,,,,,,,,,,,0,0,0,0,1,,"[""j""]",1,"[""j""]",,,,,,,,[0.44700000000000273],[0.44700000000000273],,,,,,,,,,,,,,,,,,,,,,,,,,,,,,,,,,,,,,,,,,,,,,,,,,,,,,,,,,,,,,
,,,,575325,001,2023-09-28_17h34.36.044,fluency,2022.2.5,MacIntel,58.82352941,,,,,,,,,,,,,,,,,,,,,,,3,10,img/B10_03.jpg,MF,Press J if the face is FEMALE and K if the face is MALE, ,KJ,,,,,,,,,,,,,,,,,,,,,,,,,,,,,,,,7,1.411,,,,,,,,,,,,,,0,22,22,102,1,,,,,,,,,,,,,,,,,,,,space,0.407,,,,,,,,,,,,,,,,,,,,,,,,,,,,,,,,,,,,,,,,,,,,,,,,,,,,,,,,,,,,
,,,,575325,001,2023-09-28_17h34.36.044,fluency,2022.2.5,MacIntel,58.82352941,,,,,,,,,,,,,,,,,,,,,,,6,1,img/B01_06.jpg,MF,Press J if the face is FEMALE and K if the face is MALE, ,KJ,,,,,,,,,,,,,,,,,,,,,,,,,,,,,,,,,,,,,,,,,,,,,,272.524,0,23,23,6,1,109,0,0,0,0,1,98,,,,,,,,,,,,,,,,,,,,,,,,,,,,,,,,,,,,,,,,,,,,,,,,,,,,,,,,,,,,,,,,,,,,,,,,,,
,,,,575325,001,2023-09-28_17h34.36.044,fluency,2022.2.5,MacIntel,58.82352941,,,,,,,,,,,,,,,,,,,,,,,,,,,,,,,,,,,,,,,,,,,,,,,,,,,,,,,,,,,,,,,,,,,,,,,,,,,,,,,,,,0,0,0,0,1,,"[""j""]",1,"[""j""]",,,,,,,,[0.73599999999999],[0.73599999999999],,,,,,,,,,,,,,,,,,,,,,,,,,,,,,,,,,,,,,,,,,,,,,,,,,,,,,,,,,,,,,
,,,,575325,001,2023-09-28_17h34.36.044,fluency,2022.2.5,MacIntel,58.82352941,,,,,,,,,,,,,,,,,,,,,,,6,1,img/B01_06.jpg,MF,Press J if the face is FEMALE and K if the face is MALE, ,KJ,,,,,,,,,,,,,,,,,,,,,,,,,,,,,,,,4,1.901,,,,,,,,,,,,,,0,23,23,6,1,,,,,,,,,,,,,,,,,,,,space,0.407,,,,,,,,,,,,,,,,,,,,,,,,,,,,,,,,,,,,,,,,,,,,,,,,,,,,,,,,,,,,
,,,,575325,001,2023-09-28_17h34.36.044,fluency,2022.2.5,MacIntel,58.82352941,,,,,,,,,,,,,,,,,,,,,,,3,5,img/B05_03.jpg,MF,Press J if the face is FEMALE and K if the face is MALE, ,KJ,,,,,,,,,,,,,,,,,,,,,,,,,,,,,,,,,,,,,,,,,,,,,,278.891,0,24,24,47,1,109,0,0,0,0,1,98,,,,,,,,,,,,,,,,,,,,,,,,,,,,,,,,,,,,,,,,,,,,,,,,,,,,,,,,,,,,,,,,,,,,,,,,,,
,,,,575325,001,2023-09-28_17h34.36.044,fluency,2022.2.5,MacIntel,58.82352941,,,,,,,,,,,,,,,,,,,,,,,,,,,,,,,,,,,,,,,,,,,,,,,,,,,,,,,,,,,,,,,,,,,,,,,,,,,,,,,,,,0,0,0,0,1,,"[""j""]",1,"[""j""]",,,,,,,,[0.7320000000000277],[0.7320000000000277],,,,,,,,,,,,,,,,,,,,,,,,,,,,,,,,,,,,,,,,,,,,,,,,,,,,,,,,,,,,,,
,,,,575325,001,2023-09-28_17h34.36.044,fluency,2022.2.5,MacIntel,58.82352941,,,,,,,,,,,,,,,,,,,,,,,3,5,img/B05_03.jpg,MF,Press J if the face is FEMALE and K if the face is MALE, ,KJ,,,,,,,,,,,,,,,,,,,,,,,,,,,,,,,,4,2.527,,,,,,,,,,,,,,0,24,24,47,1,,,,,,,,,,,,,,,,,,,,space,0.366,,,,,,,,,,,,,,,,,,,,,,,,,,,,,,,,,,,,,,,,,,,,,,,,,,,,,,,,,,,,
,,,,575325,001,2023-09-28_17h34.36.044,fluency,2022.2.5,MacIntel,58.82352941,,,,,,,,,,,,,,,,,,,,,,,1,3,img/B03_01.jpg,MF,Press J if the face is FEMALE and K if the face is MALE, ,KJ,,,,,,,,,,,,,,,,,,,,,,,,,,,,,,,,,,,,,,,,,,,,,,286.857,0,25,25,23,1,109,0,0,0,0,1,98,,,,,,,,,,,,,,,,,,,,,,,,,,,,,,,,,,,,,,,,,,,,,,,,,,,,,,,,,,,,,,,,,,,,,,,,,,
,,,,575325,001,2023-09-28_17h34.36.044,fluency,2022.2.5,MacIntel,58.82352941,,,,,,,,,,,,,,,,,,,,,,,,,,,,,,,,,,,,,,,,,,,,,,,,,,,,,,,,,,,,,,,,,,,,,,,,,,,,,,,,,,0,0,0,0,1,,"[""k""]",1,"[""k""]",,,,,,,,[0.49799999999999045],[0.49799999999999045],,,,,,,,,,,,,,,,,,,,,,,,,,,,,,,,,,,,,,,,,,,,,,,,,,,,,,,,,,,,,,
,,,,575325,001,2023-09-28_17h34.36.044,fluency,2022.2.5,MacIntel,58.82352941,,,,,,,,,,,,,,,,,,,,,,,1,3,img/B03_01.jpg,MF,Press J if the face is FEMALE and K if the face is MALE, ,KJ,,,,,,,,,,,,,,,,,,,,,,,,,,,,,,,,7,1.277,,,,,,,,,,,,,,0,25,25,23,1,,,,,,,,,,,,,,,,,,,,space,0.317,,,,,,,,,,,,,,,,,,,,,,,,,,,,,,,,,,,,,,,,,,,,,,,,,,,,,,,,,,,,
,,,,575325,001,2023-09-28_17h34.36.044,fluency,2022.2.5,MacIntel,58.82352941,,,,,,,,,,,,,,,,,,,,,,,7,6,img/B06_07.jpg,MF,Press J if the face is FEMALE and K if the face is MALE, ,KJ,,,,,,,,,,,,,,,,,,,,,,,,,,,,,,,,,,,,,,,,,,,,,,293.523,0,26,26,62,1,109,0,0,0,0,1,98,,,,,,,,,,,,,,,,,,,,,,,,,,,,,,,,,,,,,,,,,,,,,,,,,,,,,,,,,,,,,,,,,,,,,,,,,,
,,,,575325,001,2023-09-28_17h34.36.044,fluency,2022.2.5,MacIntel,58.82352941,,,,,,,,,,,,,,,,,,,,,,,,,,,,,,,,,,,,,,,,,,,,,,,,,,,,,,,,,,,,,,,,,,,,,,,,,,,,,,,,,,0,0,0,0,1,,"[""j""]",1,"[""j""]",,,,,,,,[0.5809999999999604],[0.5809999999999604],,,,,,,,,,,,,,,,,,,,,,,,,,,,,,,,,,,,,,,,,,,,,,,,,,,,,,,,,,,,,,
,,,,575325,001,2023-09-28_17h34.36.044,fluency,2022.2.5,MacIntel,58.82352941,,,,,,,,,,,,,,,,,,,,,,,7,6,img/B06_07.jpg,MF,Press J if the face is FEMALE and K if the face is MALE, ,KJ,,,,,,,,,,,,,,,,,,,,,,,,,,,,,,,,6,0.792,,,,,,,,,,,,,,0,26,26,62,1,,,,,,,,,,,,,,,,,,,,space,0.433,,,,,,,,,,,,,,,,,,,,,,,,,,,,,,,,,,,,,,,,,,,,,,,,,,,,,,,,,,,,
,,,,575325,001,2023-09-28_17h34.36.044,fluency,2022.2.5,MacIntel,58.82352941,,,,,,,,,,,,,,,,,,,,,,,6,8,img/B08_06.jpg,MF,Press J if the face is FEMALE and K if the face is MALE, ,KJ,,,,,,,,,,,,,,,,,,,,,,,,,,,,,,,,,,,,,,,,,,,,,,298.791,0,27,27,83,1,109,0,0,0,0,1,98,,,,,,,,,,,,,,,,,,,,,,,,,,,,,,,,,,,,,,,,,,,,,,,,,,,,,,,,,,,,,,,,,,,,,,,,,,
,,,,575325,001,2023-09-28_17h34.36.044,fluency,2022.2.5,MacIntel,58.82352941,,,,,,,,,,,,,,,,,,,,,,,,,,,,,,,,,,,,,,,,,,,,,,,,,,,,,,,,,,,,,,,,,,,,,,,,,,,,,,,,,,0,0,0,0,1,,"[""k""]",1,"[""k""]",,,,,,,,[0.6589999999999918],[0.6589999999999918],,,,,,,,,,,,,,,,,,,,,,,,,,,,,,,,,,,,,,,,,,,,,,,,,,,,,,,,,,,,,,
,,,,575325,001,2023-09-28_17h34.36.044,fluency,2022.2.5,MacIntel,58.82352941,,,,,,,,,,,,,,,,,,,,,,,6,8,img/B08_06.jpg,MF,Press J if the face is FEMALE and K if the face is MALE, ,KJ,,,,,,,,,,,,,,,,,,,,,,,,,,,,,,,,3,0.548,,,,,,,,,,,,,,0,27,27,83,1,,,,,,,,,,,,,,,,,,,,space,0.635,,,,,,,,,,,,,,,,,,,,,,,,,,,,,,,,,,,,,,,,,,,,,,,,,,,,,,,,,,,,
,,,,575325,001,2023-09-28_17h34.36.044,fluency,2022.2.5,MacIntel,58.82352941,,,,,,,,,,,,,,,,,,,,,,,7,9,img/B09_07.jpg,MF,Press J if the face is FEMALE and K if the face is MALE, ,KJ,,,,,,,,,,,,,,,,,,,,,,,,,,,,,,,,,,,,,,,,,,,,,,304.041,0,28,28,95,1,109,0,0,0,0,1,98,,,,,,,,,,,,,,,,,,,,,,,,,,,,,,,,,,,,,,,,,,,,,,,,,,,,,,,,,,,,,,,,,,,,,,,,,,
,,,,575325,001,2023-09-28_17h34.36.044,fluency,2022.2.5,MacIntel,58.82352941,,,,,,,,,,,,,,,,,,,,,,,,,,,,,,,,,,,,,,,,,,,,,,,,,,,,,,,,,,,,,,,,,,,,,,,,,,,,,,,,,,0,0,0,0,1,,"[""j""]",1,"[""j""]",,,,,,,,[0.6019999999999754],[0.6019999999999754],,,,,,,,,,,,,,,,,,,,,,,,,,,,,,,,,,,,,,,,,,,,,,,,,,,,,,,,,,,,,,
,,,,575325,001,2023-09-28_17h34.36.044,fluency,2022.2.5,MacIntel,58.82352941,,,,,,,,,,,,,,,,,,,,,,,7,9,img/B09_07.jpg,MF,Press J if the face is FEMALE and K if the face is MALE, ,KJ,,,,,,,,,,,,,,,,,,,,,,,,,,,,,,,,6,1.028,,,,,,,,,,,,,,0,28,28,95,1,,,,,,,,,,,,,,,,,,,,space,0.251,,,,,,,,,,,,,,,,,,,,,,,,,,,,,,,,,,,,,,,,,,,,,,,,,,,,,,,,,,,,
,,,,575325,001,2023-09-28_17h34.36.044,fluency,2022.2.5,MacIntel,58.82352941,,,,,,,,,,,,,,,,,,,,,,,7,1,img/B01_07.jpg,MF,Press J if the face is FEMALE and K if the face is MALE, ,KJ,,,,,,,,,,,,,,,,,,,,,,,,,,,,,,,,,,,,,,,,,,,,,,309.39,0,29,29,7,1,109,0,0,0,0,1,98,,,,,,,,,,,,,,,,,,,,,,,,,,,,,,,,,,,,,,,,,,,,,,,,,,,,,,,,,,,,,,,,,,,,,,,,,,
,,,,575325,001,2023-09-28_17h34.36.044,fluency,2022.2.5,MacIntel,58.82352941,,,,,,,,,,,,,,,,,,,,,,,,,,,,,,,,,,,,,,,,,,,,,,,,,,,,,,,,,,,,,,,,,,,,,,,,,,,,,,,,,,0,0,0,0,1,,"[""j""]",1,"[""j"",""space""]",,,,,,,,[0.4300000000000068],"[0.4300000000000068,2.959000000000003]",,,,,,,,,,,,,,,,,,,,,,,,,,,,,,,,,,,,,,,,,,,,,,,,,,,,,,,,,,,,,,
,,,,575325,001,2023-09-28_17h34.36.044,fluency,2022.2.5,MacIntel,58.82352941,,,,,,,,,,,,,,,,,,,,,,,7,1,img/B01_07.jpg,MF,Press J if the face is FEMALE and K if the face is MALE, ,KJ,,,,,,,,,,,,,,,,,,,,,,,,,,,,,,,,4,0.527,,,,,,,,,,,,,,0,29,29,7,1,,,,,,,,,,,,,,,,,,,,space,0.416,,,,,,,,,,,,,,,,,,,,,,,,,,,,,,,,,,,,,,,,,,,,,,,,,,,,,,,,,,,,
,,,,575325,001,2023-09-28_17h34.36.044,fluency,2022.2.5,MacIntel,58.82352941,,,,,,,,,,,,,,,,,,,,,,,2,6,img/B06_02.jpg,MF,Press J if the face is FEMALE and K if the face is MALE, ,KJ,,,,,,,,,,,,,,,,,,,,,,,,,,,,,,,,,,,,,,,,,,,,,,314.408,0,30,30,57,1,109,0,0,0,0,1,98,,,,,,,,,,,,,,,,,,,,,,,,,,,,,,,,,,,,,,,,,,,,,,,,,,,,,,,,,,,,,,,,,,,,,,,,,,
,,,,575325,001,2023-09-28_17h34.36.044,fluency,2022.2.5,MacIntel,58.82352941,,,,,,,,,,,,,,,,,,,,,,,,,,,,,,,,,,,,,,,,,,,,,,,,,,,,,,,,,,,,,,,,,,,,,,,,,,,,,,,,,,0,0,0,0,1,,"[""k""]",1,"[""k""]",,,,,,,,[0.5260000000000105],[0.5260000000000105],,,,,,,,,,,,,,,,,,,,,,,,,,,,,,,,,,,,,,,,,,,,,,,,,,,,,,,,,,,,,,
,,,,575325,001,2023-09-28_17h34.36.044,fluency,2022.2.5,MacIntel,58.82352941,,,,,,,,,,,,,,,,,,,,,,,2,6,img/B06_02.jpg,MF,Press J if the face is FEMALE and K if the face is MALE, ,KJ,,,,,,,,,,,,,,,,,,,,,,,,,,,,,,,,4,0.845,,,,,,,,,,,,,,0,30,30,57,1,,,,,,,,,,,,,,,,,,,,space,0.317,,,,,,,,,,,,,,,,,,,,,,,,,,,,,,,,,,,,,,,,,,,,,,,,,,,,,,,,,,,,
,,,,575325,001,2023-09-28_17h34.36.044,fluency,2022.2.5,MacIntel,58.82352941,,,,,,,,,,,,,,,,,,,,,,,9,3,img/B03_09.jpg,MF,Press J if the face is FEMALE and K if the face is MALE, ,KJ,,,,,,,,,,,,,,,,,,,,,,,,,,,,,,,,,,,,,,,,,,,,,,319.641,0,31,31,31,1,109,0,0,0,0,1,98,,,,,,,,,,,,,,,,,,,,,,,,,,,,,,,,,,,,,,,,,,,,,,,,,,,,,,,,,,,,,,,,,,,,,,,,,,
,,,,575325,001,2023-09-28_17h34.36.044,fluency,2022.2.5,MacIntel,58.82352941,,,,,,,,,,,,,,,,,,,,,,,,,,,,,,,,,,,,,,,,,,,,,,,,,,,,,,,,,,,,,,,,,,,,,,,,,,,,,,,,,,0,0,0,0,1,,"[""j""]",1,"[""j""]",,,,,,,,[0.8090000000000259],[0.8090000000000259],,,,,,,,,,,,,,,,,,,,,,,,,,,,,,,,,,,,,,,,,,,,,,,,,,,,,,,,,,,,,,
,,,,575325,001,2023-09-28_17h34.36.044,fluency,2022.2.5,MacIntel,58.82352941,,,,,,,,,,,,,,,,,,,,,,,9,3,img/B03_09.jpg,MF,Press J if the face is FEMALE and K if the face is MALE, ,KJ,,,,,,,,,,,,,,,,,,,,,,,,,,,,,,,,3,0.566,,,,,,,,,,,,,,0,31,31,31,1,,,,,,,,,,,,,,,,,,,,space,0.242,,,,,,,,,,,,,,,,,,,,,,,,,,,,,,,,,,,,,,,,,,,,,,,,,,,,,,,,,,,,
,,,,575325,001,2023-09-28_17h34.36.044,fluency,2022.2.5,MacIntel,58.82352941,,,,,,,,,,,,,,,,,,,,,,,1,10,img/B10_01.jpg,MF,Press J if the face is FEMALE and K if the face is MALE, ,KJ,,,,,,,,,,,,,,,,,,,,,,,,,,,,,,,,,,,,,,,,,,,,,,325.507,0,32,32,100,1,109,0,0,0,0,1,98,,,,,,,,,,,,,,,,,,,,,,,,,,,,,,,,,,,,,,,,,,,,,,,,,,,,,,,,,,,,,,,,,,,,,,,,,,
,,,,575325,001,2023-09-28_17h34.36.044,fluency,2022.2.5,MacIntel,58.82352941,,,,,,,,,,,,,,,,,,,,,,,,,,,,,,,,,,,,,,,,,,,,,,,,,,,,,,,,,,,,,,,,,,,,,,,,,,,,,,,,,,0,0,0,0,1,,"[""k""]",1,"[""k""]",,,,,,,,[0.5259999999999536],[0.5259999999999536],,,,,,,,,,,,,,,,,,,,,,,,,,,,,,,,,,,,,,,,,,,,,,,,,,,,,,,,,,,,,,
,,,,575325,001,2023-09-28_17h34.36.044,fluency,2022.2.5,MacIntel,58.82352941,,,,,,,,,,,,,,,,,,,,,,,1,10,img/B10_01.jpg,MF,Press J if the face is FEMALE and K if the face is MALE, ,KJ,,,,,,,,,,,,,,,,,,,,,,,,,,,,,,,,7,0.36,,,,,,,,,,,,,,0,32,32,100,1,,,,,,,,,,,,,,,,,,,,space,0.325,,,,,,,,,,,,,,,,,,,,,,,,,,,,,,,,,,,,,,,,,,,,,,,,,,,,,,,,,,,,
,,,,575325,001,2023-09-28_17h34.36.044,fluency,2022.2.5,MacIntel,58.82352941,,,,,,,,,,,,,,,,,,,,,,,1,8,img/B08_01.jpg,MF,Press J if the face is FEMALE and K if the face is MALE, ,KJ,,,,,,,,,,,,,,,,,,,,,,,,,,,,,,,,,,,,,,,,,,,,,,330.257,0,33,33,78,1,109,0,0,0,0,1,98,,,,,,,,,,,,,,,,,,,,,,,,,,,,,,,,,,,,,,,,,,,,,,,,,,,,,,,,,,,,,,,,,,,,,,,,,,
,,,,575325,001,2023-09-28_17h34.36.044,fluency,2022.2.5,MacIntel,58.82352941,,,,,,,,,,,,,,,,,,,,,,,,,,,,,,,,,,,,,,,,,,,,,,,,,,,,,,,,,,,,,,,,,,,,,,,,,,,,,,,,,,0,0,0,0,1,,"[""j""]",1,"[""j""]",,,,,,,,[0.6820000000000164],[0.6820000000000164],,,,,,,,,,,,,,,,,,,,,,,,,,,,,,,,,,,,,,,,,,,,,,,,,,,,,,,,,,,,,,
,,,,575325,001,2023-09-28_17h34.36.044,fluency,2022.2.5,MacIntel,58.82352941,,,,,,,,,,,,,,,,,,,,,,,1,8,img/B08_01.jpg,MF,Press J if the face is FEMALE and K if the face is MALE, ,KJ,,,,,,,,,,,,,,,,,,,,,,,,,,,,,,,,3,0.379,,,,,,,,,,,,,,0,33,33,78,1,,,,,,,,,,,,,,,,,,,,space,0.258,,,,,,,,,,,,,,,,,,,,,,,,,,,,,,,,,,,,,,,,,,,,,,,,,,,,,,,,,,,,
,,,,575325,001,2023-09-28_17h34.36.044,fluency,2022.2.5,MacIntel,58.82352941,,,,,,,,,,,,,,,,,,,,,,,9,7,img/B07_09.jpg,MF,Press J if the face is FEMALE and K if the face is MALE, ,KJ,,,,,,,,,,,,,,,,,,,,,,,,,,,,,,,,,,,,,,,,,,,,,,334.957,0,34,34,75,1,109,0,0,0,0,1,98,,,,,,,,,,,,,,,,,,,,,,,,,,,,,,,,,,,,,,,,,,,,,,,,,,,,,,,,,,,,,,,,,,,,,,,,,,
,,,,575325,001,2023-09-28_17h34.36.044,fluency,2022.2.5,MacIntel,58.82352941,,,,,,,,,,,,,,,,,,,,,,,,,,,,,,,,,,,,,,,,,,,,,,,,,,,,,,,,,,,,,,,,,,,,,,,,,,,,,,,,,,0,0,0,0,1,,"[""j""]",1,"[""j""]",,,,,,,,[0.5100000000000477],[0.5090000000000146],,,,,,,,,,,,,,,,,,,,,,,,,,,,,,,,,,,,,,,,,,,,,,,,,,,,,,,,,,,,,,
,,,,575325,001,2023-09-28_17h34.36.044,fluency,2022.2.5,MacIntel,58.82352941,,,,,,,,,,,,,,,,,,,,,,,9,7,img/B07_09.jpg,MF,Press J if the face is FEMALE and K if the face is MALE, ,KJ,,,,,,,,,,,,,,,,,,,,,,,,,,,,,,,,6,0.525,,,,,,,,,,,,,,0,34,34,75,1,,,,,,,,,,,,,,,,,,,,space,0.325,,,,,,,,,,,,,,,,,,,,,,,,,,,,,,,,,,,,,,,,,,,,,,,,,,,,,,,,,,,,
,,,,575325,001,2023-09-28_17h34.36.044,fluency,2022.2.5,MacIntel,58.82352941,,,,,,,,,,,,,,,,,,,,,,,2,2,img/B02_02.jpg,MF,Press J if the face is FEMALE and K if the face is MALE, ,KJ,,,,,,,,,,,,,,,,,,,,,,,,,,,,,,,,,,,,,,,,,,,,,,340.873,0,35,35,13,1,109,0,0,0,0,1,98,,,,,,,,,,,,,,,,,,,,,,,,,,,,,,,,,,,,,,,,,,,,,,,,,,,,,,,,,,,,,,,,,,,,,,,,,,
,,,,575325,001,2023-09-28_17h34.36.044,fluency,2022.2.5,MacIntel,58.82352941,,,,,,,,,,,,,,,,,,,,,,,,,,,,,,,,,,,,,,,,,,,,,,,,,,,,,,,,,,,,,,,,,,,,,,,,,,,,,,,,,,0,0,0,0,1,,"[""k""]",1,"[""k""]",,,,,,,,[0.7810000000000059],[0.7810000000000059],,,,,,,,,,,,,,,,,,,,,,,,,,,,,,,,,,,,,,,,,,,,,,,,,,,,,,,,,,,,,,
,,,,575325,001,2023-09-28_17h34.36.044,fluency,2022.2.5,MacIntel,58.82352941,,,,,,,,,,,,,,,,,,,,,,,2,2,img/B02_02.jpg,MF,Press J if the face is FEMALE and K if the face is MALE, ,KJ,,,,,,,,,,,,,,,,,,,,,,,,,,,,,,,,2,0.431,,,,,,,,,,,,,,0,35,35,13,1,,,,,,,,,,,,,,,,,,,,space,0.226,,,,,,,,,,,,,,,,,,,,,,,,,,,,,,,,,,,,,,,,,,,,,,,,,,,,,,,,,,,,
,,,,575325,001,2023-09-28_17h34.36.044,fluency,2022.2.5,MacIntel,58.82352941,,,,,,,,,,,,,,,,,,,,,,,10,9,img/B09_10.jpg,MF,Press J if the face is FEMALE and K if the face is MALE, ,KJ,,,,,,,,,,,,,,,,,,,,,,,,,,,,,,,,,,,,,,,,,,,,,,345.59,0,36,36,98,1,109,0,0,0,0,1,98,,,,,,,,,,,,,,,,,,,,,,,,,,,,,,,,,,,,,,,,,,,,,,,,,,,,,,,,,,,,,,,,,,,,,,,,,,
,,,,575325,001,2023-09-28_17h34.36.044,fluency,2022.2.5,MacIntel,58.82352941,,,,,,,,,,,,,,,,,,,,,,,,,,,,,,,,,,,,,,,,,,,,,,,,,,,,,,,,,,,,,,,,,,,,,,,,,,,,,,,,,,0,0,0,0,1,,"[""j""]",1,"[""j""]",,,,,,,,[0.5749999999999886],[0.5749999999999886],,,,,,,,,,,,,,,,,,,,,,,,,,,,,,,,,,,,,,,,,,,,,,,,,,,,,,,,,,,,,,
,,,,575325,001,2023-09-28_17h34.36.044,fluency,2022.2.5,MacIntel,58.82352941,,,,,,,,,,,,,,,,,,,,,,,10,9,img/B09_10.jpg,MF,Press J if the face is FEMALE and K if the face is MALE, ,KJ,,,,,,,,,,,,,,,,,,,,,,,,,,,,,,,,3,0.36,,,,,,,,,,,,,,0,36,36,98,1,,,,,,,,,,,,,,,,,,,,space,0.21,,,,,,,,,,,,,,,,,,,,,,,,,,,,,,,,,,,,,,,,,,,,,,,,,,,,,,,,,,,,
,,,,575325,001,2023-09-28_17h34.36.044,fluency,2022.2.5,MacIntel,58.82352941,,,,,,,,,,,,,,,,,,,,,,,0,4,img/B04_00.jpg,MF,Press J if the face is FEMALE and K if the face is MALE, ,KJ,,,,,,,,,,,,,,,,,,,,,,,,,,,,,,,,,,,,,,,,,,,,,,350.224,0,37,37,33,1,109,0,0,0,0,1,98,,,,,,,,,,,,,,,,,,,,,,,,,,,,,,,,,,,,,,,,,,,,,,,,,,,,,,,,,,,,,,,,,,,,,,,,,,
,,,,575325,001,2023-09-28_17h34.36.044,fluency,2022.2.5,MacIntel,58.82352941,,,,,,,,,,,,,,,,,,,,,,,,,,,,,,,,,,,,,,,,,,,,,,,,,,,,,,,,,,,,,,,,,,,,,,,,,,,,,,,,,,0,0,0,0,1,,"[""k""]",1,"[""k""]",,,,,,,,[0.6599999999999682],[0.6599999999999682],,,,,,,,,,,,,,,,,,,,,,,,,,,,,,,,,,,,,,,,,,,,,,,,,,,,,,,,,,,,,,
,,,,575325,001,2023-09-28_17h34.36.044,fluency,2022.2.5,MacIntel,58.82352941,,,,,,,,,,,,,,,,,,,,,,,0,4,img/B04_00.jpg,MF,Press J if the face is FEMALE and K if the face is MALE, ,KJ,,,,,,,,,,,,,,,,,,,,,,,,,,,,,,,,3,1.082,,,,,,,,,,,,,,0,37,37,33,1,,,,,,,,,,,,,,,,,,,,space,0.285,,,,,,,,,,,,,,,,,,,,,,,,,,,,,,,,,,,,,,,,,,,,,,,,,,,,,,,,,,,,
,,,,575325,001,2023-09-28_17h34.36.044,fluency,2022.2.5,MacIntel,58.82352941,,,,,,,,,,,,,,,,,,,,,,,3,6,img/B06_03.jpg,MF,Press J if the face is FEMALE and K if the face is MALE, ,KJ,,,,,,,,,,,,,,,,,,,,,,,,,,,,,,,,,,,,,,,,,,,,,,355.657,0,38,38,58,1,109,0,0,0,0,1,98,,,,,,,,,,,,,,,,,,,,,,,,,,,,,,,,,,,,,,,,,,,,,,,,,,,,,,,,,,,,,,,,,,,,,,,,,,
,,,,575325,001,2023-09-28_17h34.36.044,fluency,2022.2.5,MacIntel,58.82352941,,,,,,,,,,,,,,,,,,,,,,,,,,,,,,,,,,,,,,,,,,,,,,,,,,,,,,,,,,,,,,,,,,,,,,,,,,,,,,,,,,0,0,0,0,1,,"[""k""]",1,"[""k""]",,,,,,,,[0.5930000000000177],[0.5930000000000177],,,,,,,,,,,,,,,,,,,,,,,,,,,,,,,,,,,,,,,,,,,,,,,,,,,,,,,,,,,,,,
,,,,575325,001,2023-09-28_17h34.36.044,fluency,2022.2.5,MacIntel,58.82352941,,,,,,,,,,,,,,,,,,,,,,,3,6,img/B06_03.jpg,MF,Press J if the face is FEMALE and K if the face is MALE, ,KJ,,,,,,,,,,,,,,,,,,,,,,,,,,,,,,,,3,0.321,,,,,,,,,,,,,,0,38,38,58,1,,,,,,,,,,,,,,,,,,,,space,0.235,,,,,,,,,,,,,,,,,,,,,,,,,,,,,,,,,,,,,,,,,,,,,,,,,,,,,,,,,,,,
,,,,575325,001,2023-09-28_17h34.36.044,fluency,2022.2.5,MacIntel,58.82352941,,,,,,,,,,,,,,,,,,,,,,,10,8,img/B08_10.jpg,MF,Press J if the face is FEMALE and K if the face is MALE, ,KJ,,,,,,,,,,,,,,,,,,,,,,,,,,,,,,,,,,,,,,,,,,,,,,360.274,0,39,39,87,1,109,0,0,0,0,1,98,,,,,,,,,,,,,,,,,,,,,,,,,,,,,,,,,,,,,,,,,,,,,,,,,,,,,,,,,,,,,,,,,,,,,,,,,,
,,,,575325,001,2023-09-28_17h34.36.044,fluency,2022.2.5,MacIntel,58.82352941,,,,,,,,,,,,,,,,,,,,,,,,,,,,,,,,,,,,,,,,,,,,,,,,,,,,,,,,,,,,,,,,,,,,,,,,,,,,,,,,,,0,0,0,0,1,,"[""k""]",1,"[""k""]",,,,,,,,[0.492999999999995],[0.492999999999995],,,,,,,,,,,,,,,,,,,,,,,,,,,,,,,,,,,,,,,,,,,,,,,,,,,,,,,,,,,,,,
,,,,575325,001,2023-09-28_17h34.36.044,fluency,2022.2.5,MacIntel,58.82352941,,,,,,,,,,,,,,,,,,,,,,,10,8,img/B08_10.jpg,MF,Press J if the face is FEMALE and K if the face is MALE, ,KJ,,,,,,,,,,,,,,,,,,,,,,,,,,,,,,,,2,0.31,,,,,,,,,,,,,,0,39,39,87,1,,,,,,,,,,,,,,,,,,,,space,0.235,,,,,,,,,,,,,,,,,,,,,,,,,,,,,,,,,,,,,,,,,,,,,,,,,,,,,,,,,,,,
,,,,575325,001,2023-09-28_17h34.36.044,fluency,2022.2.5,MacIntel,58.82352941,,,,,,,,,,,,,,,,,,,,,,,3,3,img/B03_03.jpg,MF,Press J if the face is FEMALE and K if the face is MALE, ,KJ,,,,,,,,,,,,,,,,,,,,,,,,,,,,,,,,,,,,,,,,,,,,,,364.891,0,40,40,25,1,109,0,0,0,0,1,98,,,,,,,,,,,,,,,,,,,,,,,,,,,,,,,,,,,,,,,,,,,,,,,,,,,,,,,,,,,,,,,,,,,,,,,,,,
,,,,575325,001,2023-09-28_17h34.36.044,fluency,2022.2.5,MacIntel,58.82352941,,,,,,,,,,,,,,,,,,,,,,,,,,,,,,,,,,,,,,,,,,,,,,,,,,,,,,,,,,,,,,,,,,,,,,,,,,,,,,,,,,0,0,0,0,1,,"[""k""]",1,"[""k""]",,,,,,,,[0.5430000000000064],[0.5430000000000064],,,,,,,,,,,,,,,,,,,,,,,,,,,,,,,,,,,,,,,,,,,,,,,,,,,,,,,,,,,,,,
,,,,575325,001,2023-09-28_17h34.36.044,fluency,2022.2.5,MacIntel,58.82352941,,,,,,,,,,,,,,,,,,,,,,,3,3,img/B03_03.jpg,MF,Press J if the face is FEMALE and K if the face is MALE, ,KJ,,,,,,,,,,,,,,,,,,,,,,,,,,,,,,,,4,1.843,,,,,,,,,,,,,,0,40,40,25,1,,,,,,,,,,,,,,,,,,,,space,0.15,,,,,,,,,,,,,,,,,,,,,,,,,,,,,,,,,,,,,,,,,,,,,,,,,,,,,,,,,,,,
,,,,575325,001,2023-09-28_17h34.36.044,fluency,2022.2.5,MacIntel,58.82352941,,,,,,,,,,,,,,,,,,,,,,,3,2,img/B02_03.jpg,MF,Press J if the face is FEMALE and K if the face is MALE, ,KJ,,,,,,,,,,,,,,,,,,,,,,,,,,,,,,,,,,,,,,,,,,,,,,371.957,0,41,41,14,1,109,0,0,0,0,1,98,,,,,,,,,,,,,,,,,,,,,,,,,,,,,,,,,,,,,,,,,,,,,,,,,,,,,,,,,,,,,,,,,,,,,,,,,,
,,,,575325,001,2023-09-28_17h34.36.044,fluency,2022.2.5,MacIntel,58.82352941,,,,,,,,,,,,,,,,,,,,,,,,,,,,,,,,,,,,,,,,,,,,,,,,,,,,,,,,,,,,,,,,,,,,,,,,,,,,,,,,,,0,0,0,0,1,,"[""k""]",1,"[""k""]",,,,,,,,[0.5620000000000118],[0.5620000000000118],,,,,,,,,,,,,,,,,,,,,,,,,,,,,,,,,,,,,,,,,,,,,,,,,,,,,,,,,,,,,,
,,,,575325,001,2023-09-28_17h34.36.044,fluency,2022.2.5,MacIntel,58.82352941,,,,,,,,,,,,,,,,,,,,,,,3,2,img/B02_03.jpg,MF,Press J if the face is FEMALE and K if the face is MALE, ,KJ,,,,,,,,,,,,,,,,,,,,,,,,,,,,,,,,2,0.929,,,,,,,,,,,,,,0,41,41,14,1,,,,,,,,,,,,,,,,,,,,space,0.321,,,,,,,,,,,,,,,,,,,,,,,,,,,,,,,,,,,,,,,,,,,,,,,,,,,,,,,,,,,,
,,,,575325,001,2023-09-28_17h34.36.044,fluency,2022.2.5,MacIntel,58.82352941,,,,,,,,,,,,,,,,,,,,,,,8,5,img/B05_08.jpg,MF,Press J if the face is FEMALE and K if the face is MALE, ,KJ,,,,,,,,,,,,,,,,,,,,,,,,,,,,,,,,,,,,,,,,,,,,,,377.273,0,42,42,52,1,109,0,0,0,0,1,98,,,,,,,,,,,,,,,,,,,,,,,,,,,,,,,,,,,,,,,,,,,,,,,,,,,,,,,,,,,,,,,,,,,,,,,,,,
,,,,575325,001,2023-09-28_17h34.36.044,fluency,2022.2.5,MacIntel,58.82352941,,,,,,,,,,,,,,,,,,,,,,,,,,,,,,,,,,,,,,,,,,,,,,,,,,,,,,,,,,,,,,,,,,,,,,,,,,,,,,,,,,0,0,0,0,1,,"[""j""]",1,"[""j""]",,,,,,,,[0.6269999999999527],[0.6269999999999527],,,,,,,,,,,,,,,,,,,,,,,,,,,,,,,,,,,,,,,,,,,,,,,,,,,,,,,,,,,,,,
,,,,575325,001,2023-09-28_17h34.36.044,fluency,2022.2.5,MacIntel,58.82352941,,,,,,,,,,,,,,,,,,,,,,,8,5,img/B05_08.jpg,MF,Press J if the face is FEMALE and K if the face is MALE, ,KJ,,,,,,,,,,,,,,,,,,,,,,,,,,,,,,,,4,0.566,,,,,,,,,,,,,,0,42,42,52,1,,,,,,,,,,,,,,,,,,,,space,0.238,,,,,,,,,,,,,,,,,,,,,,,,,,,,,,,,,,,,,,,,,,,,,,,,,,,,,,,,,,,,
,,,,575325,001,2023-09-28_17h34.36.044,fluency,2022.2.5,MacIntel,58.82352941,,,,,,,,,,,,,,,,,,,,,,,2,3,img/B03_02.jpg,MF,Press J if the face is FEMALE and K if the face is MALE, ,KJ,,,,,,,,,,,,,,,,,,,,,,,,,,,,,,,,,,,,,,,,,,,,,,383.14,0,43,43,24,1,109,0,0,0,0,1,98,,,,,,,,,,,,,,,,,,,,,,,,,,,,,,,,,,,,,,,,,,,,,,,,,,,,,,,,,,,,,,,,,,,,,,,,,,
,,,,575325,001,2023-09-28_17h34.36.044,fluency,2022.2.5,MacIntel,58.82352941,,,,,,,,,,,,,,,,,,,,,,,,,,,,,,,,,,,,,,,,,,,,,,,,,,,,,,,,,,,,,,,,,,,,,,,,,,,,,,,,,,0,0,0,0,1,,"[""k""]",1,"[""k""]",,,,,,,,[0.58299999999997],[0.58299999999997],,,,,,,,,,,,,,,,,,,,,,,,,,,,,,,,,,,,,,,,,,,,,,,,,,,,,,,,,,,,,,
,,,,575325,001,2023-09-28_17h34.36.044,fluency,2022.2.5,MacIntel,58.82352941,,,,,,,,,,,,,,,,,,,,,,,2,3,img/B03_02.jpg,MF,Press J if the face is FEMALE and K if the face is MALE, ,KJ,,,,,,,,,,,,,,,,,,,,,,,,,,,,,,,,7,0.475,,,,,,,,,,,,,,0,43,43,24,1,,,,,,,,,,,,,,,,,,,,space,0.25,,,,,,,,,,,,,,,,,,,,,,,,,,,,,,,,,,,,,,,,,,,,,,,,,,,,,,,,,,,,
,,,,575325,001,2023-09-28_17h34.36.044,fluency,2022.2.5,MacIntel,58.82352941,,,,,,,,,,,,,,,,,,,,,,,10,4,img/B04_10.jpg,MF,Press J if the face is FEMALE and K if the face is MALE, ,KJ,,,,,,,,,,,,,,,,,,,,,,,,,,,,,,,,,,,,,,,,,,,,,,388.94,0,44,44,43,1,109,0,0,0,0,1,98,,,,,,,,,,,,,,,,,,,,,,,,,,,,,,,,,,,,,,,,,,,,,,,,,,,,,,,,,,,,,,,,,,,,,,,,,,
,,,,575325,001,2023-09-28_17h34.36.044,fluency,2022.2.5,MacIntel,58.82352941,,,,,,,,,,,,,,,,,,,,,,,,,,,,,,,,,,,,,,,,,,,,,,,,,,,,,,,,,,,,,,,,,,,,,,,,,,,,,,,,,,0,0,0,0,1,,"[""j""]",1,"[""j""]",,,,,,,,[0.7250000000000227],[0.7250000000000227],,,,,,,,,,,,,,,,,,,,,,,,,,,,,,,,,,,,,,,,,,,,,,,,,,,,,,,,,,,,,,
,,,,575325,001,2023-09-28_17h34.36.044,fluency,2022.2.5,MacIntel,58.82352941,,,,,,,,,,,,,,,,,,,,,,,10,4,img/B04_10.jpg,MF,Press J if the face is FEMALE and K if the face is MALE, ,KJ,,,,,,,,,,,,,,,,,,,,,,,,,,,,,,,,3,0.4,,,,,,,,,,,,,,0,44,44,43,1,,,,,,,,,,,,,,,,,,,,space,0.203,,,,,,,,,,,,,,,,,,,,,,,,,,,,,,,,,,,,,,,,,,,,,,,,,,,,,,,,,,,,
,,,,575325,001,2023-09-28_17h34.36.044,fluency,2022.2.5,MacIntel,58.82352941,,,,,,,,,,,,,,,,,,,,,,,8,10,img/B10_08.jpg,MF,Press J if the face is FEMALE and K if the face is MALE, ,KJ,,,,,,,,,,,,,,,,,,,,,,,,,,,,,,,,,,,,,,,,,,,,,,393.607,0,45,45,107,1,109,0,0,0,0,1,98,,,,,,,,,,,,,,,,,,,,,,,,,,,,,,,,,,,,,,,,,,,,,,,,,,,,,,,,,,,,,,,,,,,,,,,,,,
,,,,575325,001,2023-09-28_17h34.36.044,fluency,2022.2.5,MacIntel,58.82352941,,,,,,,,,,,,,,,,,,,,,,,,,,,,,,,,,,,,,,,,,,,,,,,,,,,,,,,,,,,,,,,,,,,,,,,,,,,,,,,,,,0,0,0,0,1,,"[""j""]",1,"[""j""]",,,,,,,,[0.5849999999999795],[0.5849999999999795],,,,,,,,,,,,,,,,,,,,,,,,,,,,,,,,,,,,,,,,,,,,,,,,,,,,,,,,,,,,,,
,,,,575325,001,2023-09-28_17h34.36.044,fluency,2022.2.5,MacIntel,58.82352941,,,,,,,,,,,,,,,,,,,,,,,8,10,img/B10_08.jpg,MF,Press J if the face is FEMALE and K if the face is MALE, ,KJ,,,,,,,,,,,,,,,,,,,,,,,,,,,,,,,,4,0.4,,,,,,,,,,,,,,0,45,45,107,1,,,,,,,,,,,,,,,,,,,,space,0.404,,,,,,,,,,,,,,,,,,,,,,,,,,,,,,,,,,,,,,,,,,,,,,,,,,,,,,,,,,,,
,,,,575325,001,2023-09-28_17h34.36.044,fluency,2022.2.5,MacIntel,58.82352941,,,,,,,,,,,,,,,,,,,,,,,10,1,img/B01_10.jpg,MF,Press J if the face is FEMALE and K if the face is MALE, ,KJ,,,,,,,,,,,,,,,,,,,,,,,,,,,,,,,,,,,,,,,,,,,,,,398.473,0,46,46,10,1,109,0,0,0,0,1,98,,,,,,,,,,,,,,,,,,,,,,,,,,,,,,,,,,,,,,,,,,,,,,,,,,,,,,,,,,,,,,,,,,,,,,,,,,
,,,,575325,001,2023-09-28_17h34.36.044,fluency,2022.2.5,MacIntel,58.82352941,,,,,,,,,,,,,,,,,,,,,,,,,,,,,,,,,,,,,,,,,,,,,,,,,,,,,,,,,,,,,,,,,,,,,,,,,,,,,,,,,,0,0,0,0,1,,"[""j""]",1,"[""j""]",,,,,,,,[0.6080000000000041],[0.6080000000000041],,,,,,,,,,,,,,,,,,,,,,,,,,,,,,,,,,,,,,,,,,,,,,,,,,,,,,,,,,,,,,
,,,,575325,001,2023-09-28_17h34.36.044,fluency,2022.2.5,MacIntel,58.82352941,,,,,,,,,,,,,,,,,,,,,,,10,1,img/B01_10.jpg,MF,Press J if the face is FEMALE and K if the face is MALE, ,KJ,,,,,,,,,,,,,,,,,,,,,,,,,,,,,,,,3,0.328,,,,,,,,,,,,,,0,46,46,10,1,,,,,,,,,,,,,,,,,,,,space,0.237,,,,,,,,,,,,,,,,,,,,,,,,,,,,,,,,,,,,,,,,,,,,,,,,,,,,,,,,,,,,
,,,,575325,001,2023-09-28_17h34.36.044,fluency,2022.2.5,MacIntel,58.82352941,,,,,,,,,,,,,,,,,,,,,,,1,5,img/B05_01.jpg,MF,Press J if the face is FEMALE and K if the face is MALE, ,KJ,,,,,,,,,,,,,,,,,,,,,,,,,,,,,,,,,,,,,,,,,,,,,,404.107,0,47,47,45,1,109,0,0,0,0,1,98,,,,,,,,,,,,,,,,,,,,,,,,,,,,,,,,,,,,,,,,,,,,,,,,,,,,,,,,,,,,,,,,,,,,,,,,,,
,,,,575325,001,2023-09-28_17h34.36.044,fluency,2022.2.5,MacIntel,58.82352941,,,,,,,,,,,,,,,,,,,,,,,,,,,,,,,,,,,,,,,,,,,,,,,,,,,,,,,,,,,,,,,,,,,,,,,,,,,,,,,,,,0,0,0,0,1,,"[""k""]",1,"[""k""]",,,,,,,,[0.66700000000003],[0.66700000000003],,,,,,,,,,,,,,,,,,,,,,,,,,,,,,,,,,,,,,,,,,,,,,,,,,,,,,,,,,,,,,
,,,,575325,001,2023-09-28_17h34.36.044,fluency,2022.2.5,MacIntel,58.82352941,,,,,,,,,,,,,,,,,,,,,,,1,5,img/B05_01.jpg,MF,Press J if the face is FEMALE and K if the face is MALE, ,KJ,,,,,,,,,,,,,,,,,,,,,,,,,,,,,,,,2,0.398,,,,,,,,,,,,,,0,47,47,45,1,,,,,,,,,,,,,,,,,,,,space,0.288,,,,,,,,,,,,,,,,,,,,,,,,,,,,,,,,,,,,,,,,,,,,,,,,,,,,,,,,,,,,
,,,,575325,001,2023-09-28_17h34.36.044,fluency,2022.2.5,MacIntel,58.82352941,,,,,,,,,,,,,,,,,,,,,,,3,8,img/B08_03.jpg,MF,Press J if the face is FEMALE and K if the face is MALE, ,KJ,,,,,,,,,,,,,,,,,,,,,,,,,,,,,,,,,,,,,,,,,,,,,,408.857,0,48,48,80,1,109,0,0,0,0,1,98,,,,,,,,,,,,,,,,,,,,,,,,,,,,,,,,,,,,,,,,,,,,,,,,,,,,,,,,,,,,,,,,,,,,,,,,,,
,,,,575325,001,2023-09-28_17h34.36.044,fluency,2022.2.5,MacIntel,58.82352941,,,,,,,,,,,,,,,,,,,,,,,,,,,,,,,,,,,,,,,,,,,,,,,,,,,,,,,,,,,,,,,,,,,,,,,,,,,,,,,,,,0,0,0,0,1,,"[""j""]",1,"[""j""]",,,,,,,,[0.6479999999999677],[0.6479999999999677],,,,,,,,,,,,,,,,,,,,,,,,,,,,,,,,,,,,,,,,,,,,,,,,,,,,,,,,,,,,,,
,,,,575325,001,2023-09-28_17h34.36.044,fluency,2022.2.5,MacIntel,58.82352941,,,,,,,,,,,,,,,,,,,,,,,3,8,img/B08_03.jpg,MF,Press J if the face is FEMALE and K if the face is MALE, ,KJ,,,,,,,,,,,,,,,,,,,,,,,,,,,,,,,,4,1.009,,,,,,,,,,,,,,0,48,48,80,1,,,,,,,,,,,,,,,,,,,,space,0.183,,,,,,,,,,,,,,,,,,,,,,,,,,,,,,,,,,,,,,,,,,,,,,,,,,,,,,,,,,,,
,,,,575325,001,2023-09-28_17h34.36.044,fluency,2022.2.5,MacIntel,58.82352941,,,,,,,,,,,,,,,,,,,,,,,4,8,img/B08_04.jpg,MF,Press J if the face is FEMALE and K if the face is MALE, ,KJ,,,,,,,,,,,,,,,,,,,,,,,,,,,,,,,,,,,,,,,,,,,,,,415.123,0,49,49,81,1,109,0,0,0,0,1,98,,,,,,,,,,,,,,,,,,,,,,,,,,,,,,,,,,,,,,,,,,,,,,,,,,,,,,,,,,,,,,,,,,,,,,,,,,
,,,,575325,001,2023-09-28_17h34.36.044,fluency,2022.2.5,MacIntel,58.82352941,,,,,,,,,,,,,,,,,,,,,,,,,,,,,,,,,,,,,,,,,,,,,,,,,,,,,,,,,,,,,,,,,,,,,,,,,,,,,,,,,,0,0,0,0,1,,"[""j""]",1,"[""j""]",,,,,,,,[0.5319999999999823],[0.5319999999999823],,,,,,,,,,,,,,,,,,,,,,,,,,,,,,,,,,,,,,,,,,,,,,,,,,,,,,,,,,,,,,
,,,,575325,001,2023-09-28_17h34.36.044,fluency,2022.2.5,MacIntel,58.82352941,,,,,,,,,,,,,,,,,,,,,,,4,8,img/B08_04.jpg,MF,Press J if the face is FEMALE and K if the face is MALE, ,KJ,,,,,,,,,,,,,,,,,,,,,,,,,,,,,,,,4,0.348,,,,,,,,,,,,,,0,49,49,81,1,,,,,,,,,,,,,,,,,,,,space,0.239,,,,,,,,,,,,,,,,,,,,,,,,,,,,,,,,,,,,,,,,,,,,,,,,,,,,,,,,,,,,
,,,,575325,001,2023-09-28_17h34.36.044,fluency,2022.2.5,MacIntel,58.82352941,,,,,,,,,,,,,,,,,,,,,,,10,10,img/B10_10.jpg,MF,Press J if the face is FEMALE and K if the face is MALE, ,KJ,,,,,,,,,,,,,,,,,,,,,,,,,,,,,,,,,,,,,,,,,,,,,,419.773,0,50,50,109,1,109,0,0,0,0,1,98,,,,,,,,,,,,,,,,,,,,,,,,,,,,,,,,,,,,,,,,,,,,,,,,,,,,,,,,,,,,,,,,,,,,,,,,,,
,,,,575325,001,2023-09-28_17h34.36.044,fluency,2022.2.5,MacIntel,58.82352941,,,,,,,,,,,,,,,,,,,,,,,,,,,,,,,,,,,,,,,,,,,,,,,,,,,,,,,,,,,,,,,,,,,,,,,,,,,,,,,,,,0,0,0,0,1,,"[""j""]",1,"[""j""]",,,,,,,,[0.6019999999999754],[0.6019999999999754],,,,,,,,,,,,,,,,,,,,,,,,,,,,,,,,,,,,,,,,,,,,,,,,,,,,,,,,,,,,,,
,,,,575325,001,2023-09-28_17h34.36.044,fluency,2022.2.5,MacIntel,58.82352941,,,,,,,,,,,,,,,,,,,,,,,10,10,img/B10_10.jpg,MF,Press J if the face is FEMALE and K if the face is MALE, ,KJ,,,,,,,,,,,,,,,,,,,,,,,,,,,,,,,,2,0.396,,,,,,,,,,,,,,0,50,50,109,1,,,,,,,,,,,,,,,,,,,,space,0.245,,,,,,,,,,,,,,,,,,,,,,,,,,,,,,,,,,,,,,,,,,,,,,,,,,,,,,,,,,,,
,,,,575325,001,2023-09-28_17h34.36.044,fluency,2022.2.5,MacIntel,58.82352941,,,,,,,,,,,,,,,,,,,,,,,1,4,img/B04_01.jpg,MF,Press J if the face is FEMALE and K if the face is MALE, ,KJ,,,,,,,,,,,,,,,,,,,,,,,,,,,,,,,,,,,,,,,,,,,,,,425.456,0,51,51,34,1,109,0,0,0,0,1,98,,,,,,,,,,,,,,,,,,,,,,,,,,,,,,,,,,,,,,,,,,,,,,,,,,,,,,,,,,,,,,,,,,,,,,,,,,
,,,,575325,001,2023-09-28_17h34.36.044,fluency,2022.2.5,MacIntel,58.82352941,,,,,,,,,,,,,,,,,,,,,,,,,,,,,,,,,,,,,,,,,,,,,,,,,,,,,,,,,,,,,,,,,,,,,,,,,,,,,,,,,,0,0,0,0,1,,"[""k""]",1,"[""k""]",,,,,,,,[0.6310000000000286],[0.6310000000000286],,,,,,,,,,,,,,,,,,,,,,,,,,,,,,,,,,,,,,,,,,,,,,,,,,,,,,,,,,,,,,
,,,,575325,001,2023-09-28_17h34.36.044,fluency,2022.2.5,MacIntel,58.82352941,,,,,,,,,,,,,,,,,,,,,,,1,4,img/B04_01.jpg,MF,Press J if the face is FEMALE and K if the face is MALE, ,KJ,,,,,,,,,,,,,,,,,,,,,,,,,,,,,,,,3,0.333,,,,,,,,,,,,,,0,51,51,34,1,,,,,,,,,,,,,,,,,,,,space,0.234,,,,,,,,,,,,,,,,,,,,,,,,,,,,,,,,,,,,,,,,,,,,,,,,,,,,,,,,,,,,
,,,,575325,001,2023-09-28_17h34.36.044,fluency,2022.2.5,MacIntel,58.82352941,,,,,,,,,,,,,,,,,,,,,,,2,10,img/B10_02.jpg,MF,Press J if the face is FEMALE and K if the face is MALE, ,KJ,,,,,,,,,,,,,,,,,,,,,,,,,,,,,,,,,,,,,,,,,,,,,,431.09,0,52,52,101,1,109,0,0,0,0,1,98,,,,,,,,,,,,,,,,,,,,,,,,,,,,,,,,,,,,,,,,,,,,,,,,,,,,,,,,,,,,,,,,,,,,,,,,,,
,,,,575325,001,2023-09-28_17h34.36.044,fluency,2022.2.5,MacIntel,58.82352941,,,,,,,,,,,,,,,,,,,,,,,,,,,,,,,,,,,,,,,,,,,,,,,,,,,,,,,,,,,,,,,,,,,,,,,,,,,,,,,,,,0,0,0,0,1,,"[""k""]",1,"[""k""]",,,,,,,,[0.5260000000000105],[0.5260000000000105],,,,,,,,,,,,,,,,,,,,,,,,,,,,,,,,,,,,,,,,,,,,,,,,,,,,,,,,,,,,,,
,,,,575325,001,2023-09-28_17h34.36.044,fluency,2022.2.5,MacIntel,58.82352941,,,,,,,,,,,,,,,,,,,,,,,2,10,img/B10_02.jpg,MF,Press J if the face is FEMALE and K if the face is MALE, ,KJ,,,,,,,,,,,,,,,,,,,,,,,,,,,,,,,,7,0.31,,,,,,,,,,,,,,0,52,52,101,1,,,,,,,,,,,,,,,,,,,,space,0.27,,,,,,,,,,,,,,,,,,,,,,,,,,,,,,,,,,,,,,,,,,,,,,,,,,,,,,,,,,,,
,,,,575325,001,2023-09-28_17h34.36.044,fluency,2022.2.5,MacIntel,58.82352941,,,,,,,,,,,,,,,,,,,,,,,6,7,img/B07_06.jpg,MF,Press J if the face is FEMALE and K if the face is MALE, ,KJ,,,,,,,,,,,,,,,,,,,,,,,,,,,,,,,,,,,,,,,,,,,,,,436.74,0,53,53,72,1,109,0,0,0,0,1,98,,,,,,,,,,,,,,,,,,,,,,,,,,,,,,,,,,,,,,,,,,,,,,,,,,,,,,,,,,,,,,,,,,,,,,,,,,
,,,,575325,001,2023-09-28_17h34.36.044,fluency,2022.2.5,MacIntel,58.82352941,,,,,,,,,,,,,,,,,,,,,,,,,,,,,,,,,,,,,,,,,,,,,,,,,,,,,,,,,,,,,,,,,,,,,,,,,,,,,,,,,,0,0,0,0,1,,"[""j""]",1,"[""j""]",,,,,,,,[0.9269999999999641],[0.9269999999999641],,,,,,,,,,,,,,,,,,,,,,,,,,,,,,,,,,,,,,,,,,,,,,,,,,,,,,,,,,,,,,
,,,,575325,001,2023-09-28_17h34.36.044,fluency,2022.2.5,MacIntel,58.82352941,,,,,,,,,,,,,,,,,,,,,,,6,7,img/B07_06.jpg,MF,Press J if the face is FEMALE and K if the face is MALE, ,KJ,,,,,,,,,,,,,,,,,,,,,,,,,,,,,,,,6,0.282,,,,,,,,,,,,,,0,53,53,72,1,,,,,,,,,,,,,,,,,,,,space,0.268,,,,,,,,,,,,,,,,,,,,,,,,,,,,,,,,,,,,,,,,,,,,,,,,,,,,,,,,,,,,
,,,,575325,001,2023-09-28_17h34.36.044,fluency,2022.2.5,MacIntel,58.82352941,,,,,,,,,,,,,,,,,,,,,,,8,1,img/B01_08.jpg,MF,Press J if the face is FEMALE and K if the face is MALE, ,KJ,,,,,,,,,,,,,,,,,,,,,,,,,,,,,,,,,,,,,,,,,,,,,,442.356,0,54,54,8,1,109,0,0,0,0,1,98,,,,,,,,,,,,,,,,,,,,,,,,,,,,,,,,,,,,,,,,,,,,,,,,,,,,,,,,,,,,,,,,,,,,,,,,,,
,,,,575325,001,2023-09-28_17h34.36.044,fluency,2022.2.5,MacIntel,58.82352941,,,,,,,,,,,,,,,,,,,,,,,,,,,,,,,,,,,,,,,,,,,,,,,,,,,,,,,,,,,,,,,,,,,,,,,,,,,,,,,,,,0,0,0,0,1,,"[""j""]",1,"[""j""]",,,,,,,,[0.625],[0.625],,,,,,,,,,,,,,,,,,,,,,,,,,,,,,,,,,,,,,,,,,,,,,,,,,,,,,,,,,,,,,
,,,,575325,001,2023-09-28_17h34.36.044,fluency,2022.2.5,MacIntel,58.82352941,,,,,,,,,,,,,,,,,,,,,,,8,1,img/B01_08.jpg,MF,Press J if the face is FEMALE and K if the face is MALE, ,KJ,,,,,,,,,,,,,,,,,,,,,,,,,,,,,,,,3,0.311,,,,,,,,,,,,,,0,54,54,8,1,,,,,,,,,,,,,,,,,,,,space,0.244,,,,,,,,,,,,,,,,,,,,,,,,,,,,,,,,,,,,,,,,,,,,,,,,,,,,,,,,,,,,
,,,,575325,001,2023-09-28_17h34.36.044,fluency,2022.2.5,MacIntel,58.82352941,,,,,,,,,,,,,,,,,,,,,,,6,4,img/B04_06.jpg,MF,Press J if the face is FEMALE and K if the face is MALE, ,KJ,,,,,,,,,,,,,,,,,,,,,,,,,,,,,,,,,,,,,,,,,,,,,,446.973,0,55,55,39,1,109,0,0,0,0,1,98,,,,,,,,,,,,,,,,,,,,,,,,,,,,,,,,,,,,,,,,,,,,,,,,,,,,,,,,,,,,,,,,,,,,,,,,,,
,,,,575325,001,2023-09-28_17h34.36.044,fluency,2022.2.5,MacIntel,58.82352941,,,,,,,,,,,,,,,,,,,,,,,,,,,,,,,,,,,,,,,,,,,,,,,,,,,,,,,,,,,,,,,,,,,,,,,,,,,,,,,,,,0,0,0,0,1,,"[""j""]",1,"[""j""]",,,,,,,,[0.5760000000000218],[0.5760000000000218],,,,,,,,,,,,,,,,,,,,,,,,,,,,,,,,,,,,,,,,,,,,,,,,,,,,,,,,,,,,,,
,,,,575325,001,2023-09-28_17h34.36.044,fluency,2022.2.5,MacIntel,58.82352941,,,,,,,,,,,,,,,,,,,,,,,6,4,img/B04_06.jpg,MF,Press J if the face is FEMALE and K if the face is MALE, ,KJ,,,,,,,,,,,,,,,,,,,,,,,,,,,,,,,,3,0.286,,,,,,,,,,,,,,0,55,55,39,1,,,,,,,,,,,,,,,,,,,,space,0.535,,,,,,,,,,,,,,,,,,,,,,,,,,,,,,,,,,,,,,,,,,,,,,,,,,,,,,,,,,,,
,,,,575325,001,2023-09-28_17h34.36.044,fluency,2022.2.5,MacIntel,58.82352941,,,,,,,,,,,,,,,,,,,,,,,6,2,img/B02_06.jpg,MF,Press J if the face is FEMALE and K if the face is MALE, ,KJ,,,,,,,,,,,,,,,,,,,,,,,,,,,,,,,,,,,,,,,,,,,,,,451.856,0,56,56,17,1,109,0,0,0,0,1,98,,,,,,,,,,,,,,,,,,,,,,,,,,,,,,,,,,,,,,,,,,,,,,,,,,,,,,,,,,,,,,,,,,,,,,,,,,
,,,,575325,001,2023-09-28_17h34.36.044,fluency,2022.2.5,MacIntel,58.82352941,,,,,,,,,,,,,,,,,,,,,,,,,,,,,,,,,,,,,,,,,,,,,,,,,,,,,,,,,,,,,,,,,,,,,,,,,,,,,,,,,,0,0,0,0,1,,"[""j""]",1,"[""j""]",,,,,,,,[0.6759999999999877],[0.6759999999999877],,,,,,,,,,,,,,,,,,,,,,,,,,,,,,,,,,,,,,,,,,,,,,,,,,,,,,,,,,,,,,
,,,,575325,001,2023-09-28_17h34.36.044,fluency,2022.2.5,MacIntel,58.82352941,,,,,,,,,,,,,,,,,,,,,,,6,2,img/B02_06.jpg,MF,Press J if the face is FEMALE and K if the face is MALE, ,KJ,,,,,,,,,,,,,,,,,,,,,,,,,,,,,,,,2,0.228,,,,,,,,,,,,,,0,56,56,17,1,,,,,,,,,,,,,,,,,,,,space,0.242,,,,,,,,,,,,,,,,,,,,,,,,,,,,,,,,,,,,,,,,,,,,,,,,,,,,,,,,,,,,
,,,,575325,001,2023-09-28_17h34.36.044,fluency,2022.2.5,MacIntel,58.82352941,,,,,,,,,,,,,,,,,,,,,,,5,7,img/B07_05.jpg,MF,Press J if the face is FEMALE and K if the face is MALE, ,KJ,,,,,,,,,,,,,,,,,,,,,,,,,,,,,,,,,,,,,,,,,,,,,,456.39,0,57,57,71,1,109,0,0,0,0,1,98,,,,,,,,,,,,,,,,,,,,,,,,,,,,,,,,,,,,,,,,,,,,,,,,,,,,,,,,,,,,,,,,,,,,,,,,,,
,,,,575325,001,2023-09-28_17h34.36.044,fluency,2022.2.5,MacIntel,58.82352941,,,,,,,,,,,,,,,,,,,,,,,,,,,,,,,,,,,,,,,,,,,,,,,,,,,,,,,,,,,,,,,,,,,,,,,,,,,,,,,,,,0,0,0,0,1,,"[""j""]",1,"[""j""]",,,,,,,,[0.58299999999997],[0.58299999999997],,,,,,,,,,,,,,,,,,,,,,,,,,,,,,,,,,,,,,,,,,,,,,,,,,,,,,,,,,,,,,
,,,,575325,001,2023-09-28_17h34.36.044,fluency,2022.2.5,MacIntel,58.82352941,,,,,,,,,,,,,,,,,,,,,,,5,7,img/B07_05.jpg,MF,Press J if the face is FEMALE and K if the face is MALE, ,KJ,,,,,,,,,,,,,,,,,,,,,,,,,,,,,,,,3,0.296,,,,,,,,,,,,,,0,57,57,71,1,,,,,,,,,,,,,,,,,,,,space,0.233,,,,,,,,,,,,,,,,,,,,,,,,,,,,,,,,,,,,,,,,,,,,,,,,,,,,,,,,,,,,
,,,,575325,001,2023-09-28_17h34.36.044,fluency,2022.2.5,MacIntel,58.82352941,,,,,,,,,,,,,,,,,,,,,,,8,8,img/B08_08.jpg,MF,Press J if the face is FEMALE and K if the face is MALE, ,KJ,,,,,,,,,,,,,,,,,,,,,,,,,,,,,,,,,,,,,,,,,,,,,,461.989,0,58,58,85,1,109,0,0,0,0,1,98,,,,,,,,,,,,,,,,,,,,,,,,,,,,,,,,,,,,,,,,,,,,,,,,,,,,,,,,,,,,,,,,,,,,,,,,,,
,,,,575325,001,2023-09-28_17h34.36.044,fluency,2022.2.5,MacIntel,58.82352941,,,,,,,,,,,,,,,,,,,,,,,,,,,,,,,,,,,,,,,,,,,,,,,,,,,,,,,,,,,,,,,,,,,,,,,,,,,,,,,,,,0,0,0,0,1,,"[""k""]",1,"[""k""]",,,,,,,,[0.5439999999999827],[0.5439999999999827],,,,,,,,,,,,,,,,,,,,,,,,,,,,,,,,,,,,,,,,,,,,,,,,,,,,,,,,,,,,,,
,,,,575325,001,2023-09-28_17h34.36.044,fluency,2022.2.5,MacIntel,58.82352941,,,,,,,,,,,,,,,,,,,,,,,8,8,img/B08_08.jpg,MF,Press J if the face is FEMALE and K if the face is MALE, ,KJ,,,,,,,,,,,,,,,,,,,,,,,,,,,,,,,,2,0.353,,,,,,,,,,,,,,0,58,58,85,1,,,,,,,,,,,,,,,,,,,,space,0.201,,,,,,,,,,,,,,,,,,,,,,,,,,,,,,,,,,,,,,,,,,,,,,,,,,,,,,,,,,,,
,,,,575325,001,2023-09-28_17h34.36.044,fluency,2022.2.5,MacIntel,58.82352941,,,,,,,,,,,,,,,,,,,,,,,0,9,img/B09_00.jpg,MF,Press J if the face is FEMALE and K if the face is MALE, ,KJ,,,,,,,,,,,,,,,,,,,,,,,,,,,,,,,,,,,,,,,,,,,,,,467.606,0,59,59,88,1,109,0,0,0,0,1,98,,,,,,,,,,,,,,,,,,,,,,,,,,,,,,,,,,,,,,,,,,,,,,,,,,,,,,,,,,,,,,,,,,,,,,,,,,
,,,,575325,001,2023-09-28_17h34.36.044,fluency,2022.2.5,MacIntel,58.82352941,,,,,,,,,,,,,,,,,,,,,,,,,,,,,,,,,,,,,,,,,,,,,,,,,,,,,,,,,,,,,,,,,,,,,,,,,,,,,,,,,,0,0,0,0,1,,"[""k""]",1,"[""k""]",,,,,,,,[0.5840000000000032],[0.5840000000000032],,,,,,,,,,,,,,,,,,,,,,,,,,,,,,,,,,,,,,,,,,,,,,,,,,,,,,,,,,,,,,
,,,,575325,001,2023-09-28_17h34.36.044,fluency,2022.2.5,MacIntel,58.82352941,,,,,,,,,,,,,,,,,,,,,,,0,9,img/B09_00.jpg,MF,Press J if the face is FEMALE and K if the face is MALE, ,KJ,,,,,,,,,,,,,,,,,,,,,,,,,,,,,,,,3,0.326,,,,,,,,,,,,,,0,59,59,88,1,,,,,,,,,,,,,,,,,,,,space,0.2,,,,,,,,,,,,,,,,,,,,,,,,,,,,,,,,,,,,,,,,,,,,,,,,,,,,,,,,,,,,
,,,,575325,001,2023-09-28_17h34.36.044,fluency,2022.2.5,MacIntel,58.82352941,,,,,,,,,,,,,,,,,,,,,,,4,5,img/B05_04.jpg,MF,Press J if the face is FEMALE and K if the face is MALE, ,KJ,,,,,,,,,,,,,,,,,,,,,,,,,,,,,,,,,,,,,,,,,,,,,,473.206,0,60,60,48,1,109,0,0,0,0,1,98,,,,,,,,,,,,,,,,,,,,,,,,,,,,,,,,,,,,,,,,,,,,,,,,,,,,,,,,,,,,,,,,,,,,,,,,,,
,,,,575325,001,2023-09-28_17h34.36.044,fluency,2022.2.5,MacIntel,58.82352941,,,,,,,,,,,,,,,,,,,,,,,,,,,,,,,,,,,,,,,,,,,,,,,,,,,,,,,,,,,,,,,,,,,,,,,,,,,,,,,,,,0,0,0,0,1,,"[""j""]",1,"[""j""]",,,,,,,,[0.6680000000000064],[0.6680000000000064],,,,,,,,,,,,,,,,,,,,,,,,,,,,,,,,,,,,,,,,,,,,,,,,,,,,,,,,,,,,,,
,,,,575325,001,2023-09-28_17h34.36.044,fluency,2022.2.5,MacIntel,58.82352941,,,,,,,,,,,,,,,,,,,,,,,4,5,img/B05_04.jpg,MF,Press J if the face is FEMALE and K if the face is MALE, ,KJ,,,,,,,,,,,,,,,,,,,,,,,,,,,,,,,,2,1.095,,,,,,,,,,,,,,0,60,60,48,1,,,,,,,,,,,,,,,,,,,,space,1.805,,,,,,,,,,,,,,,,,,,,,,,,,,,,,,,,,,,,,,,,,,,,,,,,,,,,,,,,,,,,
,,,,575325,001,2023-09-28_17h34.36.044,fluency,2022.2.5,MacIntel,58.82352941,,,,,,,,,,,,,,,,,,,,,,,2,1,img/B01_02.jpg,MF,Press J if the face is FEMALE and K if the face is MALE, ,KJ,,,,,,,,,,,,,,,,,,,,,,,,,,,,,,,,,,,,,,,,,,,,,,481.172,0,61,61,2,1,109,0,0,0,0,1,98,,,,,,,,,,,,,,,,,,,,,,,,,,,,,,,,,,,,,,,,,,,,,,,,,,,,,,,,,,,,,,,,,,,,,,,,,,
,,,,575325,001,2023-09-28_17h34.36.044,fluency,2022.2.5,MacIntel,58.82352941,,,,,,,,,,,,,,,,,,,,,,,,,,,,,,,,,,,,,,,,,,,,,,,,,,,,,,,,,,,,,,,,,,,,,,,,,,,,,,,,,,0,0,0,0,1,,"[""k""]",1,"[""k""]",,,,,,,,[0.5320000000000391],[0.5320000000000391],,,,,,,,,,,,,,,,,,,,,,,,,,,,,,,,,,,,,,,,,,,,,,,,,,,,,,,,,,,,,,
,,,,575325,001,2023-09-28_17h34.36.044,fluency,2022.2.5,MacIntel,58.82352941,,,,,,,,,,,,,,,,,,,,,,,2,1,img/B01_02.jpg,MF,Press J if the face is FEMALE and K if the face is MALE, ,KJ,,,,,,,,,,,,,,,,,,,,,,,,,,,,,,,,2,0.315,,,,,,,,,,,,,,0,61,61,2,1,,,,,,,,,,,,,,,,,,,,space,0.161,,,,,,,,,,,,,,,,,,,,,,,,,,,,,,,,,,,,,,,,,,,,,,,,,,,,,,,,,,,,
,,,,575325,001,2023-09-28_17h34.36.044,fluency,2022.2.5,MacIntel,58.82352941,,,,,,,,,,,,,,,,,,,,,,,2,9,img/B09_02.jpg,MF,Press J if the face is FEMALE and K if the face is MALE, ,KJ,,,,,,,,,,,,,,,,,,,,,,,,,,,,,,,,,,,,,,,,,,,,,,485.706,0,62,62,90,1,109,0,0,0,0,1,98,,,,,,,,,,,,,,,,,,,,,,,,,,,,,,,,,,,,,,,,,,,,,,,,,,,,,,,,,,,,,,,,,,,,,,,,,,
,,,,575325,001,2023-09-28_17h34.36.044,fluency,2022.2.5,MacIntel,58.82352941,,,,,,,,,,,,,,,,,,,,,,,,,,,,,,,,,,,,,,,,,,,,,,,,,,,,,,,,,,,,,,,,,,,,,,,,,,,,,,,,,,0,0,0,0,1,,"[""k""]",1,"[""k""]",,,,,,,,[0.5790000000000077],[0.5790000000000077],,,,,,,,,,,,,,,,,,,,,,,,,,,,,,,,,,,,,,,,,,,,,,,,,,,,,,,,,,,,,,
,,,,575325,001,2023-09-28_17h34.36.044,fluency,2022.2.5,MacIntel,58.82352941,,,,,,,,,,,,,,,,,,,,,,,2,9,img/B09_02.jpg,MF,Press J if the face is FEMALE and K if the face is MALE, ,KJ,,,,,,,,,,,,,,,,,,,,,,,,,,,,,,,,3,0.243,,,,,,,,,,,,,,0,62,62,90,1,,,,,,,,,,,,,,,,,,,,space,0.244,,,,,,,,,,,,,,,,,,,,,,,,,,,,,,,,,,,,,,,,,,,,,,,,,,,,,,,,,,,,
,,,,575325,001,2023-09-28_17h34.36.044,fluency,2022.2.5,MacIntel,58.82352941,,,,,,,,,,,,,,,,,,,,,,,5,5,img/B05_05.jpg,MF,Press J if the face is FEMALE and K if the face is MALE, ,KJ,,,,,,,,,,,,,,,,,,,,,,,,,,,,,,,,,,,,,,,,,,,,,,490.257,0,63,63,49,1,109,0,0,0,0,1,98,,,,,,,,,,,,,,,,,,,,,,,,,,,,,,,,,,,,,,,,,,,,,,,,,,,,,,,,,,,,,,,,,,,,,,,,,,
,,,,575325,001,2023-09-28_17h34.36.044,fluency,2022.2.5,MacIntel,58.82352941,,,,,,,,,,,,,,,,,,,,,,,,,,,,,,,,,,,,,,,,,,,,,,,,,,,,,,,,,,,,,,,,,,,,,,,,,,,,,,,,,,0,0,0,0,1,,"[""j""]",1,"[""j""]",,,,,,,,[0.632000000000005],[0.6329999999999814],,,,,,,,,,,,,,,,,,,,,,,,,,,,,,,,,,,,,,,,,,,,,,,,,,,,,,,,,,,,,,
,,,,575325,001,2023-09-28_17h34.36.044,fluency,2022.2.5,MacIntel,58.82352941,,,,,,,,,,,,,,,,,,,,,,,5,5,img/B05_05.jpg,MF,Press J if the face is FEMALE and K if the face is MALE, ,KJ,,,,,,,,,,,,,,,,,,,,,,,,,,,,,,,,2,0.361,,,,,,,,,,,,,,0,63,63,49,1,,,,,,,,,,,,,,,,,,,,space,0.35,,,,,,,,,,,,,,,,,,,,,,,,,,,,,,,,,,,,,,,,,,,,,,,,,,,,,,,,,,,,
,,,,575325,001,2023-09-28_17h34.36.044,fluency,2022.2.5,MacIntel,58.82352941,,,,,,,,,,,,,,,,,,,,,,,0,6,img/B06_00.jpg,MF,Press J if the face is FEMALE and K if the face is MALE, ,KJ,,,,,,,,,,,,,,,,,,,,,,,,,,,,,,,,,,,,,,,,,,,,,,496.039,0,64,64,55,1,109,0,0,0,0,1,98,,,,,,,,,,,,,,,,,,,,,,,,,,,,,,,,,,,,,,,,,,,,,,,,,,,,,,,,,,,,,,,,,,,,,,,,,,
,,,,575325,001,2023-09-28_17h34.36.044,fluency,2022.2.5,MacIntel,58.82352941,,,,,,,,,,,,,,,,,,,,,,,,,,,,,,,,,,,,,,,,,,,,,,,,,,,,,,,,,,,,,,,,,,,,,,,,,,,,,,,,,,0,0,0,0,1,,"[""k""]",1,"[""k""]",,,,,,,,[0.7010000000000218],[0.7010000000000218],,,,,,,,,,,,,,,,,,,,,,,,,,,,,,,,,,,,,,,,,,,,,,,,,,,,,,,,,,,,,,
,,,,575325,001,2023-09-28_17h34.36.044,fluency,2022.2.5,MacIntel,58.82352941,,,,,,,,,,,,,,,,,,,,,,,0,6,img/B06_00.jpg,MF,Press J if the face is FEMALE and K if the face is MALE, ,KJ,,,,,,,,,,,,,,,,,,,,,,,,,,,,,,,,3,0.294,,,,,,,,,,,,,,0,64,64,55,1,,,,,,,,,,,,,,,,,,,,space,0.185,,,,,,,,,,,,,,,,,,,,,,,,,,,,,,,,,,,,,,,,,,,,,,,,,,,,,,,,,,,,
,,,,575325,001,2023-09-28_17h34.36.044,fluency,2022.2.5,MacIntel,58.82352941,,,,,,,,,,,,,,,,,,,,,,,1,9,img/B09_01.jpg,MF,Press J if the face is FEMALE and K if the face is MALE, ,KJ,,,,,,,,,,,,,,,,,,,,,,,,,,,,,,,,,,,,,,,,,,,,,,501.589,0,65,65,89,1,109,0,0,0,0,1,98,,,,,,,,,,,,,,,,,,,,,,,,,,,,,,,,,,,,,,,,,,,,,,,,,,,,,,,,,,,,,,,,,,,,,,,,,,
,,,,575325,001,2023-09-28_17h34.36.044,fluency,2022.2.5,MacIntel,58.82352941,,,,,,,,,,,,,,,,,,,,,,,,,,,,,,,,,,,,,,,,,,,,,,,,,,,,,,,,,,,,,,,,,,,,,,,,,,,,,,,,,,0,0,0,0,1,,"[""k""]",1,"[""k""]",,,,,,,,[0.9839999999999804],[0.9839999999999804],,,,,,,,,,,,,,,,,,,,,,,,,,,,,,,,,,,,,,,,,,,,,,,,,,,,,,,,,,,,,,
,,,,575325,001,2023-09-28_17h34.36.044,fluency,2022.2.5,MacIntel,58.82352941,,,,,,,,,,,,,,,,,,,,,,,1,9,img/B09_01.jpg,MF,Press J if the face is FEMALE and K if the face is MALE, ,KJ,,,,,,,,,,,,,,,,,,,,,,,,,,,,,,,,3,0.267,,,,,,,,,,,,,,0,65,65,89,1,,,,,,,,,,,,,,,,,,,,space,0.24,,,,,,,,,,,,,,,,,,,,,,,,,,,,,,,,,,,,,,,,,,,,,,,,,,,,,,,,,,,,
,,,,575325,001,2023-09-28_17h34.36.044,fluency,2022.2.5,MacIntel,58.82352941,,,,,,,,,,,,,,,,,,,,,,,5,6,img/B06_05.jpg,MF,Press J if the face is FEMALE and K if the face is MALE, ,KJ,,,,,,,,,,,,,,,,,,,,,,,,,,,,,,,,,,,,,,,,,,,,,,507.139,0,66,66,60,1,109,0,0,0,0,1,98,,,,,,,,,,,,,,,,,,,,,,,,,,,,,,,,,,,,,,,,,,,,,,,,,,,,,,,,,,,,,,,,,,,,,,,,,,
,,,,575325,001,2023-09-28_17h34.36.044,fluency,2022.2.5,MacIntel,58.82352941,,,,,,,,,,,,,,,,,,,,,,,,,,,,,,,,,,,,,,,,,,,,,,,,,,,,,,,,,,,,,,,,,,,,,,,,,,,,,,,,,,0,0,0,0,1,,"[""k""]",1,"[""k""]",,,,,,,,[0.9919999999999618],[0.9919999999999618],,,,,,,,,,,,,,,,,,,,,,,,,,,,,,,,,,,,,,,,,,,,,,,,,,,,,,,,,,,,,,
,,,,575325,001,2023-09-28_17h34.36.044,fluency,2022.2.5,MacIntel,58.82352941,,,,,,,,,,,,,,,,,,,,,,,5,6,img/B06_05.jpg,MF,Press J if the face is FEMALE and K if the face is MALE, ,KJ,,,,,,,,,,,,,,,,,,,,,,,,,,,,,,,,2,0.284,,,,,,,,,,,,,,0,66,66,60,1,,,,,,,,,,,,,,,,,,,,space,0.219,,,,,,,,,,,,,,,,,,,,,,,,,,,,,,,,,,,,,,,,,,,,,,,,,,,,,,,,,,,,
,,,,575325,001,2023-09-28_17h34.36.044,fluency,2022.2.5,MacIntel,58.82352941,,,,,,,,,,,,,,,,,,,,,,,2,5,img/B05_02.jpg,MF,Press J if the face is FEMALE and K if the face is MALE, ,KJ,,,,,,,,,,,,,,,,,,,,,,,,,,,,,,,,,,,,,,,,,,,,,,512.705,0,67,67,46,1,109,0,0,0,0,1,98,,,,,,,,,,,,,,,,,,,,,,,,,,,,,,,,,,,,,,,,,,,,,,,,,,,,,,,,,,,,,,,,,,,,,,,,,,
,,,,575325,001,2023-09-28_17h34.36.044,fluency,2022.2.5,MacIntel,58.82352941,,,,,,,,,,,,,,,,,,,,,,,,,,,,,,,,,,,,,,,,,,,,,,,,,,,,,,,,,,,,,,,,,,,,,,,,,,,,,,,,,,0,0,0,0,1,,"[""k""]",1,"[""k""]",,,,,,,,[0.5990000000000464],[0.5990000000000464],,,,,,,,,,,,,,,,,,,,,,,,,,,,,,,,,,,,,,,,,,,,,,,,,,,,,,,,,,,,,,
,,,,575325,001,2023-09-28_17h34.36.044,fluency,2022.2.5,MacIntel,58.82352941,,,,,,,,,,,,,,,,,,,,,,,2,5,img/B05_02.jpg,MF,Press J if the face is FEMALE and K if the face is MALE, ,KJ,,,,,,,,,,,,,,,,,,,,,,,,,,,,,,,,2,0.243,,,,,,,,,,,,,,0,67,67,46,1,,,,,,,,,,,,,,,,,,,,space,0.266,,,,,,,,,,,,,,,,,,,,,,,,,,,,,,,,,,,,,,,,,,,,,,,,,,,,,,,,,,,,
,,,,575325,001,2023-09-28_17h34.36.044,fluency,2022.2.5,MacIntel,58.82352941,,,,,,,,,,,,,,,,,,,,,,,4,2,img/B02_04.jpg,MF,Press J if the face is FEMALE and K if the face is MALE, ,KJ,,,,,,,,,,,,,,,,,,,,,,,,,,,,,,,,,,,,,,,,,,,,,,517.289,0,68,68,15,1,109,0,0,0,0,1,98,,,,,,,,,,,,,,,,,,,,,,,,,,,,,,,,,,,,,,,,,,,,,,,,,,,,,,,,,,,,,,,,,,,,,,,,,,
,,,,575325,001,2023-09-28_17h34.36.044,fluency,2022.2.5,MacIntel,58.82352941,,,,,,,,,,,,,,,,,,,,,,,,,,,,,,,,,,,,,,,,,,,,,,,,,,,,,,,,,,,,,,,,,,,,,,,,,,,,,,,,,,0,0,0,0,1,,"[""k""]",1,"[""k""]",,,,,,,,[0.8099999999999454],[0.8099999999999454],,,,,,,,,,,,,,,,,,,,,,,,,,,,,,,,,,,,,,,,,,,,,,,,,,,,,,,,,,,,,,
,,,,575325,001,2023-09-28_17h34.36.044,fluency,2022.2.5,MacIntel,58.82352941,,,,,,,,,,,,,,,,,,,,,,,4,2,img/B02_04.jpg,MF,Press J if the face is FEMALE and K if the face is MALE, ,KJ,,,,,,,,,,,,,,,,,,,,,,,,,,,,,,,,2,0.553,,,,,,,,,,,,,,0,68,68,15,1,,,,,,,,,,,,,,,,,,,,space,0.239,,,,,,,,,,,,,,,,,,,,,,,,,,,,,,,,,,,,,,,,,,,,,,,,,,,,,,,,,,,,
,,,,575325,001,2023-09-28_17h34.36.044,fluency,2022.2.5,MacIntel,58.82352941,,,,,,,,,,,,,,,,,,,,,,,5,1,img/B01_05.jpg,MF,Press J if the face is FEMALE and K if the face is MALE, ,KJ,,,,,,,,,,,,,,,,,,,,,,,,,,,,,,,,,,,,,,,,,,,,,,522.138,0,69,69,5,1,109,0,0,0,0,1,98,,,,,,,,,,,,,,,,,,,,,,,,,,,,,,,,,,,,,,,,,,,,,,,,,,,,,,,,,,,,,,,,,,,,,,,,,,
,,,,575325,001,2023-09-28_17h34.36.044,fluency,2022.2.5,MacIntel,58.82352941,,,,,,,,,,,,,,,,,,,,,,,,,,,,,,,,,,,,,,,,,,,,,,,,,,,,,,,,,,,,,,,,,,,,,,,,,,,,,,,,,,0,0,0,0,1,,"[""k""]",1,"[""k""]",,,,,,,,[1.2940000000000964],[1.2940000000000964],,,,,,,,,,,,,,,,,,,,,,,,,,,,,,,,,,,,,,,,,,,,,,,,,,,,,,,,,,,,,,
,,,,575325,001,2023-09-28_17h34.36.044,fluency,2022.2.5,MacIntel,58.82352941,,,,,,,,,,,,,,,,,,,,,,,5,1,img/B01_05.jpg,MF,Press J if the face is FEMALE and K if the face is MALE, ,KJ,,,,,,,,,,,,,,,,,,,,,,,,,,,,,,,,1,0.795,,,,,,,,,,,,,,0,69,69,5,1,,,,,,,,,,,,,,,,,,,,space,2.335,,,,,,,,,,,,,,,,,,,,,,,,,,,,,,,,,,,,,,,,,,,,,,,,,,,,,,,,,,,,
,,,,575325,001,2023-09-28_17h34.36.044,fluency,2022.2.5,MacIntel,58.82352941,,,,,,,,,,,,,,,,,,,,,,,10,3,img/B03_10.jpg,MF,Press J if the face is FEMALE and K if the face is MALE, ,KJ,,,,,,,,,,,,,,,,,,,,,,,,,,,,,,,,,,,,,,,,,,,,,,529.338,0,70,70,32,1,109,0,0,0,0,1,98,,,,,,,,,,,,,,,,,,,,,,,,,,,,,,,,,,,,,,,,,,,,,,,,,,,,,,,,,,,,,,,,,,,,,,,,,,
,,,,575325,001,2023-09-28_17h34.36.044,fluency,2022.2.5,MacIntel,58.82352941,,,,,,,,,,,,,,,,,,,,,,,,,,,,,,,,,,,,,,,,,,,,,,,,,,,,,,,,,,,,,,,,,,,,,,,,,,,,,,,,,,0,0,0,0,1,,"[""j""]",1,"[""j""]",,,,,,,,[0.6430000000000291],[0.6420000000000528],,,,,,,,,,,,,,,,,,,,,,,,,,,,,,,,,,,,,,,,,,,,,,,,,,,,,,,,,,,,,,
,,,,575325,001,2023-09-28_17h34.36.044,fluency,2022.2.5,MacIntel,58.82352941,,,,,,,,,,,,,,,,,,,,,,,10,3,img/B03_10.jpg,MF,Press J if the face is FEMALE and K if the face is MALE, ,KJ,,,,,,,,,,,,,,,,,,,,,,,,,,,,,,,,3,0.277,,,,,,,,,,,,,,0,70,70,32,1,,,,,,,,,,,,,,,,,,,,space,0.259,,,,,,,,,,,,,,,,,,,,,,,,,,,,,,,,,,,,,,,,,,,,,,,,,,,,,,,,,,,,
,,,,575325,001,2023-09-28_17h34.36.044,fluency,2022.2.5,MacIntel,58.82352941,,,,,,,,,,,,,,,,,,,,,,,9,2,img/B02_09.jpg,MF,Press J if the face is FEMALE and K if the face is MALE, ,KJ,,,,,,,,,,,,,,,,,,,,,,,,,,,,,,,,,,,,,,,,,,,,,,534.939,0,71,71,20,1,109,0,0,0,0,1,98,,,,,,,,,,,,,,,,,,,,,,,,,,,,,,,,,,,,,,,,,,,,,,,,,,,,,,,,,,,,,,,,,,,,,,,,,,
,,,,575325,001,2023-09-28_17h34.36.044,fluency,2022.2.5,MacIntel,58.82352941,,,,,,,,,,,,,,,,,,,,,,,,,,,,,,,,,,,,,,,,,,,,,,,,,,,,,,,,,,,,,,,,,,,,,,,,,,,,,,,,,,0,0,0,0,1,,"[""j""]",1,"[""j""]",,,,,,,,[0.9750000000000227],[0.9750000000000227],,,,,,,,,,,,,,,,,,,,,,,,,,,,,,,,,,,,,,,,,,,,,,,,,,,,,,,,,,,,,,
,,,,575325,001,2023-09-28_17h34.36.044,fluency,2022.2.5,MacIntel,58.82352941,,,,,,,,,,,,,,,,,,,,,,,9,2,img/B02_09.jpg,MF,Press J if the face is FEMALE and K if the face is MALE, ,KJ,,,,,,,,,,,,,,,,,,,,,,,,,,,,,,,,1,0.344,,,,,,,,,,,,,,0,71,71,20,1,,,,,,,,,,,,,,,,,,,,space,0.217,,,,,,,,,,,,,,,,,,,,,,,,,,,,,,,,,,,,,,,,,,,,,,,,,,,,,,,,,,,,
,,,,575325,001,2023-09-28_17h34.36.044,fluency,2022.2.5,MacIntel,58.82352941,,,,,,,,,,,,,,,,,,,,,,,4,6,img/B06_04.jpg,MF,Press J if the face is FEMALE and K if the face is MALE, ,KJ,,,,,,,,,,,,,,,,,,,,,,,,,,,,,,,,,,,,,,,,,,,,,,540.572,0,72,72,59,1,109,0,0,0,0,1,98,,,,,,,,,,,,,,,,,,,,,,,,,,,,,,,,,,,,,,,,,,,,,,,,,,,,,,,,,,,,,,,,,,,,,,,,,,
,,,,575325,001,2023-09-28_17h34.36.044,fluency,2022.2.5,MacIntel,58.82352941,,,,,,,,,,,,,,,,,,,,,,,,,,,,,,,,,,,,,,,,,,,,,,,,,,,,,,,,,,,,,,,,,,,,,,,,,,,,,,,,,,0,0,0,0,1,,"[""k""]",1,"[""k""]",,,,,,,,[0.8630000000000564],[0.8630000000000564],,,,,,,,,,,,,,,,,,,,,,,,,,,,,,,,,,,,,,,,,,,,,,,,,,,,,,,,,,,,,,
,,,,575325,001,2023-09-28_17h34.36.044,fluency,2022.2.5,MacIntel,58.82352941,,,,,,,,,,,,,,,,,,,,,,,4,6,img/B06_04.jpg,MF,Press J if the face is FEMALE and K if the face is MALE, ,KJ,,,,,,,,,,,,,,,,,,,,,,,,,,,,,,,,2,0.243,,,,,,,,,,,,,,0,72,72,59,1,,,,,,,,,,,,,,,,,,,,space,0.183,,,,,,,,,,,,,,,,,,,,,,,,,,,,,,,,,,,,,,,,,,,,,,,,,,,,,,,,,,,,
,,,,575325,001,2023-09-28_17h34.36.044,fluency,2022.2.5,MacIntel,58.82352941,,,,,,,,,,,,,,,,,,,,,,,7,8,img/B08_07.jpg,MF,Press J if the face is FEMALE and K if the face is MALE, ,KJ,,,,,,,,,,,,,,,,,,,,,,,,,,,,,,,,,,,,,,,,,,,,,,545.072,0,73,73,84,1,109,0,0,0,0,1,98,,,,,,,,,,,,,,,,,,,,,,,,,,,,,,,,,,,,,,,,,,,,,,,,,,,,,,,,,,,,,,,,,,,,,,,,,,
,,,,575325,001,2023-09-28_17h34.36.044,fluency,2022.2.5,MacIntel,58.82352941,,,,,,,,,,,,,,,,,,,,,,,,,,,,,,,,,,,,,,,,,,,,,,,,,,,,,,,,,,,,,,,,,,,,,,,,,,,,,,,,,,0,0,0,0,1,,"[""k""]",1,"[""k""]",,,,,,,,[0.52699999999993],[0.52699999999993],,,,,,,,,,,,,,,,,,,,,,,,,,,,,,,,,,,,,,,,,,,,,,,,,,,,,,,,,,,,,,
,,,,575325,001,2023-09-28_17h34.36.044,fluency,2022.2.5,MacIntel,58.82352941,,,,,,,,,,,,,,,,,,,,,,,7,8,img/B08_07.jpg,MF,Press J if the face is FEMALE and K if the face is MALE, ,KJ,,,,,,,,,,,,,,,,,,,,,,,,,,,,,,,,3,0.283,,,,,,,,,,,,,,0,73,73,84,1,,,,,,,,,,,,,,,,,,,,space,0.202,,,,,,,,,,,,,,,,,,,,,,,,,,,,,,,,,,,,,,,,,,,,,,,,,,,,,,,,,,,,
,,,,575325,001,2023-09-28_17h34.36.044,fluency,2022.2.5,MacIntel,58.82352941,,,,,,,,,,,,,,,,,,,,,,,8,9,img/B09_08.jpg,MF,Press J if the face is FEMALE and K if the face is MALE, ,KJ,,,,,,,,,,,,,,,,,,,,,,,,,,,,,,,,,,,,,,,,,,,,,,550.605,0,74,74,96,1,109,0,0,0,0,1,98,,,,,,,,,,,,,,,,,,,,,,,,,,,,,,,,,,,,,,,,,,,,,,,,,,,,,,,,,,,,,,,,,,,,,,,,,,
,,,,575325,001,2023-09-28_17h34.36.044,fluency,2022.2.5,MacIntel,58.82352941,,,,,,,,,,,,,,,,,,,,,,,,,,,,,,,,,,,,,,,,,,,,,,,,,,,,,,,,,,,,,,,,,,,,,,,,,,,,,,,,,,0,0,0,0,1,,"[""j""]",1,"[""j""]",,,,,,,,[0.6490000000000009],[0.6490000000000009],,,,,,,,,,,,,,,,,,,,,,,,,,,,,,,,,,,,,,,,,,,,,,,,,,,,,,,,,,,,,,
,,,,575325,001,2023-09-28_17h34.36.044,fluency,2022.2.5,MacIntel,58.82352941,,,,,,,,,,,,,,,,,,,,,,,8,9,img/B09_08.jpg,MF,Press J if the face is FEMALE and K if the face is MALE, ,KJ,,,,,,,,,,,,,,,,,,,,,,,,,,,,,,,,2,0.286,,,,,,,,,,,,,,0,74,74,96,1,,,,,,,,,,,,,,,,,,,,space,0.201,,,,,,,,,,,,,,,,,,,,,,,,,,,,,,,,,,,,,,,,,,,,,,,,,,,,,,,,,,,,
,,,,575325,001,2023-09-28_17h34.36.044,fluency,2022.2.5,MacIntel,58.82352941,,,,,,,,,,,,,,,,,,,,,,,4,7,img/B07_04.jpg,MF,Press J if the face is FEMALE and K if the face is MALE, ,KJ,,,,,,,,,,,,,,,,,,,,,,,,,,,,,,,,,,,,,,,,,,,,,,555.156,0,75,75,70,1,109,0,0,0,0,1,98,,,,,,,,,,,,,,,,,,,,,,,,,,,,,,,,,,,,,,,,,,,,,,,,,,,,,,,,,,,,,,,,,,,,,,,,,,
,,,,575325,001,2023-09-28_17h34.36.044,fluency,2022.2.5,MacIntel,58.82352941,,,,,,,,,,,,,,,,,,,,,,,,,,,,,,,,,,,,,,,,,,,,,,,,,,,,,,,,,,,,,,,,,,,,,,,,,,,,,,,,,,0,0,0,0,1,,"[""k""]",1,"[""k""]",,,,,,,,[1.1599999999999682],[1.1599999999999682],,,,,,,,,,,,,,,,,,,,,,,,,,,,,,,,,,,,,,,,,,,,,,,,,,,,,,,,,,,,,,
,,,,575325,001,2023-09-28_17h34.36.044,fluency,2022.2.5,MacIntel,58.82352941,,,,,,,,,,,,,,,,,,,,,,,4,7,img/B07_04.jpg,MF,Press J if the face is FEMALE and K if the face is MALE, ,KJ,,,,,,,,,,,,,,,,,,,,,,,,,,,,,,,,1,0.465,,,,,,,,,,,,,,0,75,75,70,1,,,,,,,,,,,,,,,,,,,,space,0.208,,,,,,,,,,,,,,,,,,,,,,,,,,,,,,,,,,,,,,,,,,,,,,,,,,,,,,,,,,,,
,,,,575325,001,2023-09-28_17h34.36.044,fluency,2022.2.5,MacIntel,58.82352941,,,,,,,,,,,,,,,,,,,,,,,9,9,img/B09_09.jpg,MF,Press J if the face is FEMALE and K if the face is MALE, ,KJ,,,,,,,,,,,,,,,,,,,,,,,,,,,,,,,,,,,,,,,,,,,,,,559.889,0,76,76,97,1,109,0,0,0,0,1,98,,,,,,,,,,,,,,,,,,,,,,,,,,,,,,,,,,,,,,,,,,,,,,,,,,,,,,,,,,,,,,,,,,,,,,,,,,
,,,,575325,001,2023-09-28_17h34.36.044,fluency,2022.2.5,MacIntel,58.82352941,,,,,,,,,,,,,,,,,,,,,,,,,,,,,,,,,,,,,,,,,,,,,,,,,,,,,,,,,,,,,,,,,,,,,,,,,,,,,,,,,,0,0,0,0,1,,"[""j""]",1,"[""j""]",,,,,,,,[0.7529999999999291],[0.7529999999999291],,,,,,,,,,,,,,,,,,,,,,,,,,,,,,,,,,,,,,,,,,,,,,,,,,,,,,,,,,,,,,
,,,,575325,001,2023-09-28_17h34.36.044,fluency,2022.2.5,MacIntel,58.82352941,,,,,,,,,,,,,,,,,,,,,,,9,9,img/B09_09.jpg,MF,Press J if the face is FEMALE and K if the face is MALE, ,KJ,,,,,,,,,,,,,,,,,,,,,,,,,,,,,,,,3,0.248,,,,,,,,,,,,,,0,76,76,97,1,,,,,,,,,,,,,,,,,,,,space,0.167,,,,,,,,,,,,,,,,,,,,,,,,,,,,,,,,,,,,,,,,,,,,,,,,,,,,,,,,,,,,
,,,,575325,001,2023-09-28_17h34.36.044,fluency,2022.2.5,MacIntel,58.82352941,,,,,,,,,,,,,,,,,,,,,,,4,4,img/B04_04.jpg,MF,Press J if the face is FEMALE and K if the face is MALE, ,KJ,,,,,,,,,,,,,,,,,,,,,,,,,,,,,,,,,,,,,,,,,,,,,,565.372,0,77,77,37,1,109,0,0,0,0,1,98,,,,,,,,,,,,,,,,,,,,,,,,,,,,,,,,,,,,,,,,,,,,,,,,,,,,,,,,,,,,,,,,,,,,,,,,,,
,,,,575325,001,2023-09-28_17h34.36.044,fluency,2022.2.5,MacIntel,58.82352941,,,,,,,,,,,,,,,,,,,,,,,,,,,,,,,,,,,,,,,,,,,,,,,,,,,,,,,,,,,,,,,,,,,,,,,,,,,,,,,,,,0,0,0,0,1,,"[""k""]",1,"[""k""]",,,,,,,,[0.9840000000000373],[0.9840000000000373],,,,,,,,,,,,,,,,,,,,,,,,,,,,,,,,,,,,,,,,,,,,,,,,,,,,,,,,,,,,,,
,,,,575325,001,2023-09-28_17h34.36.044,fluency,2022.2.5,MacIntel,58.82352941,,,,,,,,,,,,,,,,,,,,,,,4,4,img/B04_04.jpg,MF,Press J if the face is FEMALE and K if the face is MALE, ,KJ,,,,,,,,,,,,,,,,,,,,,,,,,,,,,,,,2,0.31,,,,,,,,,,,,,,0,77,77,37,1,,,,,,,,,,,,,,,,,,,,space,0.216,,,,,,,,,,,,,,,,,,,,,,,,,,,,,,,,,,,,,,,,,,,,,,,,,,,,,,,,,,,,
,,,,575325,001,2023-09-28_17h34.36.044,fluency,2022.2.5,MacIntel,58.82352941,,,,,,,,,,,,,,,,,,,,,,,9,10,img/B10_09.jpg,MF,Press J if the face is FEMALE and K if the face is MALE, ,KJ,,,,,,,,,,,,,,,,,,,,,,,,,,,,,,,,,,,,,,,,,,,,,,570.972,0,78,78,108,1,109,0,0,0,0,1,98,,,,,,,,,,,,,,,,,,,,,,,,,,,,,,,,,,,,,,,,,,,,,,,,,,,,,,,,,,,,,,,,,,,,,,,,,,
,,,,575325,001,2023-09-28_17h34.36.044,fluency,2022.2.5,MacIntel,58.82352941,,,,,,,,,,,,,,,,,,,,,,,,,,,,,,,,,,,,,,,,,,,,,,,,,,,,,,,,,,,,,,,,,,,,,,,,,,,,,,,,,,0,0,0,0,1,,"[""j""]",1,"[""j""]",,,,,,,,[0.7420000000001892],[0.7420000000001892],,,,,,,,,,,,,,,,,,,,,,,,,,,,,,,,,,,,,,,,,,,,,,,,,,,,,,,,,,,,,,
,,,,575325,001,2023-09-28_17h34.36.044,fluency,2022.2.5,MacIntel,58.82352941,,,,,,,,,,,,,,,,,,,,,,,9,10,img/B10_09.jpg,MF,Press J if the face is FEMALE and K if the face is MALE, ,KJ,,,,,,,,,,,,,,,,,,,,,,,,,,,,,,,,1,0.254,,,,,,,,,,,,,,0,78,78,108,1,,,,,,,,,,,,,,,,,,,,space,0.218,,,,,,,,,,,,,,,,,,,,,,,,,,,,,,,,,,,,,,,,,,,,,,,,,,,,,,,,,,,,
,,,,575325,001,2023-09-28_17h34.36.044,fluency,2022.2.5,MacIntel,58.82352941,,,,,,,,,,,,,,,,,,,,,,,1,6,img/B06_01.jpg,MF,Press J if the face is FEMALE and K if the face is MALE, ,KJ,,,,,,,,,,,,,,,,,,,,,,,,,,,,,,,,,,,,,,,,,,,,,,575.505,0,79,79,56,1,109,0,0,0,0,1,98,,,,,,,,,,,,,,,,,,,,,,,,,,,,,,,,,,,,,,,,,,,,,,,,,,,,,,,,,,,,,,,,,,,,,,,,,,
,,,,575325,001,2023-09-28_17h34.36.044,fluency,2022.2.5,MacIntel,58.82352941,,,,,,,,,,,,,,,,,,,,,,,,,,,,,,,,,,,,,,,,,,,,,,,,,,,,,,,,,,,,,,,,,,,,,,,,,,,,,,,,,,0,0,0,0,1,,"[""k""]",1,"[""k""]",,,,,,,,[0.6829999999999927],[0.6829999999999927],,,,,,,,,,,,,,,,,,,,,,,,,,,,,,,,,,,,,,,,,,,,,,,,,,,,,,,,,,,,,,
,,,,575325,001,2023-09-28_17h34.36.044,fluency,2022.2.5,MacIntel,58.82352941,,,,,,,,,,,,,,,,,,,,,,,1,6,img/B06_01.jpg,MF,Press J if the face is FEMALE and K if the face is MALE, ,KJ,,,,,,,,,,,,,,,,,,,,,,,,,,,,,,,,3,0.26,,,,,,,,,,,,,,0,79,79,56,1,,,,,,,,,,,,,,,,,,,,space,0.2,,,,,,,,,,,,,,,,,,,,,,,,,,,,,,,,,,,,,,,,,,,,,,,,,,,,,,,,,,,,
,,,,575325,001,2023-09-28_17h34.36.044,fluency,2022.2.5,MacIntel,58.82352941,,,,,,,,,,,,,,,,,,,,,,,0,7,img/B07_00.jpg,MF,Press J if the face is FEMALE and K if the face is MALE, ,KJ,,,,,,,,,,,,,,,,,,,,,,,,,,,,,,,,,,,,,,,,,,,,,,580.039,0,80,80,66,1,109,0,0,0,0,1,98,,,,,,,,,,,,,,,,,,,,,,,,,,,,,,,,,,,,,,,,,,,,,,,,,,,,,,,,,,,,,,,,,,,,,,,,,,
,,,,575325,001,2023-09-28_17h34.36.044,fluency,2022.2.5,MacIntel,58.82352941,,,,,,,,,,,,,,,,,,,,,,,,,,,,,,,,,,,,,,,,,,,,,,,,,,,,,,,,,,,,,,,,,,,,,,,,,,,,,,,,,,0,0,0,0,1,,"[""k""]",1,"[""k""]",,,,,,,,[0.49300000000005184],[0.49300000000005184],,,,,,,,,,,,,,,,,,,,,,,,,,,,,,,,,,,,,,,,,,,,,,,,,,,,,,,,,,,,,,
,,,,575325,001,2023-09-28_17h34.36.044,fluency,2022.2.5,MacIntel,58.82352941,,,,,,,,,,,,,,,,,,,,,,,0,7,img/B07_00.jpg,MF,Press J if the face is FEMALE and K if the face is MALE, ,KJ,,,,,,,,,,,,,,,,,,,,,,,,,,,,,,,,2,0.342,,,,,,,,,,,,,,0,80,80,66,1,,,,,,,,,,,,,,,,,,,,space,0.205,,,,,,,,,,,,,,,,,,,,,,,,,,,,,,,,,,,,,,,,,,,,,,,,,,,,,,,,,,,,
,,,,575325,001,2023-09-28_17h34.36.044,fluency,2022.2.5,MacIntel,58.82352941,,,,,,,,,,,,,,,,,,,,,,,0,8,img/B08_00.jpg,MF,Press J if the face is FEMALE and K if the face is MALE, ,KJ,,,,,,,,,,,,,,,,,,,,,,,,,,,,,,,,,,,,,,,,,,,,,,585.655,0,81,81,77,1,109,0,0,0,0,1,98,,,,,,,,,,,,,,,,,,,,,,,,,,,,,,,,,,,,,,,,,,,,,,,,,,,,,,,,,,,,,,,,,,,,,,,,,,
,,,,575325,001,2023-09-28_17h34.36.044,fluency,2022.2.5,MacIntel,58.82352941,,,,,,,,,,,,,,,,,,,,,,,,,,,,,,,,,,,,,,,,,,,,,,,,,,,,,,,,,,,,,,,,,,,,,,,,,,,,,,,,,,0,0,0,0,1,,"[""j""]",1,"[""j""]",,,,,,,,[0.68100000000004],[0.68100000000004],,,,,,,,,,,,,,,,,,,,,,,,,,,,,,,,,,,,,,,,,,,,,,,,,,,,,,,,,,,,,,
,,,,575325,001,2023-09-28_17h34.36.044,fluency,2022.2.5,MacIntel,58.82352941,,,,,,,,,,,,,,,,,,,,,,,0,8,img/B08_00.jpg,MF,Press J if the face is FEMALE and K if the face is MALE, ,KJ,,,,,,,,,,,,,,,,,,,,,,,,,,,,,,,,2,0.598,,,,,,,,,,,,,,0,81,81,77,1,,,,,,,,,,,,,,,,,,,,space,1,,,,,,,,,,,,,,,,,,,,,,,,,,,,,,,,,,,,,,,,,,,,,,,,,,,,,,,,,,,,
,,,,575325,001,2023-09-28_17h34.36.044,fluency,2022.2.5,MacIntel,58.82352941,,,,,,,,,,,,,,,,,,,,,,,10,5,img/B05_10.jpg,MF,Press J if the face is FEMALE and K if the face is MALE, ,KJ,,,,,,,,,,,,,,,,,,,,,,,,,,,,,,,,,,,,,,,,,,,,,,592.323,0,82,82,54,1,109,0,0,0,0,1,98,,,,,,,,,,,,,,,,,,,,,,,,,,,,,,,,,,,,,,,,,,,,,,,,,,,,,,,,,,,,,,,,,,,,,,,,,,
,,,,575325,001,2023-09-28_17h34.36.044,fluency,2022.2.5,MacIntel,58.82352941,,,,,,,,,,,,,,,,,,,,,,,,,,,,,,,,,,,,,,,,,,,,,,,,,,,,,,,,,,,,,,,,,,,,,,,,,,,,,,,,,,0,0,0,0,1,,"[""j""]",1,"[""j""]",,,,,,,,[0.5679999999999836],[0.5679999999999836],,,,,,,,,,,,,,,,,,,,,,,,,,,,,,,,,,,,,,,,,,,,,,,,,,,,,,,,,,,,,,
,,,,575325,001,2023-09-28_17h34.36.044,fluency,2022.2.5,MacIntel,58.82352941,,,,,,,,,,,,,,,,,,,,,,,10,5,img/B05_10.jpg,MF,Press J if the face is FEMALE and K if the face is MALE, ,KJ,,,,,,,,,,,,,,,,,,,,,,,,,,,,,,,,1,0.266,,,,,,,,,,,,,,0,82,82,54,1,,,,,,,,,,,,,,,,,,,,space,0.174,,,,,,,,,,,,,,,,,,,,,,,,,,,,,,,,,,,,,,,,,,,,,,,,,,,,,,,,,,,,
,,,,575325,001,2023-09-28_17h34.36.044,fluency,2022.2.5,MacIntel,58.82352941,,,,,,,,,,,,,,,,,,,,,,,5,10,img/B10_05.jpg,MF,Press J if the face is FEMALE and K if the face is MALE, ,KJ,,,,,,,,,,,,,,,,,,,,,,,,,,,,,,,,,,,,,,,,,,,,,,597.822,0,83,83,104,1,109,0,0,0,0,1,98,,,,,,,,,,,,,,,,,,,,,,,,,,,,,,,,,,,,,,,,,,,,,,,,,,,,,,,,,,,,,,,,,,,,,,,,,,
,,,,575325,001,2023-09-28_17h34.36.044,fluency,2022.2.5,MacIntel,58.82352941,,,,,,,,,,,,,,,,,,,,,,,,,,,,,,,,,,,,,,,,,,,,,,,,,,,,,,,,,,,,,,,,,,,,,,,,,,,,,,,,,,0,0,0,0,1,,"[""k""]",1,"[""k""]",,,,,,,,[1.0579999999999927],[1.0579999999999927],,,,,,,,,,,,,,,,,,,,,,,,,,,,,,,,,,,,,,,,,,,,,,,,,,,,,,,,,,,,,,
,,,,575325,001,2023-09-28_17h34.36.044,fluency,2022.2.5,MacIntel,58.82352941,,,,,,,,,,,,,,,,,,,,,,,5,10,img/B10_05.jpg,MF,Press J if the face is FEMALE and K if the face is MALE, ,KJ,,,,,,,,,,,,,,,,,,,,,,,,,,,,,,,,2,0.229,,,,,,,,,,,,,,0,83,83,104,1,,,,,,,,,,,,,,,,,,,,space,0.188,,,,,,,,,,,,,,,,,,,,,,,,,,,,,,,,,,,,,,,,,,,,,,,,,,,,,,,,,,,,
,,,,575325,001,2023-09-28_17h34.36.044,fluency,2022.2.5,MacIntel,58.82352941,,,,,,,,,,,,,,,,,,,,,,,3,1,img/B01_03.jpg,MF,Press J if the face is FEMALE and K if the face is MALE, ,KJ,,,,,,,,,,,,,,,,,,,,,,,,,,,,,,,,,,,,,,,,,,,,,,602.305,0,84,84,3,1,109,0,0,0,0,1,98,,,,,,,,,,,,,,,,,,,,,,,,,,,,,,,,,,,,,,,,,,,,,,,,,,,,,,,,,,,,,,,,,,,,,,,,,,
,,,,575325,001,2023-09-28_17h34.36.044,fluency,2022.2.5,MacIntel,58.82352941,,,,,,,,,,,,,,,,,,,,,,,,,,,,,,,,,,,,,,,,,,,,,,,,,,,,,,,,,,,,,,,,,,,,,,,,,,,,,,,,,,0,0,0,0,1,,"[""k""]",1,"[""k""]",,,,,,,,[0.7840000000001055],[0.7840000000001055],,,,,,,,,,,,,,,,,,,,,,,,,,,,,,,,,,,,,,,,,,,,,,,,,,,,,,,,,,,,,,
,,,,575325,001,2023-09-28_17h34.36.044,fluency,2022.2.5,MacIntel,58.82352941,,,,,,,,,,,,,,,,,,,,,,,3,1,img/B01_03.jpg,MF,Press J if the face is FEMALE and K if the face is MALE, ,KJ,,,,,,,,,,,,,,,,,,,,,,,,,,,,,,,,3,0.318,,,,,,,,,,,,,,0,84,84,3,1,,,,,,,,,,,,,,,,,,,,space,0.169,,,,,,,,,,,,,,,,,,,,,,,,,,,,,,,,,,,,,,,,,,,,,,,,,,,,,,,,,,,,
,,,,575325,001,2023-09-28_17h34.36.044,fluency,2022.2.5,MacIntel,58.82352941,,,,,,,,,,,,,,,,,,,,,,,8,3,img/B03_08.jpg,MF,Press J if the face is FEMALE and K if the face is MALE, ,KJ,,,,,,,,,,,,,,,,,,,,,,,,,,,,,,,,,,,,,,,,,,,,,,606.855,0,85,85,30,1,109,0,0,0,0,1,98,,,,,,,,,,,,,,,,,,,,,,,,,,,,,,,,,,,,,,,,,,,,,,,,,,,,,,,,,,,,,,,,,,,,,,,,,,
,,,,575325,001,2023-09-28_17h34.36.044,fluency,2022.2.5,MacIntel,58.82352941,,,,,,,,,,,,,,,,,,,,,,,,,,,,,,,,,,,,,,,,,,,,,,,,,,,,,,,,,,,,,,,,,,,,,,,,,,,,,,,,,,0,0,0,0,1,,"[""j""]",1,"[""j""]",,,,,,,,[0.83299999999997],[0.83299999999997],,,,,,,,,,,,,,,,,,,,,,,,,,,,,,,,,,,,,,,,,,,,,,,,,,,,,,,,,,,,,,
,,,,575325,001,2023-09-28_17h34.36.044,fluency,2022.2.5,MacIntel,58.82352941,,,,,,,,,,,,,,,,,,,,,,,8,3,img/B03_08.jpg,MF,Press J if the face is FEMALE and K if the face is MALE, ,KJ,,,,,,,,,,,,,,,,,,,,,,,,,,,,,,,,3,0.25,,,,,,,,,,,,,,0,85,85,30,1,,,,,,,,,,,,,,,,,,,,space,0.22,,,,,,,,,,,,,,,,,,,,,,,,,,,,,,,,,,,,,,,,,,,,,,,,,,,,,,,,,,,,
,,,,575325,001,2023-09-28_17h34.36.044,fluency,2022.2.5,MacIntel,58.82352941,,,,,,,,,,,,,,,,,,,,,,,9,6,img/B06_09.jpg,MF,Press J if the face is FEMALE and K if the face is MALE, ,KJ,,,,,,,,,,,,,,,,,,,,,,,,,,,,,,,,,,,,,,,,,,,,,,611.388,0,86,86,64,1,109,0,0,0,0,1,98,,,,,,,,,,,,,,,,,,,,,,,,,,,,,,,,,,,,,,,,,,,,,,,,,,,,,,,,,,,,,,,,,,,,,,,,,,
,,,,575325,001,2023-09-28_17h34.36.044,fluency,2022.2.5,MacIntel,58.82352941,,,,,,,,,,,,,,,,,,,,,,,,,,,,,,,,,,,,,,,,,,,,,,,,,,,,,,,,,,,,,,,,,,,,,,,,,,,,,,,,,,0,0,0,0,1,,"[""j""]",1,"[""j""]",,,,,,,,[0.7139999999999418],[0.7139999999999418],,,,,,,,,,,,,,,,,,,,,,,,,,,,,,,,,,,,,,,,,,,,,,,,,,,,,,,,,,,,,,
,,,,575325,001,2023-09-28_17h34.36.044,fluency,2022.2.5,MacIntel,58.82352941,,,,,,,,,,,,,,,,,,,,,,,9,6,img/B06_09.jpg,MF,Press J if the face is FEMALE and K if the face is MALE, ,KJ,,,,,,,,,,,,,,,,,,,,,,,,,,,,,,,,2,0.247,,,,,,,,,,,,,,0,86,86,64,1,,,,,,,,,,,,,,,,,,,,space,0.209,,,,,,,,,,,,,,,,,,,,,,,,,,,,,,,,,,,,,,,,,,,,,,,,,,,,,,,,,,,,
,,,,575325,001,2023-09-28_17h34.36.044,fluency,2022.2.5,MacIntel,58.82352941,,,,,,,,,,,,,,,,,,,,,,,9,1,img/B01_09.jpg,MF,Press J if the face is FEMALE and K if the face is MALE, ,KJ,,,,,,,,,,,,,,,,,,,,,,,,,,,,,,,,,,,,,,,,,,,,,,615.905,0,87,87,9,1,109,0,0,0,0,1,98,,,,,,,,,,,,,,,,,,,,,,,,,,,,,,,,,,,,,,,,,,,,,,,,,,,,,,,,,,,,,,,,,,,,,,,,,,
,,,,575325,001,2023-09-28_17h34.36.044,fluency,2022.2.5,MacIntel,58.82352941,,,,,,,,,,,,,,,,,,,,,,,,,,,,,,,,,,,,,,,,,,,,,,,,,,,,,,,,,,,,,,,,,,,,,,,,,,,,,,,,,,0,0,0,0,1,,"[""j""]",1,"[""j""]",,,,,,,,[0.7599999999999909],[0.7599999999999909],,,,,,,,,,,,,,,,,,,,,,,,,,,,,,,,,,,,,,,,,,,,,,,,,,,,,,,,,,,,,,
,,,,575325,001,2023-09-28_17h34.36.044,fluency,2022.2.5,MacIntel,58.82352941,,,,,,,,,,,,,,,,,,,,,,,9,1,img/B01_09.jpg,MF,Press J if the face is FEMALE and K if the face is MALE, ,KJ,,,,,,,,,,,,,,,,,,,,,,,,,,,,,,,,2,0.17,,,,,,,,,,,,,,0,87,87,9,1,,,,,,,,,,,,,,,,,,,,space,0.252,,,,,,,,,,,,,,,,,,,,,,,,,,,,,,,,,,,,,,,,,,,,,,,,,,,,,,,,,,,,
,,,,575325,001,2023-09-28_17h34.36.044,fluency,2022.2.5,MacIntel,58.82352941,,,,,,,,,,,,,,,,,,,,,,,10,2,img/B02_10.jpg,MF,Press J if the face is FEMALE and K if the face is MALE, ,KJ,,,,,,,,,,,,,,,,,,,,,,,,,,,,,,,,,,,,,,,,,,,,,,621.388,0,88,88,21,1,109,0,0,0,0,1,98,,,,,,,,,,,,,,,,,,,,,,,,,,,,,,,,,,,,,,,,,,,,,,,,,,,,,,,,,,,,,,,,,,,,,,,,,,
,,,,575325,001,2023-09-28_17h34.36.044,fluency,2022.2.5,MacIntel,58.82352941,,,,,,,,,,,,,,,,,,,,,,,,,,,,,,,,,,,,,,,,,,,,,,,,,,,,,,,,,,,,,,,,,,,,,,,,,,,,,,,,,,0,0,0,0,1,,"[""j""]",1,"[""j""]",,,,,,,,[0.7419999999999618],[0.7419999999999618],,,,,,,,,,,,,,,,,,,,,,,,,,,,,,,,,,,,,,,,,,,,,,,,,,,,,,,,,,,,,,
,,,,575325,001,2023-09-28_17h34.36.044,fluency,2022.2.5,MacIntel,58.82352941,,,,,,,,,,,,,,,,,,,,,,,10,2,img/B02_10.jpg,MF,Press J if the face is FEMALE and K if the face is MALE, ,KJ,,,,,,,,,,,,,,,,,,,,,,,,,,,,,,,,1,0.283,,,,,,,,,,,,,,0,88,88,21,1,,,,,,,,,,,,,,,,,,,,space,0.16,,,,,,,,,,,,,,,,,,,,,,,,,,,,,,,,,,,,,,,,,,,,,,,,,,,,,,,,,,,,
,,,,575325,001,2023-09-28_17h34.36.044,fluency,2022.2.5,MacIntel,58.82352941,,,,,,,,,,,,,,,,,,,,,,,6,10,img/B10_06.jpg,MF,Press J if the face is FEMALE and K if the face is MALE, ,KJ,,,,,,,,,,,,,,,,,,,,,,,,,,,,,,,,,,,,,,,,,,,,,,626.889,0,89,89,105,1,109,0,0,0,0,1,98,,,,,,,,,,,,,,,,,,,,,,,,,,,,,,,,,,,,,,,,,,,,,,,,,,,,,,,,,,,,,,,,,,,,,,,,,,
,,,,575325,001,2023-09-28_17h34.36.044,fluency,2022.2.5,MacIntel,58.82352941,,,,,,,,,,,,,,,,,,,,,,,,,,,,,,,,,,,,,,,,,,,,,,,,,,,,,,,,,,,,,,,,,,,,,,,,,,,,,,,,,,0,0,0,0,1,,"[""k""]",1,"[""k""]",,,,,,,,[1.0339999999999918],[1.0349999999999682],,,,,,,,,,,,,,,,,,,,,,,,,,,,,,,,,,,,,,,,,,,,,,,,,,,,,,,,,,,,,,
,,,,575325,001,2023-09-28_17h34.36.044,fluency,2022.2.5,MacIntel,58.82352941,,,,,,,,,,,,,,,,,,,,,,,6,10,img/B10_06.jpg,MF,Press J if the face is FEMALE and K if the face is MALE, ,KJ,,,,,,,,,,,,,,,,,,,,,,,,,,,,,,,,1,0.285,,,,,,,,,,,,,,0,89,89,105,1,,,,,,,,,,,,,,,,,,,,space,0.159,,,,,,,,,,,,,,,,,,,,,,,,,,,,,,,,,,,,,,,,,,,,,,,,,,,,,,,,,,,,
,,,,575325,001,2023-09-28_17h34.36.044,fluency,2022.2.5,MacIntel,58.82352941,,,,,,,,,,,,,,,,,,,,,,,4,10,img/B10_04.jpg,MF,Press J if the face is FEMALE and K if the face is MALE, ,KJ,,,,,,,,,,,,,,,,,,,,,,,,,,,,,,,,,,,,,,,,,,,,,,632.39,0,90,90,103,1,109,0,0,0,0,1,98,,,,,,,,,,,,,,,,,,,,,,,,,,,,,,,,,,,,,,,,,,,,,,,,,,,,,,,,,,,,,,,,,,,,,,,,,,
,,,,575325,001,2023-09-28_17h34.36.044,fluency,2022.2.5,MacIntel,58.82352941,,,,,,,,,,,,,,,,,,,,,,,,,,,,,,,,,,,,,,,,,,,,,,,,,,,,,,,,,,,,,,,,,,,,,,,,,,,,,,,,,,0,0,0,0,1,,"[""k""]",1,"[""k""]",,,,,,,,[0.9909999999999854],[0.9909999999999854],,,,,,,,,,,,,,,,,,,,,,,,,,,,,,,,,,,,,,,,,,,,,,,,,,,,,,,,,,,,,,
,,,,575325,001,2023-09-28_17h34.36.044,fluency,2022.2.5,MacIntel,58.82352941,,,,,,,,,,,,,,,,,,,,,,,4,10,img/B10_04.jpg,MF,Press J if the face is FEMALE and K if the face is MALE, ,KJ,,,,,,,,,,,,,,,,,,,,,,,,,,,,,,,,2,0.313,,,,,,,,,,,,,,0,90,90,103,1,,,,,,,,,,,,,,,,,,,,space,0.168,,,,,,,,,,,,,,,,,,,,,,,,,,,,,,,,,,,,,,,,,,,,,,,,,,,,,,,,,,,,
,,,,575325,001,2023-09-28_17h34.36.044,fluency,2022.2.5,MacIntel,58.82352941,,,,,,,,,,,,,,,,,,,,,,,3,4,img/B04_03.jpg,MF,Press J if the face is FEMALE and K if the face is MALE, ,KJ,,,,,,,,,,,,,,,,,,,,,,,,,,,,,,,,,,,,,,,,,,,,,,636.939,0,91,91,36,1,109,0,0,0,0,1,98,,,,,,,,,,,,,,,,,,,,,,,,,,,,,,,,,,,,,,,,,,,,,,,,,,,,,,,,,,,,,,,,,,,,,,,,,,
,,,,575325,001,2023-09-28_17h34.36.044,fluency,2022.2.5,MacIntel,58.82352941,,,,,,,,,,,,,,,,,,,,,,,,,,,,,,,,,,,,,,,,,,,,,,,,,,,,,,,,,,,,,,,,,,,,,,,,,,,,,,,,,,0,0,0,0,1,,"[""k""]",1,"[""k""]",,,,,,,,[0.6760000000000446],[0.6760000000000446],,,,,,,,,,,,,,,,,,,,,,,,,,,,,,,,,,,,,,,,,,,,,,,,,,,,,,,,,,,,,,
,,,,575325,001,2023-09-28_17h34.36.044,fluency,2022.2.5,MacIntel,58.82352941,,,,,,,,,,,,,,,,,,,,,,,3,4,img/B04_03.jpg,MF,Press J if the face is FEMALE and K if the face is MALE, ,KJ,,,,,,,,,,,,,,,,,,,,,,,,,,,,,,,,2,0.293,,,,,,,,,,,,,,0,91,91,36,1,,,,,,,,,,,,,,,,,,,,space,0.141,,,,,,,,,,,,,,,,,,,,,,,,,,,,,,,,,,,,,,,,,,,,,,,,,,,,,,,,,,,,
,,,,575325,001,2023-09-28_17h34.36.044,fluency,2022.2.5,MacIntel,58.82352941,,,,,,,,,,,,,,,,,,,,,,,7,10,img/B10_07.jpg,MF,Press J if the face is FEMALE and K if the face is MALE, ,KJ,,,,,,,,,,,,,,,,,,,,,,,,,,,,,,,,,,,,,,,,,,,,,,642.438,0,92,92,106,1,109,0,0,0,0,1,98,,,,,,,,,,,,,,,,,,,,,,,,,,,,,,,,,,,,,,,,,,,,,,,,,,,,,,,,,,,,,,,,,,,,,,,,,,
,,,,575325,001,2023-09-28_17h34.36.044,fluency,2022.2.5,MacIntel,58.82352941,,,,,,,,,,,,,,,,,,,,,,,,,,,,,,,,,,,,,,,,,,,,,,,,,,,,,,,,,,,,,,,,,,,,,,,,,,,,,,,,,,0,0,0,0,1,,"[""j""]",1,"[""j""]",,,,,,,,[0.8999999999999773],[0.8999999999999773],,,,,,,,,,,,,,,,,,,,,,,,,,,,,,,,,,,,,,,,,,,,,,,,,,,,,,,,,,,,,,
,,,,575325,001,2023-09-28_17h34.36.044,fluency,2022.2.5,MacIntel,58.82352941,,,,,,,,,,,,,,,,,,,,,,,7,10,img/B10_07.jpg,MF,Press J if the face is FEMALE and K if the face is MALE, ,KJ,,,,,,,,,,,,,,,,,,,,,,,,,,,,,,,,1,0.247,,,,,,,,,,,,,,0,92,92,106,1,,,,,,,,,,,,,,,,,,,,space,0.193,,,,,,,,,,,,,,,,,,,,,,,,,,,,,,,,,,,,,,,,,,,,,,,,,,,,,,,,,,,,
,,,,575325,001,2023-09-28_17h34.36.044,fluency,2022.2.5,MacIntel,58.82352941,,,,,,,,,,,,,,,,,,,,,,,0,5,img/B05_00.jpg,MF,Press J if the face is FEMALE and K if the face is MALE, ,KJ,,,,,,,,,,,,,,,,,,,,,,,,,,,,,,,,,,,,,,,,,,,,,,646.939,0,93,93,44,1,109,0,0,0,0,1,98,,,,,,,,,,,,,,,,,,,,,,,,,,,,,,,,,,,,,,,,,,,,,,,,,,,,,,,,,,,,,,,,,,,,,,,,,,
,,,,575325,001,2023-09-28_17h34.36.044,fluency,2022.2.5,MacIntel,58.82352941,,,,,,,,,,,,,,,,,,,,,,,,,,,,,,,,,,,,,,,,,,,,,,,,,,,,,,,,,,,,,,,,,,,,,,,,,,,,,,,,,,0,0,0,0,1,,"[""k""]",1,"[""k""]",,,,,,,,[0.8279999999999745],[0.8279999999999745],,,,,,,,,,,,,,,,,,,,,,,,,,,,,,,,,,,,,,,,,,,,,,,,,,,,,,,,,,,,,,
,,,,575325,001,2023-09-28_17h34.36.044,fluency,2022.2.5,MacIntel,58.82352941,,,,,,,,,,,,,,,,,,,,,,,0,5,img/B05_00.jpg,MF,Press J if the face is FEMALE and K if the face is MALE, ,KJ,,,,,,,,,,,,,,,,,,,,,,,,,,,,,,,,1,0.309,,,,,,,,,,,,,,0,93,93,44,1,,,,,,,,,,,,,,,,,,,,space,0.733,,,,,,,,,,,,,,,,,,,,,,,,,,,,,,,,,,,,,,,,,,,,,,,,,,,,,,,,,,,,
,,,,575325,001,2023-09-28_17h34.36.044,fluency,2022.2.5,MacIntel,58.82352941,,,,,,,,,,,,,,,,,,,,,,,6,6,img/B06_06.jpg,MF,Press J if the face is FEMALE and K if the face is MALE, ,KJ,,,,,,,,,,,,,,,,,,,,,,,,,,,,,,,,,,,,,,,,,,,,,,652.055,0,94,94,61,1,109,0,0,0,0,1,98,,,,,,,,,,,,,,,,,,,,,,,,,,,,,,,,,,,,,,,,,,,,,,,,,,,,,,,,,,,,,,,,,,,,,,,,,,
,,,,575325,001,2023-09-28_17h34.36.044,fluency,2022.2.5,MacIntel,58.82352941,,,,,,,,,,,,,,,,,,,,,,,,,,,,,,,,,,,,,,,,,,,,,,,,,,,,,,,,,,,,,,,,,,,,,,,,,,,,,,,,,,0,0,0,0,1,,"[""k""]",1,"[""k""]",,,,,,,,[0.87600000000009],[0.87600000000009],,,,,,,,,,,,,,,,,,,,,,,,,,,,,,,,,,,,,,,,,,,,,,,,,,,,,,,,,,,,,,
