idTextbox.text,welcomeDone.numClicks,welcomeDone.timesOn,welcomeDone.timesOff,participant,session,date,expName,psychopyVersion,OS,frameRate,consent_advance.keys,consent_advance.rt,consent_advance_2.keys,consent_advance_2.rt,consentClick.x,consentClick.y,consentClick.leftButton,consentClick.midButton,consentClick.rightButton,consentClick.time,consentClick.clicked_name,instr_advance_3.keys,instr_advance_3.rt,spec_instr_adv.keys,spec_instr_adv.rt,spec_instr_adv2.keys,spec_instr_adv2.rt,instrLoop.thisRepN,instrLoop.thisTrialN,instrLoop.thisN,instrLoop.thisIndex,instrLoop.ran,steps,fams,face_file,cond,instr,term,key_map,attnKeyResp1.keys,attnKeyResp1.rt,q1.thisRepN,q1.thisTrialN,q1.thisN,q1.thisIndex,q1.ran,attnKeyResp2.keys,attnKeyResp2.rt,q2.thisRepN,q2.thisTrialN,q2.thisN,q2.thisIndex,q2.ran,attnKeyResp3.keys,attnKeyResp3.rt,q3.thisRepN,q3.thisTrialN,q3.thisN,q3.thisIndex,q3.ran,practiceStart.keys,practiceStart.rt,practiceResp.keys,timesRedone,redo_keypress.keys,redo_keypress.rt,practiceFailed.thisRepN,practiceFailed.thisTrialN,practiceFailed.thisN,practiceFailed.thisIndex,practiceFailed.ran,practiceRepeat.thisRepN,practiceRepeat.thisTrialN,practiceRepeat.thisN,practiceRepeat.thisIndex,practiceRepeat.ran,practiceResp.rt,attrRating.keys,attrRating.rt,practiceTrial.thisRepN,practiceTrial.thisTrialN,practiceTrial.thisN,practiceTrial.thisIndex,practiceTrial.ran,key_resp_3.keys,key_resp_3.rt,attnChecker.thisRepN,attnChecker.thisTrialN,attnChecker.thisN,attnChecker.thisIndex,attnChecker.ran,faceOnsetTime,trials.thisRepN,trials.thisTrialN,trials.thisN,trials.thisIndex,trials.ran,trials.order,repeat_loop.thisRepN,repeat_loop.thisTrialN,repeat_loop.thisN,repeat_loop.thisIndex,repeat_loop.ran,repeat_loop.order,catResp.keys,catResp.rt,globalTimesRedone,catAllKeys.keys,catAllKeys.rt,contResp.keys,contResp.rt,contResp_2.keys,contResp_2.rt,respQ1.response,respQ1.rt,respQ2.response,respQ2.rt,respQ3.response,respQ3.rt,respQ4.response,respQ4.rt,surveyContinue1.numClicks,surveyContinue1.timesOn,surveyContinue1.timesOff,respQ5.response,respQ5.rt,respQ6.response,respQ6.rt,respQ7.response,respQ7.rt,respQ8.response,respQ8.rt,surveyContinue2.numClicks,surveyContinue2.timesOn,surveyContinue2.timesOff,respQ9.response,respQ9.rt,respQ10.response,respQ10.rt,respQ11.response,respQ11.rt,respQ12.response,respQ12.rt,surveyContinue3.numClicks,surveyContinue3.timesOn,surveyContinue3.timesOff,respQ13.response,respQ13.rt,respQ14.response,respQ14.rt,respQ15.response,respQ15.rt,surveyContinue4.numClicks,surveyContinue4.timesOn,surveyContinue4.timesOff,respAge.response,respAge.rt,genderResp1.response,genderResp1.rt,genderResp2.text,demogexitClick.numClicks,demogexitClick.timesOn,demogexitClick.timesOff,textbox.text,openAnswerClick.numClicks,openAnswerClick.timesOn,openAnswerClick.timesOff,debriefEnd.keys,debriefEnd.rt,exitKey.keys,exitKey.rt
611cd490foe1e50e4a82f729,1,[130.40870000000297],[130.40880000001192],930683,001,2023-10-10_01h54.00.856,fluency,2022.2.4,Win32,60.0132029,,,,,,,,,,,,,,,,,,,,,,,,,,,,,,,,,,,,,,,,,,,,,,,,,,,,,,,,,,,,,,,,,,,,,,,,,,,,,,,,,,,,,,,,,,,,,,,,,,,,,,,,,,,,,,,,,,,,,,,,,,,,,,,,,,,,,,,,,,,,,,,,,,,,,,,,,,,,,,,,,
,,,,930683,001,2023-10-10_01h54.00.856,fluency,2022.2.4,Win32,60.0132029,space,11.7824,,,,,,,,,,,,,,,,,,,,,,,,,,,,,,,,,,,,,,,,,,,,,,,,,,,,,,,,,,,,,,,,,,,,,,,,,,,,,,,,,,,,,,,,,,,,,,,,,,,,,,,,,,,,,,,,,,,,,,,,,,,,,,,,,,,,,,,,,,,,,,,,,,,,,,,,,,,,,,,
,,,,930683,001,2023-10-10_01h54.00.856,fluency,2022.2.4,Win32,60.0132029,,,space,19.5996,,,,,,,,,,,,,,,,,,,,,,,,,,,,,,,,,,,,,,,,,,,,,,,,,,,,,,,,,,,,,,,,,,,,,,,,,,,,,,,,,,,,,,,,,,,,,,,,,,,,,,,,,,,,,,,,,,,,,,,,,,,,,,,,,,,,,,,,,,,,,,,,,,,,,,,,,,,,,
,,,,930683,001,2023-10-10_01h54.00.856,fluency,2022.2.4,Win32,60.0132029,,,,,0.279947917,-0.334635417,1,0,0,10.2779,iAgree,,,,,,,,,,,,,,,,,,,,,,,,,,,,,,,,,,,,,,,,,,,,,,,,,,,,,,,,,,,,,,,,,,,,,,,,,,,,,,,,,,,,,,,,,,,,,,,,,,,,,,,,,,,,,,,,,,,,,,,,,,,,,,,,,,,,,,,,,,,,,,,,,,,,,,
,,,,930683,001,2023-10-10_01h54.00.856,fluency,2022.2.4,Win32,60.0132029,,,,,,,,,,,,space,19.6876,,,,,,,,,,,,,,,,,,,,,,,,,,,,,,,,,,,,,,,,,,,,,,,,,,,,,,,,,,,,,,,,,,,,,,,,,,,,,,,,,,,,,,,,,,,,,,,,,,,,,,,,,,,,,,,,,,,,,,,,,,,,,,,,,,,,,,,,,,,,,,,,,,,,
,,,,930683,001,2023-10-10_01h54.00.856,fluency,2022.2.4,Win32,60.0132029,,,,,,,,,,,,,,space,86.0835,space,15.5896,0,0,0,107,1,8,10,img/B10_08.jpg,BLEND,Press J if the face is a BLEND and K if the face is a NON-BLEND,A blend is a computer-generated image created by combining together multiple photos of real human faces. A non-blend is a regular photo of a human face.,JK,,,,,,,,,,,,,,,,,,,,,,,,,,,,,,,,,,,,,,,,,,,,,,,,,,,,,,,,,,,,,,,,,,,,,,,,,,,,,,,,,,,,,,,,,,,,,,,,,,,,,,,,,,,,,,,,,,,,,,,,,,,,,,,,,,,,
,,,,930683,001,2023-10-10_01h54.00.856,fluency,2022.2.4,Win32,60.0132029,,,,,,,,,,,,,,,,,,,,,,,,,,,,,,c,8.3078,0,0,0,0,1,,,,,,,,,,,,,,,,,,,,,,,,,,,,,,,,,,,,,,,,,,,,,,,,,,,,,,,,,,,,,,,,,,,,,,,,,,,,,,,,,,,,,,,,,,,,,,,,,,,,,,,,,,,,,,,,,,,,,,,,,,,,,
,,,,930683,001,2023-10-10_01h54.00.856,fluency,2022.2.4,Win32,60.0132029,,,,,,,,,,,,,,,,,,,,,,,,,,,,,,,,,,,,,a,19.2773,0,0,0,0,1,,,,,,,,,,,,,,,,,,,,,,,,,,,,,,,,,,,,,,,,,,,,,,,,,,,,,,,,,,,,,,,,,,,,,,,,,,,,,,,,,,,,,,,,,,,,,,,,,,,,,,,,,,,,,,,,,,,,,,
,,,,930683,001,2023-10-10_01h54.00.856,fluency,2022.2.4,Win32,60.0132029,,,,,,,,,,,,,,,,,,,,,,,,,,,,,,,,,,,,,,,,,,,,c,11.5808,0,0,0,0,1,,,,,,,,,,,,,,,,,,,,,,,,,,,,,,,,,,,,,,,,,,,,,,,,,,,,,,,,,,,,,,,,,,,,,,,,,,,,,,,,,,,,,,,,,,,,,,,,,,,,,,,,,,,,,,,
,,,,930683,001,2023-10-10_01h54.00.856,fluency,2022.2.4,Win32,60.0132029,,,,,,,,,,,,,,,,,,,,,,,,,,,,,,,,,,,,,,,,,,,,,,,,,,,space,1.6041,,1,space,12.0057,0,0,0,0,1,,,,,,,,,,,,,,,,,,,,,,,,,,,,,,,,,,,,,,,,,,,,,,,,,,,,,,,,,,,,,,,,,,,,,,,,,,,,,,,,,,,,,,,,,,,,,,,,,,,,
,,,,930683,001,2023-10-10_01h54.00.856,fluency,2022.2.4,Win32,60.0132029,,,,,,,,,,,,,,,,,,,,,,,,,,,,,,,,,,,,,,,,,,,,,,,,,,,,,,,,,,,,,,0,0,0,0,1,,,,,,,,,,,,,,,,,,,,,,,,,,,,,,,,,,,,,,,,,,,,,,,,,,,,,,,,,,,,,,,,,,,,,,,,,,,,,,,,,,,,,,,,,,,,,,,
,,,,930683,001,2023-10-10_01h54.00.856,fluency,2022.2.4,Win32,60.0132029,,,,,,,,,,,,,,,,,,,,,,,,,,,,,,,,,,,,,,,,,,,,,,,,,,,,,k,1,,,,,,,,1,0,1,0,1,0.7181,,,,,,,,,,,,,,,,,,,,,,,,,,,,,,,,,,,,,,,,,,,,,,,,,,,,,,,,,,,,,,,,,,,,,,,,,,,,,,,,,,,,,,,,,,,,,,
,,,,930683,001,2023-10-10_01h54.00.856,fluency,2022.2.4,Win32,60.0132029,,,,,,,,,,,,,,,,,,,,,,,,,,,,,,,,,,,,,,,,,,,,,,,,,,,,,,,,,,,,,,,,,,,,5,7.7266,0,0,0,0,1,,,,,,,,,,,,,,,,,,,,,,,,,,,,,,,,,,,,,,,,,,,,,,,,,,,,,,,,,,,,,,,,,,,,,,,,,,,,,,,,,,,,,,,
,,,,930683,001,2023-10-10_01h54.00.856,fluency,2022.2.4,Win32,60.0132029,,,,,,,,,,,,,,,,,,,,,,,,,,,,,,,,,,,,,,,,,,,,,,,,,,,,,,,,,,,,,,,,,,,,,,,,,,,space,9.4218,0,0,0,0,1,,,,,,,,,,,,,,,,,,,,,,,,,,,,,,,,,,,,,,,,,,,,,,,,,,,,,,,,,,,,,,,,,,,,,,,,,,,,,,,,
,,,,930683,001,2023-10-10_01h54.00.856,fluency,2022.2.4,Win32,60.0132029,,,,,,,,,,,,,,,,,,,,,,,10,4,img/B04_10.jpg,BLEND,Press J if the face is a BLEND and K if the face is a NON-BLEND,A blend is a computer-generated image created by combining together multiple photos of real human faces. A non-blend is a regular photo of a human face.,JK,,,,,,,,,,,,,,,,,,,,,,,,,,,,,,,,,,,,,,,,,,,,,,,,,,,,,393.4711,0,0,0,43,1,109,0,0,0,0,1,98,,,,,,,,,,,,,,,,,,,,,,,,,,,,,,,,,,,,,,,,,,,,,,,,,,,,,,,,,,,,,,,,,,,
,,,,930683,001,2023-10-10_01h54.00.856,fluency,2022.2.4,Win32,60.0132029,,,,,,,,,,,,,,,,,,,,,,,,,,,,,,,,,,,,,,,,,,,,,,,,,,,,,,,,,,,,,,,,,,,,,,,,,,,,,,,,,,,,,,,,,0,0,0,0,1,,"[""j""]",[1.1759000000059245],1,"[""j""]",[1.1759999999999877],,,,,,,,,,,,,,,,,,,,,,,,,,,,,,,,,,,,,,,,,,,,,,,,,,,,,,,,,,,,,,
,,,,930683,001,2023-10-10_01h54.00.856,fluency,2022.2.4,Win32,60.0132029,,,,,,,,,,,,,,,,,,,,,,,10,4,img/B04_10.jpg,BLEND,Press J if the face is a BLEND and K if the face is a NON-BLEND,A blend is a computer-generated image created by combining together multiple photos of real human faces. A non-blend is a regular photo of a human face.,JK,,,,,,,,,,,,,,,,,,,,,,,,,,,,,,,,,,,,,,,2,2.3098,,,,,,,,,,,,,,0,0,0,43,1,,,,,,,,,,,,,space,7.706,,,,,,,,,,,,,,,,,,,,,,,,,,,,,,,,,,,,,,,,,,,,,,,,,,,,,,,,,,,,
,,,,930683,001,2023-10-10_01h54.00.856,fluency,2022.2.4,Win32,60.0132029,,,,,,,,,,,,,,,,,,,,,,,4,8,img/B08_04.jpg,BLEND,Press J if the face is a BLEND and K if the face is a NON-BLEND,A blend is a computer-generated image created by combining together multiple photos of real human faces. A non-blend is a regular photo of a human face.,JK,,,,,,,,,,,,,,,,,,,,,,,,,,,,,,,,,,,,,,,,,,,,,,,,,,,,,407.6193,0,1,1,81,1,109,0,0,0,0,1,98,,,,,,,,,,,,,,,,,,,,,,,,,,,,,,,,,,,,,,,,,,,,,,,,,,,,,,,,,,,,,,,,,,,
,,,,930683,001,2023-10-10_01h54.00.856,fluency,2022.2.4,Win32,60.0132029,,,,,,,,,,,,,,,,,,,,,,,,,,,,,,,,,,,,,,,,,,,,,,,,,,,,,,,,,,,,,,,,,,,,,,,,,,,,,,,,,,,,,,,,,0,0,0,0,1,,"[""j""]",[1.4022999999970125],1,"[""j""]",[1.4020000000000437],,,,,,,,,,,,,,,,,,,,,,,,,,,,,,,,,,,,,,,,,,,,,,,,,,,,,,,,,,,,,,
,,,,930683,001,2023-10-10_01h54.00.856,fluency,2022.2.4,Win32,60.0132029,,,,,,,,,,,,,,,,,,,,,,,4,8,img/B08_04.jpg,BLEND,Press J if the face is a BLEND and K if the face is a NON-BLEND,A blend is a computer-generated image created by combining together multiple photos of real human faces. A non-blend is a regular photo of a human face.,JK,,,,,,,,,,,,,,,,,,,,,,,,,,,,,,,,,,,,,,,4,2.1328,,,,,,,,,,,,,,0,1,1,81,1,,,,,,,,,,,,,space,1.705,,,,,,,,,,,,,,,,,,,,,,,,,,,,,,,,,,,,,,,,,,,,,,,,,,,,,,,,,,,,
,,,,930683,001,2023-10-10_01h54.00.856,fluency,2022.2.4,Win32,60.0132029,,,,,,,,,,,,,,,,,,,,,,,8,3,img/B03_08.jpg,BLEND,Press J if the face is a BLEND and K if the face is a NON-BLEND,A blend is a computer-generated image created by combining together multiple photos of real human faces. A non-blend is a regular photo of a human face.,JK,,,,,,,,,,,,,,,,,,,,,,,,,,,,,,,,,,,,,,,,,,,,,,,,,,,,,416.5525,0,2,2,30,1,109,0,0,0,0,1,98,,,,,,,,,,,,,,,,,,,,,,,,,,,,,,,,,,,,,,,,,,,,,,,,,,,,,,,,,,,,,,,,,,,
,,,,930683,001,2023-10-10_01h54.00.856,fluency,2022.2.4,Win32,60.0132029,,,,,,,,,,,,,,,,,,,,,,,,,,,,,,,,,,,,,,,,,,,,,,,,,,,,,,,,,,,,,,,,,,,,,,,,,,,,,,,,,,,,,,,,,0,0,0,0,1,,"[""k""]",[1.614500000000021],1,"[""k""]",[1.6143000000118946],,,,,,,,,,,,,,,,,,,,,,,,,,,,,,,,,,,,,,,,,,,,,,,,,,,,,,,,,,,,,,
,,,,930683,001,2023-10-10_01h54.00.856,fluency,2022.2.4,Win32,60.0132029,,,,,,,,,,,,,,,,,,,,,,,8,3,img/B03_08.jpg,BLEND,Press J if the face is a BLEND and K if the face is a NON-BLEND,A blend is a computer-generated image created by combining together multiple photos of real human faces. A non-blend is a regular photo of a human face.,JK,,,,,,,,,,,,,,,,,,,,,,,,,,,,,,,,,,,,,,,4,1.7571,,,,,,,,,,,,,,0,2,2,30,1,,,,,,,,,,,,,space,1.4678,,,,,,,,,,,,,,,,,,,,,,,,,,,,,,,,,,,,,,,,,,,,,,,,,,,,,,,,,,,,
,,,,930683,001,2023-10-10_01h54.00.856,fluency,2022.2.4,Win32,60.0132029,,,,,,,,,,,,,,,,,,,,,,,5,10,img/B10_05.jpg,BLEND,Press J if the face is a BLEND and K if the face is a NON-BLEND,A blend is a computer-generated image created by combining together multiple photos of real human faces. A non-blend is a regular photo of a human face.,JK,,,,,,,,,,,,,,,,,,,,,,,,,,,,,,,,,,,,,,,,,,,,,,,,,,,,,423.8734,0,3,3,104,1,109,0,0,0,0,1,98,,,,,,,,,,,,,,,,,,,,,,,,,,,,,,,,,,,,,,,,,,,,,,,,,,,,,,,,,,,,,,,,,,,
,,,,930683,001,2023-10-10_01h54.00.856,fluency,2022.2.4,Win32,60.0132029,,,,,,,,,,,,,,,,,,,,,,,,,,,,,,,,,,,,,,,,,,,,,,,,,,,,,,,,,,,,,,,,,,,,,,,,,,,,,,,,,,,,,,,,,0,0,0,0,1,,"[""j""]",[1.114500000000021],1,"[""j""]",[1.1142999999970584],,,,,,,,,,,,,,,,,,,,,,,,,,,,,,,,,,,,,,,,,,,,,,,,,,,,,,,,,,,,,,
,,,,930683,001,2023-10-10_01h54.00.856,fluency,2022.2.4,Win32,60.0132029,,,,,,,,,,,,,,,,,,,,,,,5,10,img/B10_05.jpg,BLEND,Press J if the face is a BLEND and K if the face is a NON-BLEND,A blend is a computer-generated image created by combining together multiple photos of real human faces. A non-blend is a regular photo of a human face.,JK,,,,,,,,,,,,,,,,,,,,,,,,,,,,,,,,,,,,,,,3,2.0183,,,,,,,,,,,,,,0,3,3,104,1,,,,,,,,,,,,,space,1.2665,,,,,,,,,,,,,,,,,,,,,,,,,,,,,,,,,,,,,,,,,,,,,,,,,,,,,,,,,,,,
,,,,930683,001,2023-10-10_01h54.00.856,fluency,2022.2.4,Win32,60.0132029,,,,,,,,,,,,,,,,,,,,,,,8,5,img/B05_08.jpg,BLEND,Press J if the face is a BLEND and K if the face is a NON-BLEND,A blend is a computer-generated image created by combining together multiple photos of real human faces. A non-blend is a regular photo of a human face.,JK,,,,,,,,,,,,,,,,,,,,,,,,,,,,,,,,,,,,,,,,,,,,,,,,,,,,,432.2561,0,4,4,52,1,109,0,0,0,0,1,98,,,,,,,,,,,,,,,,,,,,,,,,,,,,,,,,,,,,,,,,,,,,,,,,,,,,,,,,,,,,,,,,,,,
,,,,930683,001,2023-10-10_01h54.00.856,fluency,2022.2.4,Win32,60.0132029,,,,,,,,,,,,,,,,,,,,,,,,,,,,,,,,,,,,,,,,,,,,,,,,,,,,,,,,,,,,,,,,,,,,,,,,,,,,,,,,,,,,,,,,,0,0,0,0,1,,"[""k""]",[0.8012999999970134],1,"[""k""]",[0.8012000000029502],,,,,,,,,,,,,,,,,,,,,,,,,,,,,,,,,,,,,,,,,,,,,,,,,,,,,,,,,,,,,,
,,,,930683,001,2023-10-10_01h54.00.856,fluency,2022.2.4,Win32,60.0132029,,,,,,,,,,,,,,,,,,,,,,,8,5,img/B05_08.jpg,BLEND,Press J if the face is a BLEND and K if the face is a NON-BLEND,A blend is a computer-generated image created by combining together multiple photos of real human faces. A non-blend is a regular photo of a human face.,JK,,,,,,,,,,,,,,,,,,,,,,,,,,,,,,,,,,,,,,,5,1.8249,,,,,,,,,,,,,,0,4,4,52,1,,,,,,,,,,,,,space,1.947,,,,,,,,,,,,,,,,,,,,,,,,,,,,,,,,,,,,,,,,,,,,,,,,,,,,,,,,,,,,
,,,,930683,001,2023-10-10_01h54.00.856,fluency,2022.2.4,Win32,60.0132029,,,,,,,,,,,,,,,,,,,,,,,4,3,img/B03_04.jpg,BLEND,Press J if the face is a BLEND and K if the face is a NON-BLEND,A blend is a computer-generated image created by combining together multiple photos of real human faces. A non-blend is a regular photo of a human face.,JK,,,,,,,,,,,,,,,,,,,,,,,,,,,,,,,,,,,,,,,,,,,,,,,,,,,,,440.1215,0,5,5,26,1,109,0,0,0,0,1,98,,,,,,,,,,,,,,,,,,,,,,,,,,,,,,,,,,,,,,,,,,,,,,,,,,,,,,,,,,,,,,,,,,,
,,,,930683,001,2023-10-10_01h54.00.856,fluency,2022.2.4,Win32,60.0132029,,,,,,,,,,,,,,,,,,,,,,,,,,,,,,,,,,,,,,,,,,,,,,,,,,,,,,,,,,,,,,,,,,,,,,,,,,,,,,,,,,,,,,,,,0,0,0,0,1,,"[""j""]",[1.1269999999999527],1,"[""j""]",[1.1269000000059464],,,,,,,,,,,,,,,,,,,,,,,,,,,,,,,,,,,,,,,,,,,,,,,,,,,,,,,,,,,,,,
,,,,930683,001,2023-10-10_01h54.00.856,fluency,2022.2.4,Win32,60.0132029,,,,,,,,,,,,,,,,,,,,,,,4,3,img/B03_04.jpg,BLEND,Press J if the face is a BLEND and K if the face is a NON-BLEND,A blend is a computer-generated image created by combining together multiple photos of real human faces. A non-blend is a regular photo of a human face.,JK,,,,,,,,,,,,,,,,,,,,,,,,,,,,,,,,,,,,,,,2,1.0943,,,,,,,,,,,,,,0,5,5,26,1,,,,,,,,,,,,,space,1.2014,,,,,,,,,,,,,,,,,,,,,,,,,,,,,,,,,,,,,,,,,,,,,,,,,,,,,,,,,,,,
,,,,930683,001,2023-10-10_01h54.00.856,fluency,2022.2.4,Win32,60.0132029,,,,,,,,,,,,,,,,,,,,,,,0,10,img/B10_00.jpg,BLEND,Press J if the face is a BLEND and K if the face is a NON-BLEND,A blend is a computer-generated image created by combining together multiple photos of real human faces. A non-blend is a regular photo of a human face.,JK,,,,,,,,,,,,,,,,,,,,,,,,,,,,,,,,,,,,,,,,,,,,,,,,,,,,,446.5164,0,6,6,99,1,109,0,0,0,0,1,98,,,,,,,,,,,,,,,,,,,,,,,,,,,,,,,,,,,,,,,,,,,,,,,,,,,,,,,,,,,,,,,,,,,
,,,,930683,001,2023-10-10_01h54.00.856,fluency,2022.2.4,Win32,60.0132029,,,,,,,,,,,,,,,,,,,,,,,,,,,,,,,,,,,,,,,,,,,,,,,,,,,,,,,,,,,,,,,,,,,,,,,,,,,,,,,,,,,,,,,,,0,0,0,0,1,,"[""j""]",[1.175700000002962],1,"[""j""]",[1.1753999999911002],,,,,,,,,,,,,,,,,,,,,,,,,,,,,,,,,,,,,,,,,,,,,,,,,,,,,,,,,,,,,,
,,,,930683,001,2023-10-10_01h54.00.856,fluency,2022.2.4,Win32,60.0132029,,,,,,,,,,,,,,,,,,,,,,,0,10,img/B10_00.jpg,BLEND,Press J if the face is a BLEND and K if the face is a NON-BLEND,A blend is a computer-generated image created by combining together multiple photos of real human faces. A non-blend is a regular photo of a human face.,JK,,,,,,,,,,,,,,,,,,,,,,,,,,,,,,,,,,,,,,,1,2.3257,,,,,,,,,,,,,,0,6,6,99,1,,,,,,,,,,,,,space,0.8859,,,,,,,,,,,,,,,,,,,,,,,,,,,,,,,,,,,,,,,,,,,,,,,,,,,,,,,,,,,,
,,,,930683,001,2023-10-10_01h54.00.856,fluency,2022.2.4,Win32,60.0132029,,,,,,,,,,,,,,,,,,,,,,,2,2,img/B02_02.jpg,BLEND,Press J if the face is a BLEND and K if the face is a NON-BLEND,A blend is a computer-generated image created by combining together multiple photos of real human faces. A non-blend is a regular photo of a human face.,JK,,,,,,,,,,,,,,,,,,,,,,,,,,,,,,,,,,,,,,,,,,,,,,,,,,,,,453.8213,0,7,7,13,1,109,0,0,0,0,1,98,,,,,,,,,,,,,,,,,,,,,,,,,,,,,,,,,,,,,,,,,,,,,,,,,,,,,,,,,,,,,,,,,,,
,,,,930683,001,2023-10-10_01h54.00.856,fluency,2022.2.4,Win32,60.0132029,,,,,,,,,,,,,,,,,,,,,,,,,,,,,,,,,,,,,,,,,,,,,,,,,,,,,,,,,,,,,,,,,,,,,,,,,,,,,,,,,,,,,,,,,0,0,0,0,1,,"[""j""]",[0.8758000000119637],1,"[""j""]",[0.8755999999940514],,,,,,,,,,,,,,,,,,,,,,,,,,,,,,,,,,,,,,,,,,,,,,,,,,,,,,,,,,,,,,
,,,,930683,001,2023-10-10_01h54.00.856,fluency,2022.2.4,Win32,60.0132029,,,,,,,,,,,,,,,,,,,,,,,2,2,img/B02_02.jpg,BLEND,Press J if the face is a BLEND and K if the face is a NON-BLEND,A blend is a computer-generated image created by combining together multiple photos of real human faces. A non-blend is a regular photo of a human face.,JK,,,,,,,,,,,,,,,,,,,,,,,,,,,,,,,,,,,,,,,2,1.519,,,,,,,,,,,,,,0,7,7,13,1,,,,,,,,,,,,,space,1.7887,,,,,,,,,,,,,,,,,,,,,,,,,,,,,,,,,,,,,,,,,,,,,,,,,,,,,,,,,,,,
,,,,930683,001,2023-10-10_01h54.00.856,fluency,2022.2.4,Win32,60.0132029,,,,,,,,,,,,,,,,,,,,,,,5,8,img/B08_05.jpg,BLEND,Press J if the face is a BLEND and K if the face is a NON-BLEND,A blend is a computer-generated image created by combining together multiple photos of real human faces. A non-blend is a regular photo of a human face.,JK,,,,,,,,,,,,,,,,,,,,,,,,,,,,,,,,,,,,,,,,,,,,,,,,,,,,,461.2325,0,8,8,82,1,109,0,0,0,0,1,98,,,,,,,,,,,,,,,,,,,,,,,,,,,,,,,,,,,,,,,,,,,,,,,,,,,,,,,,,,,,,,,,,,,
,,,,930683,001,2023-10-10_01h54.00.856,fluency,2022.2.4,Win32,60.0132029,,,,,,,,,,,,,,,,,,,,,,,,,,,,,,,,,,,,,,,,,,,,,,,,,,,,,,,,,,,,,,,,,,,,,,,,,,,,,,,,,,,,,,,,,0,0,0,0,1,,"[""k""]",[2.503899999991063],1,"[""k""]",[2.5037999999969998],,,,,,,,,,,,,,,,,,,,,,,,,,,,,,,,,,,,,,,,,,,,,,,,,,,,,,,,,,,,,,
,,,,930683,001,2023-10-10_01h54.00.856,fluency,2022.2.4,Win32,60.0132029,,,,,,,,,,,,,,,,,,,,,,,5,8,img/B08_05.jpg,BLEND,Press J if the face is a BLEND and K if the face is a NON-BLEND,A blend is a computer-generated image created by combining together multiple photos of real human faces. A non-blend is a regular photo of a human face.,JK,,,,,,,,,,,,,,,,,,,,,,,,,,,,,,,,,,,,,,,5,5.9515,,,,,,,,,,,,,,0,8,8,82,1,,,,,,,,,,,,,space,9.0916,,,,,,,,,,,,,,,,,,,,,,,,,,,,,,,,,,,,,,,,,,,,,,,,,,,,,,,,,,,,
,,,,930683,001,2023-10-10_01h54.00.856,fluency,2022.2.4,Win32,60.0132029,,,,,,,,,,,,,,,,,,,,,,,2,5,img/B05_02.jpg,BLEND,Press J if the face is a BLEND and K if the face is a NON-BLEND,A blend is a computer-generated image created by combining together multiple photos of real human faces. A non-blend is a regular photo of a human face.,JK,,,,,,,,,,,,,,,,,,,,,,,,,,,,,,,,,,,,,,,,,,,,,,,,,,,,,480.3861,0,9,9,46,1,109,0,0,0,0,1,98,,,,,,,,,,,,,,,,,,,,,,,,,,,,,,,,,,,,,,,,,,,,,,,,,,,,,,,,,,,,,,,,,,,
,,,,930683,001,2023-10-10_01h54.00.856,fluency,2022.2.4,Win32,60.0132029,,,,,,,,,,,,,,,,,,,,,,,,,,,,,,,,,,,,,,,,,,,,,,,,,,,,,,,,,,,,,,,,,,,,,,,,,,,,,,,,,,,,,,,,,0,0,0,0,1,,"[""k""]",[1.1215000000000828],1,"[""k""]",[1.1212000000028866],,,,,,,,,,,,,,,,,,,,,,,,,,,,,,,,,,,,,,,,,,,,,,,,,,,,,,,,,,,,,,
,,,,930683,001,2023-10-10_01h54.00.856,fluency,2022.2.4,Win32,60.0132029,,,,,,,,,,,,,,,,,,,,,,,2,5,img/B05_02.jpg,BLEND,Press J if the face is a BLEND and K if the face is a NON-BLEND,A blend is a computer-generated image created by combining together multiple photos of real human faces. A non-blend is a regular photo of a human face.,JK,,,,,,,,,,,,,,,,,,,,,,,,,,,,,,,,,,,,,,,2,1.1934,,,,,,,,,,,,,,0,9,9,46,1,,,,,,,,,,,,,space,0.853,,,,,,,,,,,,,,,,,,,,,,,,,,,,,,,,,,,,,,,,,,,,,,,,,,,,,,,,,,,,
,,,,930683,001,2023-10-10_01h54.00.856,fluency,2022.2.4,Win32,60.0132029,,,,,,,,,,,,,,,,,,,,,,,0,9,img/B09_00.jpg,BLEND,Press J if the face is a BLEND and K if the face is a NON-BLEND,A blend is a computer-generated image created by combining together multiple photos of real human faces. A non-blend is a regular photo of a human face.,JK,,,,,,,,,,,,,,,,,,,,,,,,,,,,,,,,,,,,,,,,,,,,,,,,,,,,,486.5005,0,10,10,88,1,109,0,0,0,0,1,98,,,,,,,,,,,,,,,,,,,,,,,,,,,,,,,,,,,,,,,,,,,,,,,,,,,,,,,,,,,,,,,,,,,
,,,,930683,001,2023-10-10_01h54.00.856,fluency,2022.2.4,Win32,60.0132029,,,,,,,,,,,,,,,,,,,,,,,,,,,,,,,,,,,,,,,,,,,,,,,,,,,,,,,,,,,,,,,,,,,,,,,,,,,,,,,,,,,,,,,,,0,0,0,0,1,,"[""k""]",[1.800700000002962],1,"[""k""]",[1.8004999999999427],,,,,,,,,,,,,,,,,,,,,,,,,,,,,,,,,,,,,,,,,,,,,,,,,,,,,,,,,,,,,,
,,,,930683,001,2023-10-10_01h54.00.856,fluency,2022.2.4,Win32,60.0132029,,,,,,,,,,,,,,,,,,,,,,,0,9,img/B09_00.jpg,BLEND,Press J if the face is a BLEND and K if the face is a NON-BLEND,A blend is a computer-generated image created by combining together multiple photos of real human faces. A non-blend is a regular photo of a human face.,JK,,,,,,,,,,,,,,,,,,,,,,,,,,,,,,,,,,,,,,,2,1.841,,,,,,,,,,,,,,0,10,10,88,1,,,,,,,,,,,,,space,1.0665,,,,,,,,,,,,,,,,,,,,,,,,,,,,,,,,,,,,,,,,,,,,,,,,,,,,,,,,,,,,
,,,,930683,001,2023-10-10_01h54.00.856,fluency,2022.2.4,Win32,60.0132029,,,,,,,,,,,,,,,,,,,,,,,1,3,img/B03_01.jpg,BLEND,Press J if the face is a BLEND and K if the face is a NON-BLEND,A blend is a computer-generated image created by combining together multiple photos of real human faces. A non-blend is a regular photo of a human face.,JK,,,,,,,,,,,,,,,,,,,,,,,,,,,,,,,,,,,,,,,,,,,,,,,,,,,,,493.4955,0,11,11,23,1,109,0,0,0,0,1,98,,,,,,,,,,,,,,,,,,,,,,,,,,,,,,,,,,,,,,,,,,,,,,,,,,,,,,,,,,,,,,,,,,,
,,,,930683,001,2023-10-10_01h54.00.856,fluency,2022.2.4,Win32,60.0132029,,,,,,,,,,,,,,,,,,,,,,,,,,,,,,,,,,,,,,,,,,,,,,,,,,,,,,,,,,,,,,,,,,,,,,,,,,,,,,,,,,,,,,,,,0,0,0,0,1,,"[""k""]",[0.13129999999694064],1,"[""k""]",[0.13120000000299115],,,,,,,,,,,,,,,,,,,,,,,,,,,,,,,,,,,,,,,,,,,,,,,,,,,,,,,,,,,,,,
,,,,930683,001,2023-10-10_01h54.00.856,fluency,2022.2.4,Win32,60.0132029,,,,,,,,,,,,,,,,,,,,,,,1,3,img/B03_01.jpg,BLEND,Press J if the face is a BLEND and K if the face is a NON-BLEND,A blend is a computer-generated image created by combining together multiple photos of real human faces. A non-blend is a regular photo of a human face.,JK,,,,,,,,,,,,,,,,,,,,,,,,,,,,,,,,,,,,,,,2,2.3755,,,,,,,,,,,,,,0,11,11,23,1,,,,,,,,,,,,,space,0.7793,,,,,,,,,,,,,,,,,,,,,,,,,,,,,,,,,,,,,,,,,,,,,,,,,,,,,,,,,,,,
,,,,930683,001,2023-10-10_01h54.00.856,fluency,2022.2.4,Win32,60.0132029,,,,,,,,,,,,,,,,,,,,,,,7,9,img/B09_07.jpg,BLEND,Press J if the face is a BLEND and K if the face is a NON-BLEND,A blend is a computer-generated image created by combining together multiple photos of real human faces. A non-blend is a regular photo of a human face.,JK,,,,,,,,,,,,,,,,,,,,,,,,,,,,,,,,,,,,,,,,,,,,,,,,,,,,,500.7516,0,12,12,95,1,109,0,0,0,0,1,98,,,,,,,,,,,,,,,,,,,,,,,,,,,,,,,,,,,,,,,,,,,,,,,,,,,,,,,,,,,,,,,,,,,
,,,,930683,001,2023-10-10_01h54.00.856,fluency,2022.2.4,Win32,60.0132029,,,,,,,,,,,,,,,,,,,,,,,,,,,,,,,,,,,,,,,,,,,,,,,,,,,,,,,,,,,,,,,,,,,,,,,,,,,,,,,,,,,,,,,,,0,0,0,0,1,,"[""k""]",[2.245299999997087],1,"[""k""]",[2.2454999999999927],,,,,,,,,,,,,,,,,,,,,,,,,,,,,,,,,,,,,,,,,,,,,,,,,,,,,,,,,,,,,,
,,,,930683,001,2023-10-10_01h54.00.856,fluency,2022.2.4,Win32,60.0132029,,,,,,,,,,,,,,,,,,,,,,,7,9,img/B09_07.jpg,BLEND,Press J if the face is a BLEND and K if the face is a NON-BLEND,A blend is a computer-generated image created by combining together multiple photos of real human faces. A non-blend is a regular photo of a human face.,JK,,,,,,,,,,,,,,,,,,,,,,,,,,,,,,,,,,,,,,,3,1.4847,,,,,,,,,,,,,,0,12,12,95,1,,,,,,,,,,,,,space,1.3209,,,,,,,,,,,,,,,,,,,,,,,,,,,,,,,,,,,,,,,,,,,,,,,,,,,,,,,,,,,,
,,,,930683,001,2023-10-10_01h54.00.856,fluency,2022.2.4,Win32,60.0132029,,,,,,,,,,,,,,,,,,,,,,,10,5,img/B05_10.jpg,BLEND,Press J if the face is a BLEND and K if the face is a NON-BLEND,A blend is a computer-generated image created by combining together multiple photos of real human faces. A non-blend is a regular photo of a human face.,JK,,,,,,,,,,,,,,,,,,,,,,,,,,,,,,,,,,,,,,,,,,,,,,,,,,,,,508.6459,0,13,13,54,1,109,0,0,0,0,1,98,,,,,,,,,,,,,,,,,,,,,,,,,,,,,,,,,,,,,,,,,,,,,,,,,,,,,,,,,,,,,,,,,,,
,,,,930683,001,2023-10-10_01h54.00.856,fluency,2022.2.4,Win32,60.0132029,,,,,,,,,,,,,,,,,,,,,,,,,,,,,,,,,,,,,,,,,,,,,,,,,,,,,,,,,,,,,,,,,,,,,,,,,,,,,,,,,,,,,,,,,0,0,0,0,1,,"[""k"",""j""]","[2.2874000000059596,2.3059999999999263]",1,"[""k"",""j""]","[2.2874000000059596,2.305900000005863]",,,,,,,,,,,,,,,,,,,,,,,,,,,,,,,,,,,,,,,,,,,,,,,,,,,,,,,,,,,,,,
,,,,930683,001,2023-10-10_01h54.00.856,fluency,2022.2.4,Win32,60.0132029,,,,,,,,,,,,,,,,,,,,,,,10,5,img/B05_10.jpg,BLEND,Press J if the face is a BLEND and K if the face is a NON-BLEND,A blend is a computer-generated image created by combining together multiple photos of real human faces. A non-blend is a regular photo of a human face.,JK,,,,,,,,,,,,,,,,,,,,,,,,,,,,,,,,,,,,,,,3,1.9004,,,,,,,,,,,,,,0,13,13,54,1,,,,,,,,,,,,,space,0.8859,,,,,,,,,,,,,,,,,,,,,,,,,,,,,,,,,,,,,,,,,,,,,,,,,,,,,,,,,,,,
,,,,930683,001,2023-10-10_01h54.00.856,fluency,2022.2.4,Win32,60.0132029,,,,,,,,,,,,,,,,,,,,,,,5,5,img/B05_05.jpg,BLEND,Press J if the face is a BLEND and K if the face is a NON-BLEND,A blend is a computer-generated image created by combining together multiple photos of real human faces. A non-blend is a regular photo of a human face.,JK,,,,,,,,,,,,,,,,,,,,,,,,,,,,,,,,,,,,,,,,,,,,,,,,,,,,,516.5117,0,14,14,49,1,109,0,0,0,0,1,98,,,,,,,,,,,,,,,,,,,,,,,,,,,,,,,,,,,,,,,,,,,,,,,,,,,,,,,,,,,,,,,,,,,
,,,,930683,001,2023-10-10_01h54.00.856,fluency,2022.2.4,Win32,60.0132029,,,,,,,,,,,,,,,,,,,,,,,,,,,,,,,,,,,,,,,,,,,,,,,,,,,,,,,,,,,,,,,,,,,,,,,,,,,,,,,,,,,,,,,,,0,0,0,0,1,,"[""k""]",[2.6742000000029975],1,"[""k""]",[2.6742000000029975],,,,,,,,,,,,,,,,,,,,,,,,,,,,,,,,,,,,,,,,,,,,,,,,,,,,,,,,,,,,,,
,,,,930683,001,2023-10-10_01h54.00.856,fluency,2022.2.4,Win32,60.0132029,,,,,,,,,,,,,,,,,,,,,,,5,5,img/B05_05.jpg,BLEND,Press J if the face is a BLEND and K if the face is a NON-BLEND,A blend is a computer-generated image created by combining together multiple photos of real human faces. A non-blend is a regular photo of a human face.,JK,,,,,,,,,,,,,,,,,,,,,,,,,,,,,,,,,,,,,,,3,1.9938,,,,,,,,,,,,,,0,14,14,49,1,,,,,,,,,,,,,space,0.7668,,,,,,,,,,,,,,,,,,,,,,,,,,,,,,,,,,,,,,,,,,,,,,,,,,,,,,,,,,,,
,,,,930683,001,2023-10-10_01h54.00.856,fluency,2022.2.4,Win32,60.0132029,,,,,,,,,,,,,,,,,,,,,,,7,6,img/B06_07.jpg,BLEND,Press J if the face is a BLEND and K if the face is a NON-BLEND,A blend is a computer-generated image created by combining together multiple photos of real human faces. A non-blend is a regular photo of a human face.,JK,,,,,,,,,,,,,,,,,,,,,,,,,,,,,,,,,,,,,,,,,,,,,,,,,,,,,523.3666,0,15,15,62,1,109,0,0,0,0,1,98,,,,,,,,,,,,,,,,,,,,,,,,,,,,,,,,,,,,,,,,,,,,,,,,,,,,,,,,,,,,,,,,,,,
,,,,930683,001,2023-10-10_01h54.00.856,fluency,2022.2.4,Win32,60.0132029,,,,,,,,,,,,,,,,,,,,,,,,,,,,,,,,,,,,,,,,,,,,,,,,,,,,,,,,,,,,,,,,,,,,,,,,,,,,,,,,,,,,,,,,,0,0,0,0,1,,"[""j""]",[1.614500000000021],1,"[""j""]",[1.614200000003052],,,,,,,,,,,,,,,,,,,,,,,,,,,,,,,,,,,,,,,,,,,,,,,,,,,,,,,,,,,,,,
,,,,930683,001,2023-10-10_01h54.00.856,fluency,2022.2.4,Win32,60.0132029,,,,,,,,,,,,,,,,,,,,,,,7,6,img/B06_07.jpg,BLEND,Press J if the face is a BLEND and K if the face is a NON-BLEND,A blend is a computer-generated image created by combining together multiple photos of real human faces. A non-blend is a regular photo of a human face.,JK,,,,,,,,,,,,,,,,,,,,,,,,,,,,,,,,,,,,,,,4,1.5297,,,,,,,,,,,,,,0,15,15,62,1,,,,,,,,,,,,,space,1.091,,,,,,,,,,,,,,,,,,,,,,,,,,,,,,,,,,,,,,,,,,,,,,,,,,,,,,,,,,,,
,,,,930683,001,2023-10-10_01h54.00.856,fluency,2022.2.4,Win32,60.0132029,,,,,,,,,,,,,,,,,,,,,,,2,6,img/B06_02.jpg,BLEND,Press J if the face is a BLEND and K if the face is a NON-BLEND,A blend is a computer-generated image created by combining together multiple photos of real human faces. A non-blend is a regular photo of a human face.,JK,,,,,,,,,,,,,,,,,,,,,,,,,,,,,,,,,,,,,,,,,,,,,,,,,,,,,531.0992,0,16,16,57,1,109,0,0,0,0,1,98,,,,,,,,,,,,,,,,,,,,,,,,,,,,,,,,,,,,,,,,,,,,,,,,,,,,,,,,,,,,,,,,,,,
,,,,930683,001,2023-10-10_01h54.00.856,fluency,2022.2.4,Win32,60.0132029,,,,,,,,,,,,,,,,,,,,,,,,,,,,,,,,,,,,,,,,,,,,,,,,,,,,,,,,,,,,,,,,,,,,,,,,,,,,,,,,,,,,,,,,,0,0,0,0,1,,"[""k""]",[1.4782999999969206],1,"[""k""]",[1.4782999999970343],,,,,,,,,,,,,,,,,,,,,,,,,,,,,,,,,,,,,,,,,,,,,,,,,,,,,,,,,,,,,,
,,,,930683,001,2023-10-10_01h54.00.856,fluency,2022.2.4,Win32,60.0132029,,,,,,,,,,,,,,,,,,,,,,,2,6,img/B06_02.jpg,BLEND,Press J if the face is a BLEND and K if the face is a NON-BLEND,A blend is a computer-generated image created by combining together multiple photos of real human faces. A non-blend is a regular photo of a human face.,JK,,,,,,,,,,,,,,,,,,,,,,,,,,,,,,,,,,,,,,,3,1.6833,,,,,,,,,,,,,,0,16,16,57,1,,,,,,,,,,,,,space,0.702,,,,,,,,,,,,,,,,,,,,,,,,,,,,,,,,,,,,,,,,,,,,,,,,,,,,,,,,,,,,
,,,,930683,001,2023-10-10_01h54.00.856,fluency,2022.2.4,Win32,60.0132029,,,,,,,,,,,,,,,,,,,,,,,9,3,img/B03_09.jpg,BLEND,Press J if the face is a BLEND and K if the face is a NON-BLEND,A blend is a computer-generated image created by combining together multiple photos of real human faces. A non-blend is a regular photo of a human face.,JK,,,,,,,,,,,,,,,,,,,,,,,,,,,,,,,,,,,,,,,,,,,,,,,,,,,,,537.5771,0,17,17,31,1,109,0,0,0,0,1,98,,,,,,,,,,,,,,,,,,,,,,,,,,,,,,,,,,,,,,,,,,,,,,,,,,,,,,,,,,,,,,,,,,,
,,,,930683,001,2023-10-10_01h54.00.856,fluency,2022.2.4,Win32,60.0132029,,,,,,,,,,,,,,,,,,,,,,,,,,,,,,,,,,,,,,,,,,,,,,,,,,,,,,,,,,,,,,,,,,,,,,,,,,,,,,,,,,,,,,,,,0,0,0,0,1,,"[""j""]",[1.1000000000000227],1,"[""j""]",[1.0997000000029402],,,,,,,,,,,,,,,,,,,,,,,,,,,,,,,,,,,,,,,,,,,,,,,,,,,,,,,,,,,,,,
,,,,930683,001,2023-10-10_01h54.00.856,fluency,2022.2.4,Win32,60.0132029,,,,,,,,,,,,,,,,,,,,,,,9,3,img/B03_09.jpg,BLEND,Press J if the face is a BLEND and K if the face is a NON-BLEND,A blend is a computer-generated image created by combining together multiple photos of real human faces. A non-blend is a regular photo of a human face.,JK,,,,,,,,,,,,,,,,,,,,,,,,,,,,,,,,,,,,,,,2,1.2813,,,,,,,,,,,,,,0,17,17,31,1,,,,,,,,,,,,,space,0.5896,,,,,,,,,,,,,,,,,,,,,,,,,,,,,,,,,,,,,,,,,,,,,,,,,,,,,,,,,,,,
,,,,930683,001,2023-10-10_01h54.00.856,fluency,2022.2.4,Win32,60.0132029,,,,,,,,,,,,,,,,,,,,,,,1,4,img/B04_01.jpg,BLEND,Press J if the face is a BLEND and K if the face is a NON-BLEND,A blend is a computer-generated image created by combining together multiple photos of real human faces. A non-blend is a regular photo of a human face.,JK,,,,,,,,,,,,,,,,,,,,,,,,,,,,,,,,,,,,,,,,,,,,,,,,,,,,,543.5526,0,18,18,34,1,109,0,0,0,0,1,98,,,,,,,,,,,,,,,,,,,,,,,,,,,,,,,,,,,,,,,,,,,,,,,,,,,,,,,,,,,,,,,,,,,
,,,,930683,001,2023-10-10_01h54.00.856,fluency,2022.2.4,Win32,60.0132029,,,,,,,,,,,,,,,,,,,,,,,,,,,,,,,,,,,,,,,,,,,,,,,,,,,,,,,,,,,,,,,,,,,,,,,,,,,,,,,,,,,,,,,,,0,0,0,0,1,,"[""j""]",[1.1105999999939513],1,"[""j""]",[1.1103999999910457],,,,,,,,,,,,,,,,,,,,,,,,,,,,,,,,,,,,,,,,,,,,,,,,,,,,,,,,,,,,,,
,,,,930683,001,2023-10-10_01h54.00.856,fluency,2022.2.4,Win32,60.0132029,,,,,,,,,,,,,,,,,,,,,,,1,4,img/B04_01.jpg,BLEND,Press J if the face is a BLEND and K if the face is a NON-BLEND,A blend is a computer-generated image created by combining together multiple photos of real human faces. A non-blend is a regular photo of a human face.,JK,,,,,,,,,,,,,,,,,,,,,,,,,,,,,,,,,,,,,,,4,0.8787,,,,,,,,,,,,,,0,18,18,34,1,,,,,,,,,,,,,space,0.7877,,,,,,,,,,,,,,,,,,,,,,,,,,,,,,,,,,,,,,,,,,,,,,,,,,,,,,,,,,,,
,,,,930683,001,2023-10-10_01h54.00.856,fluency,2022.2.4,Win32,60.0132029,,,,,,,,,,,,,,,,,,,,,,,5,1,img/B01_05.jpg,BLEND,Press J if the face is a BLEND and K if the face is a NON-BLEND,A blend is a computer-generated image created by combining together multiple photos of real human faces. A non-blend is a regular photo of a human face.,JK,,,,,,,,,,,,,,,,,,,,,,,,,,,,,,,,,,,,,,,,,,,,,,,,,,,,,549.3097,0,19,19,5,1,109,0,0,0,0,1,98,,,,,,,,,,,,,,,,,,,,,,,,,,,,,,,,,,,,,,,,,,,,,,,,,,,,,,,,,,,,,,,,,,,
,,,,930683,001,2023-10-10_01h54.00.856,fluency,2022.2.4,Win32,60.0132029,,,,,,,,,,,,,,,,,,,,,,,,,,,,,,,,,,,,,,,,,,,,,,,,,,,,,,,,,,,,,,,,,,,,,,,,,,,,,,,,,,,,,,,,,0,0,0,0,1,,"[""j""]",[2.0974000000060187],1,"[""j""]",[2.0973000000119555],,,,,,,,,,,,,,,,,,,,,,,,,,,,,,,,,,,,,,,,,,,,,,,,,,,,,,,,,,,,,,
,,,,930683,001,2023-10-10_01h54.00.856,fluency,2022.2.4,Win32,60.0132029,,,,,,,,,,,,,,,,,,,,,,,5,1,img/B01_05.jpg,BLEND,Press J if the face is a BLEND and K if the face is a NON-BLEND,A blend is a computer-generated image created by combining together multiple photos of real human faces. A non-blend is a regular photo of a human face.,JK,,,,,,,,,,,,,,,,,,,,,,,,,,,,,,,,,,,,,,,2,2.0791,,,,,,,,,,,,,,0,19,19,5,1,,,,,,,,,,,,,space,0.7381,,,,,,,,,,,,,,,,,,,,,,,,,,,,,,,,,,,,,,,,,,,,,,,,,,,,,,,,,,,,
,,,,930683,001,2023-10-10_01h54.00.856,fluency,2022.2.4,Win32,60.0132029,,,,,,,,,,,,,,,,,,,,,,,10,10,img/B10_10.jpg,BLEND,Press J if the face is a BLEND and K if the face is a NON-BLEND,A blend is a computer-generated image created by combining together multiple photos of real human faces. A non-blend is a regular photo of a human face.,JK,,,,,,,,,,,,,,,,,,,,,,,,,,,,,,,,,,,,,,,,,,,,,,,,,,,,,557.1976,0,20,20,109,1,109,0,0,0,0,1,98,,,,,,,,,,,,,,,,,,,,,,,,,,,,,,,,,,,,,,,,,,,,,,,,,,,,,,,,,,,,,,,,,,,
,,,,930683,001,2023-10-10_01h54.00.856,fluency,2022.2.4,Win32,60.0132029,,,,,,,,,,,,,,,,,,,,,,,,,,,,,,,,,,,,,,,,,,,,,,,,,,,,,,,,,,,,,,,,,,,,,,,,,,,,,,,,,,,,,,,,,0,0,0,0,1,,"[""j"",""j""]","[0.8106000000088898,1.24350000000004]",1,"[""j"",""j""]","[0.8103000000119209,1.2437000000030594]",,,,,,,,,,,,,,,,,,,,,,,,,,,,,,,,,,,,,,,,,,,,,,,,,,,,,,,,,,,,,,
,,,,930683,001,2023-10-10_01h54.00.856,fluency,2022.2.4,Win32,60.0132029,,,,,,,,,,,,,,,,,,,,,,,10,10,img/B10_10.jpg,BLEND,Press J if the face is a BLEND and K if the face is a NON-BLEND,A blend is a computer-generated image created by combining together multiple photos of real human faces. A non-blend is a regular photo of a human face.,JK,,,,,,,,,,,,,,,,,,,,,,,,,,,,,,,,,,,,,,,1,0.61,,,,,,,,,,,,,,0,20,20,109,1,,,,,,,,,,,,,space,1.0044,,,,,,,,,,,,,,,,,,,,,,,,,,,,,,,,,,,,,,,,,,,,,,,,,,,,,,,,,,,,
,,,,930683,001,2023-10-10_01h54.00.856,fluency,2022.2.4,Win32,60.0132029,,,,,,,,,,,,,,,,,,,,,,,9,7,img/B07_09.jpg,BLEND,Press J if the face is a BLEND and K if the face is a NON-BLEND,A blend is a computer-generated image created by combining together multiple photos of real human faces. A non-blend is a regular photo of a human face.,JK,,,,,,,,,,,,,,,,,,,,,,,,,,,,,,,,,,,,,,,,,,,,,,,,,,,,,562.9091,0,21,21,75,1,109,0,0,0,0,1,98,,,,,,,,,,,,,,,,,,,,,,,,,,,,,,,,,,,,,,,,,,,,,,,,,,,,,,,,,,,,,,,,,,,
,,,,930683,001,2023-10-10_01h54.00.856,fluency,2022.2.4,Win32,60.0132029,,,,,,,,,,,,,,,,,,,,,,,,,,,,,,,,,,,,,,,,,,,,,,,,,,,,,,,,,,,,,,,,,,,,,,,,,,,,,,,,,,,,,,,,,0,0,0,0,1,,"[""k""]",[1.3577000000029784],1,"[""k""]",[1.3573000000118327],,,,,,,,,,,,,,,,,,,,,,,,,,,,,,,,,,,,,,,,,,,,,,,,,,,,,,,,,,,,,,
,,,,930683,001,2023-10-10_01h54.00.856,fluency,2022.2.4,Win32,60.0132029,,,,,,,,,,,,,,,,,,,,,,,9,7,img/B07_09.jpg,BLEND,Press J if the face is a BLEND and K if the face is a NON-BLEND,A blend is a computer-generated image created by combining together multiple photos of real human faces. A non-blend is a regular photo of a human face.,JK,,,,,,,,,,,,,,,,,,,,,,,,,,,,,,,,,,,,,,,2,1.3349,,,,,,,,,,,,,,0,21,21,75,1,,,,,,,,,,,,,space,1.2861,,,,,,,,,,,,,,,,,,,,,,,,,,,,,,,,,,,,,,,,,,,,,,,,,,,,,,,,,,,,
,,,,930683,001,2023-10-10_01h54.00.856,fluency,2022.2.4,Win32,60.0132029,,,,,,,,,,,,,,,,,,,,,,,6,9,img/B09_06.jpg,BLEND,Press J if the face is a BLEND and K if the face is a NON-BLEND,A blend is a computer-generated image created by combining together multiple photos of real human faces. A non-blend is a regular photo of a human face.,JK,,,,,,,,,,,,,,,,,,,,,,,,,,,,,,,,,,,,,,,,,,,,,,,,,,,,,570.5802,0,22,22,94,1,109,0,0,0,0,1,98,,,,,,,,,,,,,,,,,,,,,,,,,,,,,,,,,,,,,,,,,,,,,,,,,,,,,,,,,,,,,,,,,,,
,,,,930683,001,2023-10-10_01h54.00.856,fluency,2022.2.4,Win32,60.0132029,,,,,,,,,,,,,,,,,,,,,,,,,,,,,,,,,,,,,,,,,,,,,,,,,,,,,,,,,,,,,,,,,,,,,,,,,,,,,,,,,,,,,,,,,0,0,0,0,1,,"[""j""]",[1.2100999999940996],1,"[""j""]",[1.2102000000030557],,,,,,,,,,,,,,,,,,,,,,,,,,,,,,,,,,,,,,,,,,,,,,,,,,,,,,,,,,,,,,
,,,,930683,001,2023-10-10_01h54.00.856,fluency,2022.2.4,Win32,60.0132029,,,,,,,,,,,,,,,,,,,,,,,6,9,img/B09_06.jpg,BLEND,Press J if the face is a BLEND and K if the face is a NON-BLEND,A blend is a computer-generated image created by combining together multiple photos of real human faces. A non-blend is a regular photo of a human face.,JK,,,,,,,,,,,,,,,,,,,,,,,,,,,,,,,,,,,,,,,2,1.3341,,,,,,,,,,,,,,0,22,22,94,1,,,,,,,,,,,,,space,0.5693,,,,,,,,,,,,,,,,,,,,,,,,,,,,,,,,,,,,,,,,,,,,,,,,,,,,,,,,,,,,
,,,,930683,001,2023-10-10_01h54.00.856,fluency,2022.2.4,Win32,60.0132029,,,,,,,,,,,,,,,,,,,,,,,10,7,img/B07_10.jpg,BLEND,Press J if the face is a BLEND and K if the face is a NON-BLEND,A blend is a computer-generated image created by combining together multiple photos of real human faces. A non-blend is a regular photo of a human face.,JK,,,,,,,,,,,,,,,,,,,,,,,,,,,,,,,,,,,,,,,,,,,,,,,,,,,,,577.556,0,23,23,76,1,109,0,0,0,0,1,98,,,,,,,,,,,,,,,,,,,,,,,,,,,,,,,,,,,,,,,,,,,,,,,,,,,,,,,,,,,,,,,,,,,
,,,,930683,001,2023-10-10_01h54.00.856,fluency,2022.2.4,Win32,60.0132029,,,,,,,,,,,,,,,,,,,,,,,,,,,,,,,,,,,,,,,,,,,,,,,,,,,,,,,,,,,,,,,,,,,,,,,,,,,,,,,,,,,,,,,,,0,0,0,0,1,,"[""k""]",[1.1682999999969752],1,"[""k""]",[1.1682999999969752],,,,,,,,,,,,,,,,,,,,,,,,,,,,,,,,,,,,,,,,,,,,,,,,,,,,,,,,,,,,,,
,,,,930683,001,2023-10-10_01h54.00.856,fluency,2022.2.4,Win32,60.0132029,,,,,,,,,,,,,,,,,,,,,,,10,7,img/B07_10.jpg,BLEND,Press J if the face is a BLEND and K if the face is a NON-BLEND,A blend is a computer-generated image created by combining together multiple photos of real human faces. A non-blend is a regular photo of a human face.,JK,,,,,,,,,,,,,,,,,,,,,,,,,,,,,,,,,,,,,,,4,1.2266,,,,,,,,,,,,,,0,23,23,76,1,,,,,,,,,,,,,space,0.6357,,,,,,,,,,,,,,,,,,,,,,,,,,,,,,,,,,,,,,,,,,,,,,,,,,,,,,,,,,,,
,,,,930683,001,2023-10-10_01h54.00.856,fluency,2022.2.4,Win32,60.0132029,,,,,,,,,,,,,,,,,,,,,,,8,2,img/B02_08.jpg,BLEND,Press J if the face is a BLEND and K if the face is a NON-BLEND,A blend is a computer-generated image created by combining together multiple photos of real human faces. A non-blend is a regular photo of a human face.,JK,,,,,,,,,,,,,,,,,,,,,,,,,,,,,,,,,,,,,,,,,,,,,,,,,,,,,584.479,0,24,24,19,1,109,0,0,0,0,1,98,,,,,,,,,,,,,,,,,,,,,,,,,,,,,,,,,,,,,,,,,,,,,,,,,,,,,,,,,,,,,,,,,,,
,,,,930683,001,2023-10-10_01h54.00.856,fluency,2022.2.4,Win32,60.0132029,,,,,,,,,,,,,,,,,,,,,,,,,,,,,,,,,,,,,,,,,,,,,,,,,,,,,,,,,,,,,,,,,,,,,,,,,,,,,,,,,,,,,,,,,0,0,0,0,1,,"[""j""]",[1.8963999999911039],1,"[""j""]",[1.8963999999911039],,,,,,,,,,,,,,,,,,,,,,,,,,,,,,,,,,,,,,,,,,,,,,,,,,,,,,,,,,,,,,
,,,,930683,001,2023-10-10_01h54.00.856,fluency,2022.2.4,Win32,60.0132029,,,,,,,,,,,,,,,,,,,,,,,8,2,img/B02_08.jpg,BLEND,Press J if the face is a BLEND and K if the face is a NON-BLEND,A blend is a computer-generated image created by combining together multiple photos of real human faces. A non-blend is a regular photo of a human face.,JK,,,,,,,,,,,,,,,,,,,,,,,,,,,,,,,,,,,,,,,5,1.4148,,,,,,,,,,,,,,0,24,24,19,1,,,,,,,,,,,,,space,0.7376,,,,,,,,,,,,,,,,,,,,,,,,,,,,,,,,,,,,,,,,,,,,,,,,,,,,,,,,,,,,
,,,,930683,001,2023-10-10_01h54.00.856,fluency,2022.2.4,Win32,60.0132029,,,,,,,,,,,,,,,,,,,,,,,4,7,img/B07_04.jpg,BLEND,Press J if the face is a BLEND and K if the face is a NON-BLEND,A blend is a computer-generated image created by combining together multiple photos of real human faces. A non-blend is a regular photo of a human face.,JK,,,,,,,,,,,,,,,,,,,,,,,,,,,,,,,,,,,,,,,,,,,,,,,,,,,,,591.6954,0,25,25,70,1,109,0,0,0,0,1,98,,,,,,,,,,,,,,,,,,,,,,,,,,,,,,,,,,,,,,,,,,,,,,,,,,,,,,,,,,,,,,,,,,,
,,,,930683,001,2023-10-10_01h54.00.856,fluency,2022.2.4,Win32,60.0132029,,,,,,,,,,,,,,,,,,,,,,,,,,,,,,,,,,,,,,,,,,,,,,,,,,,,,,,,,,,,,,,,,,,,,,,,,,,,,,,,,,,,,,,,,0,0,0,0,1,,"[""j""]",[0.9687000000029684],1,"[""j""]",[0.9687000000029684],,,,,,,,,,,,,,,,,,,,,,,,,,,,,,,,,,,,,,,,,,,,,,,,,,,,,,,,,,,,,,
,,,,930683,001,2023-10-10_01h54.00.856,fluency,2022.2.4,Win32,60.0132029,,,,,,,,,,,,,,,,,,,,,,,4,7,img/B07_04.jpg,BLEND,Press J if the face is a BLEND and K if the face is a NON-BLEND,A blend is a computer-generated image created by combining together multiple photos of real human faces. A non-blend is a regular photo of a human face.,JK,,,,,,,,,,,,,,,,,,,,,,,,,,,,,,,,,,,,,,,1,0.7774,,,,,,,,,,,,,,0,25,25,70,1,,,,,,,,,,,,,space,0.8382,,,,,,,,,,,,,,,,,,,,,,,,,,,,,,,,,,,,,,,,,,,,,,,,,,,,,,,,,,,,
,,,,930683,001,2023-10-10_01h54.00.856,fluency,2022.2.4,Win32,60.0132029,,,,,,,,,,,,,,,,,,,,,,,2,9,img/B09_02.jpg,BLEND,Press J if the face is a BLEND and K if the face is a NON-BLEND,A blend is a computer-generated image created by combining together multiple photos of real human faces. A non-blend is a regular photo of a human face.,JK,,,,,,,,,,,,,,,,,,,,,,,,,,,,,,,,,,,,,,,,,,,,,,,,,,,,,597.4066,0,26,26,90,1,109,0,0,0,0,1,98,,,,,,,,,,,,,,,,,,,,,,,,,,,,,,,,,,,,,,,,,,,,,,,,,,,,,,,,,,,,,,,,,,,
,,,,930683,001,2023-10-10_01h54.00.856,fluency,2022.2.4,Win32,60.0132029,,,,,,,,,,,,,,,,,,,,,,,,,,,,,,,,,,,,,,,,,,,,,,,,,,,,,,,,,,,,,,,,,,,,,,,,,,,,,,,,,,,,,,,,,0,0,0,0,1,,"[""k""]",[1.4768999999910193],1,"[""k""]",[1.4768999999910193],,,,,,,,,,,,,,,,,,,,,,,,,,,,,,,,,,,,,,,,,,,,,,,,,,,,,,,,,,,,,,
,,,,930683,001,2023-10-10_01h54.00.856,fluency,2022.2.4,Win32,60.0132029,,,,,,,,,,,,,,,,,,,,,,,2,9,img/B09_02.jpg,BLEND,Press J if the face is a BLEND and K if the face is a NON-BLEND,A blend is a computer-generated image created by combining together multiple photos of real human faces. A non-blend is a regular photo of a human face.,JK,,,,,,,,,,,,,,,,,,,,,,,,,,,,,,,,,,,,,,,2,0.8574,,,,,,,,,,,,,,0,26,26,90,1,,,,,,,,,,,,,space,0.4883,,,,,,,,,,,,,,,,,,,,,,,,,,,,,,,,,,,,,,,,,,,,,,,,,,,,,,,,,,,,
,,,,930683,001,2023-10-10_01h54.00.856,fluency,2022.2.4,Win32,60.0132029,,,,,,,,,,,,,,,,,,,,,,,6,10,img/B10_06.jpg,BLEND,Press J if the face is a BLEND and K if the face is a NON-BLEND,A blend is a computer-generated image created by combining together multiple photos of real human faces. A non-blend is a regular photo of a human face.,JK,,,,,,,,,,,,,,,,,,,,,,,,,,,,,,,,,,,,,,,,,,,,,,,,,,,,,603.8394,0,27,27,105,1,109,0,0,0,0,1,98,,,,,,,,,,,,,,,,,,,,,,,,,,,,,,,,,,,,,,,,,,,,,,,,,,,,,,,,,,,,,,,,,,,
,,,,930683,001,2023-10-10_01h54.00.856,fluency,2022.2.4,Win32,60.0132029,,,,,,,,,,,,,,,,,,,,,,,,,,,,,,,,,,,,,,,,,,,,,,,,,,,,,,,,,,,,,,,,,,,,,,,,,,,,,,,,,,,,,,,,,0,0,0,0,1,,"[""j""]",[0.847399999991012],1,"[""j""]",[0.8471999999879927],,,,,,,,,,,,,,,,,,,,,,,,,,,,,,,,,,,,,,,,,,,,,,,,,,,,,,,,,,,,,,
,,,,930683,001,2023-10-10_01h54.00.856,fluency,2022.2.4,Win32,60.0132029,,,,,,,,,,,,,,,,,,,,,,,6,10,img/B10_06.jpg,BLEND,Press J if the face is a BLEND and K if the face is a NON-BLEND,A blend is a computer-generated image created by combining together multiple photos of real human faces. A non-blend is a regular photo of a human face.,JK,,,,,,,,,,,,,,,,,,,,,,,,,,,,,,,,,,,,,,,1,0.2419,,,,,,,,,,,,,,0,27,27,105,1,,,,,,,,,,,,,space,0.8098,,,,,,,,,,,,,,,,,,,,,,,,,,,,,,,,,,,,,,,,,,,,,,,,,,,,,,,,,,,,
,,,,930683,001,2023-10-10_01h54.00.856,fluency,2022.2.4,Win32,60.0132029,,,,,,,,,,,,,,,,,,,,,,,6,7,img/B07_06.jpg,BLEND,Press J if the face is a BLEND and K if the face is a NON-BLEND,A blend is a computer-generated image created by combining together multiple photos of real human faces. A non-blend is a regular photo of a human face.,JK,,,,,,,,,,,,,,,,,,,,,,,,,,,,,,,,,,,,,,,,,,,,,,,,,,,,,608.9556,0,28,28,72,1,109,0,0,0,0,1,98,,,,,,,,,,,,,,,,,,,,,,,,,,,,,,,,,,,,,,,,,,,,,,,,,,,,,,,,,,,,,,,,,,,
,,,,930683,001,2023-10-10_01h54.00.856,fluency,2022.2.4,Win32,60.0132029,,,,,,,,,,,,,,,,,,,,,,,,,,,,,,,,,,,,,,,,,,,,,,,,,,,,,,,,,,,,,,,,,,,,,,,,,,,,,,,,,,,,,,,,,0,0,0,0,1,,"[""k""]",[0.9550000000000409],1,"[""k""]",[0.9547000000030721],,,,,,,,,,,,,,,,,,,,,,,,,,,,,,,,,,,,,,,,,,,,,,,,,,,,,,,,,,,,,,
,,,,930683,001,2023-10-10_01h54.00.856,fluency,2022.2.4,Win32,60.0132029,,,,,,,,,,,,,,,,,,,,,,,6,7,img/B07_06.jpg,BLEND,Press J if the face is a BLEND and K if the face is a NON-BLEND,A blend is a computer-generated image created by combining together multiple photos of real human faces. A non-blend is a regular photo of a human face.,JK,,,,,,,,,,,,,,,,,,,,,,,,,,,,,,,,,,,,,,,3,0.4784,,,,,,,,,,,,,,0,28,28,72,1,,,,,,,,,,,,,space,0.652,,,,,,,,,,,,,,,,,,,,,,,,,,,,,,,,,,,,,,,,,,,,,,,,,,,,,,,,,,,,
,,,,930683,001,2023-10-10_01h54.00.856,fluency,2022.2.4,Win32,60.0132029,,,,,,,,,,,,,,,,,,,,,,,5,3,img/B03_05.jpg,BLEND,Press J if the face is a BLEND and K if the face is a NON-BLEND,A blend is a computer-generated image created by combining together multiple photos of real human faces. A non-blend is a regular photo of a human face.,JK,,,,,,,,,,,,,,,,,,,,,,,,,,,,,,,,,,,,,,,,,,,,,,,,,,,,,614.1437,0,29,29,27,1,109,0,0,0,0,1,98,,,,,,,,,,,,,,,,,,,,,,,,,,,,,,,,,,,,,,,,,,,,,,,,,,,,,,,,,,,,,,,,,,,
,,,,930683,001,2023-10-10_01h54.00.856,fluency,2022.2.4,Win32,60.0132029,,,,,,,,,,,,,,,,,,,,,,,,,,,,,,,,,,,,,,,,,,,,,,,,,,,,,,,,,,,,,,,,,,,,,,,,,,,,,,,,,,,,,,,,,0,0,0,0,1,,"[""j""]",[1.846599999994055],1,"[""j""]",[1.8464999999999918],,,,,,,,,,,,,,,,,,,,,,,,,,,,,,,,,,,,,,,,,,,,,,,,,,,,,,,,,,,,,,
,,,,930683,001,2023-10-10_01h54.00.856,fluency,2022.2.4,Win32,60.0132029,,,,,,,,,,,,,,,,,,,,,,,5,3,img/B03_05.jpg,BLEND,Press J if the face is a BLEND and K if the face is a NON-BLEND,A blend is a computer-generated image created by combining together multiple photos of real human faces. A non-blend is a regular photo of a human face.,JK,,,,,,,,,,,,,,,,,,,,,,,,,,,,,,,,,,,,,,,2,1.4763,,,,,,,,,,,,,,0,29,29,27,1,,,,,,,,,,,,,space,0.5467,,,,,,,,,,,,,,,,,,,,,,,,,,,,,,,,,,,,,,,,,,,,,,,,,,,,,,,,,,,,
,,,,930683,001,2023-10-10_01h54.00.856,fluency,2022.2.4,Win32,60.0132029,,,,,,,,,,,,,,,,,,,,,,,10,1,img/B01_10.jpg,BLEND,Press J if the face is a BLEND and K if the face is a NON-BLEND,A blend is a computer-generated image created by combining together multiple photos of real human faces. A non-blend is a regular photo of a human face.,JK,,,,,,,,,,,,,,,,,,,,,,,,,,,,,,,,,,,,,,,,,,,,,,,,,,,,,621.2239,0,30,30,10,1,109,0,0,0,0,1,98,,,,,,,,,,,,,,,,,,,,,,,,,,,,,,,,,,,,,,,,,,,,,,,,,,,,,,,,,,,,,,,,,,,
,,,,930683,001,2023-10-10_01h54.00.856,fluency,2022.2.4,Win32,60.0132029,,,,,,,,,,,,,,,,,,,,,,,,,,,,,,,,,,,,,,,,,,,,,,,,,,,,,,,,,,,,,,,,,,,,,,,,,,,,,,,,,,,,,,,,,0,0,0,0,1,,"[""k""]",[1.8027000000030284],1,"[""k""]",[1.8027000000030284],,,,,,,,,,,,,,,,,,,,,,,,,,,,,,,,,,,,,,,,,,,,,,,,,,,,,,,,,,,,,,
,,,,930683,001,2023-10-10_01h54.00.856,fluency,2022.2.4,Win32,60.0132029,,,,,,,,,,,,,,,,,,,,,,,10,1,img/B01_10.jpg,BLEND,Press J if the face is a BLEND and K if the face is a NON-BLEND,A blend is a computer-generated image created by combining together multiple photos of real human faces. A non-blend is a regular photo of a human face.,JK,,,,,,,,,,,,,,,,,,,,,,,,,,,,,,,,,,,,,,,6,1.7532,,,,,,,,,,,,,,0,30,30,10,1,,,,,,,,,,,,,space,0.8305,,,,,,,,,,,,,,,,,,,,,,,,,,,,,,,,,,,,,,,,,,,,,,,,,,,,,,,,,,,,
,,,,930683,001,2023-10-10_01h54.00.856,fluency,2022.2.4,Win32,60.0132029,,,,,,,,,,,,,,,,,,,,,,,0,3,img/B03_00.jpg,BLEND,Press J if the face is a BLEND and K if the face is a NON-BLEND,A blend is a computer-generated image created by combining together multiple photos of real human faces. A non-blend is a regular photo of a human face.,JK,,,,,,,,,,,,,,,,,,,,,,,,,,,,,,,,,,,,,,,,,,,,,,,,,,,,,627.9046,0,31,31,22,1,109,0,0,0,0,1,98,,,,,,,,,,,,,,,,,,,,,,,,,,,,,,,,,,,,,,,,,,,,,,,,,,,,,,,,,,,,,,,,,,,
,,,,930683,001,2023-10-10_01h54.00.856,fluency,2022.2.4,Win32,60.0132029,,,,,,,,,,,,,,,,,,,,,,,,,,,,,,,,,,,,,,,,,,,,,,,,,,,,,,,,,,,,,,,,,,,,,,,,,,,,,,,,,,,,,,,,,0,0,0,0,1,,"[""j""]",[1.2287999999970225],1,"[""j""]",[1.2285000000000537],,,,,,,,,,,,,,,,,,,,,,,,,,,,,,,,,,,,,,,,,,,,,,,,,,,,,,,,,,,,,,
,,,,930683,001,2023-10-10_01h54.00.856,fluency,2022.2.4,Win32,60.0132029,,,,,,,,,,,,,,,,,,,,,,,0,3,img/B03_00.jpg,BLEND,Press J if the face is a BLEND and K if the face is a NON-BLEND,A blend is a computer-generated image created by combining together multiple photos of real human faces. A non-blend is a regular photo of a human face.,JK,,,,,,,,,,,,,,,,,,,,,,,,,,,,,,,,,,,,,,,2,1.6983,,,,,,,,,,,,,,0,31,31,22,1,,,,,,,,,,,,,space,0.5886,,,,,,,,,,,,,,,,,,,,,,,,,,,,,,,,,,,,,,,,,,,,,,,,,,,,,,,,,,,,
,,,,930683,001,2023-10-10_01h54.00.856,fluency,2022.2.4,Win32,60.0132029,,,,,,,,,,,,,,,,,,,,,,,3,8,img/B08_03.jpg,BLEND,Press J if the face is a BLEND and K if the face is a NON-BLEND,A blend is a computer-generated image created by combining together multiple photos of real human faces. A non-blend is a regular photo of a human face.,JK,,,,,,,,,,,,,,,,,,,,,,,,,,,,,,,,,,,,,,,,,,,,,,,,,,,,,634.2878,0,32,32,80,1,109,0,0,0,0,1,98,,,,,,,,,,,,,,,,,,,,,,,,,,,,,,,,,,,,,,,,,,,,,,,,,,,,,,,,,,,,,,,,,,,
,,,,930683,001,2023-10-10_01h54.00.856,fluency,2022.2.4,Win32,60.0132029,,,,,,,,,,,,,,,,,,,,,,,,,,,,,,,,,,,,,,,,,,,,,,,,,,,,,,,,,,,,,,,,,,,,,,,,,,,,,,,,,,,,,,,,,0,0,0,0,1,,"[""j""]",[0.9505999999939831],1,"[""j""]",[0.9505999999939831],,,,,,,,,,,,,,,,,,,,,,,,,,,,,,,,,,,,,,,,,,,,,,,,,,,,,,,,,,,,,,
,,,,930683,001,2023-10-10_01h54.00.856,fluency,2022.2.4,Win32,60.0132029,,,,,,,,,,,,,,,,,,,,,,,3,8,img/B08_03.jpg,BLEND,Press J if the face is a BLEND and K if the face is a NON-BLEND,A blend is a computer-generated image created by combining together multiple photos of real human faces. A non-blend is a regular photo of a human face.,JK,,,,,,,,,,,,,,,,,,,,,,,,,,,,,,,,,,,,,,,3,2.3913,,,,,,,,,,,,,,0,32,32,80,1,,,,,,,,,,,,,space,0.7176,,,,,,,,,,,,,,,,,,,,,,,,,,,,,,,,,,,,,,,,,,,,,,,,,,,,,,,,,,,,
,,,,930683,001,2023-10-10_01h54.00.856,fluency,2022.2.4,Win32,60.0132029,,,,,,,,,,,,,,,,,,,,,,,9,9,img/B09_09.jpg,BLEND,Press J if the face is a BLEND and K if the face is a NON-BLEND,A blend is a computer-generated image created by combining together multiple photos of real human faces. A non-blend is a regular photo of a human face.,JK,,,,,,,,,,,,,,,,,,,,,,,,,,,,,,,,,,,,,,,,,,,,,,,,,,,,,641.4866,0,33,33,97,1,109,0,0,0,0,1,98,,,,,,,,,,,,,,,,,,,,,,,,,,,,,,,,,,,,,,,,,,,,,,,,,,,,,,,,,,,,,,,,,,,
,,,,930683,001,2023-10-10_01h54.00.856,fluency,2022.2.4,Win32,60.0132029,,,,,,,,,,,,,,,,,,,,,,,,,,,,,,,,,,,,,,,,,,,,,,,,,,,,,,,,,,,,,,,,,,,,,,,,,,,,,,,,,,,,,,,,,0,0,0,0,1,,"[""j""]",[0.9641000000090116],1,"[""j""]",[0.9637999999970361],,,,,,,,,,,,,,,,,,,,,,,,,,,,,,,,,,,,,,,,,,,,,,,,,,,,,,,,,,,,,,
,,,,930683,001,2023-10-10_01h54.00.856,fluency,2022.2.4,Win32,60.0132029,,,,,,,,,,,,,,,,,,,,,,,9,9,img/B09_09.jpg,BLEND,Press J if the face is a BLEND and K if the face is a NON-BLEND,A blend is a computer-generated image created by combining together multiple photos of real human faces. A non-blend is a regular photo of a human face.,JK,,,,,,,,,,,,,,,,,,,,,,,,,,,,,,,,,,,,,,,4,1.7309,,,,,,,,,,,,,,0,33,33,97,1,,,,,,,,,,,,,space,1.267,,,,,,,,,,,,,,,,,,,,,,,,,,,,,,,,,,,,,,,,,,,,,,,,,,,,,,,,,,,,
,,,,930683,001,2023-10-10_01h54.00.856,fluency,2022.2.4,Win32,60.0132029,,,,,,,,,,,,,,,,,,,,,,,10,6,img/B06_10.jpg,BLEND,Press J if the face is a BLEND and K if the face is a NON-BLEND,A blend is a computer-generated image created by combining together multiple photos of real human faces. A non-blend is a regular photo of a human face.,JK,,,,,,,,,,,,,,,,,,,,,,,,,,,,,,,,,,,,,,,,,,,,,,,,,,,,,648.5864,0,34,34,65,1,109,0,0,0,0,1,98,,,,,,,,,,,,,,,,,,,,,,,,,,,,,,,,,,,,,,,,,,,,,,,,,,,,,,,,,,,,,,,,,,,
,,,,930683,001,2023-10-10_01h54.00.856,fluency,2022.2.4,Win32,60.0132029,,,,,,,,,,,,,,,,,,,,,,,,,,,,,,,,,,,,,,,,,,,,,,,,,,,,,,,,,,,,,,,,,,,,,,,,,,,,,,,,,,,,,,,,,0,0,0,0,1,,"[""j""]",[1.1072000000029902],1,"[""j""]",[1.107100000008927],,,,,,,,,,,,,,,,,,,,,,,,,,,,,,,,,,,,,,,,,,,,,,,,,,,,,,,,,,,,,,
,,,,930683,001,2023-10-10_01h54.00.856,fluency,2022.2.4,Win32,60.0132029,,,,,,,,,,,,,,,,,,,,,,,10,6,img/B06_10.jpg,BLEND,Press J if the face is a BLEND and K if the face is a NON-BLEND,A blend is a computer-generated image created by combining together multiple photos of real human faces. A non-blend is a regular photo of a human face.,JK,,,,,,,,,,,,,,,,,,,,,,,,,,,,,,,,,,,,,,,5,1.4371,,,,,,,,,,,,,,0,34,34,65,1,,,,,,,,,,,,,space,0.9026,,,,,,,,,,,,,,,,,,,,,,,,,,,,,,,,,,,,,,,,,,,,,,,,,,,,,,,,,,,,
,,,,930683,001,2023-10-10_01h54.00.856,fluency,2022.2.4,Win32,60.0132029,,,,,,,,,,,,,,,,,,,,,,,6,4,img/B04_06.jpg,BLEND,Press J if the face is a BLEND and K if the face is a NON-BLEND,A blend is a computer-generated image created by combining together multiple photos of real human faces. A non-blend is a regular photo of a human face.,JK,,,,,,,,,,,,,,,,,,,,,,,,,,,,,,,,,,,,,,,,,,,,,,,,,,,,,655.9857,0,35,35,39,1,109,0,0,0,0,1,98,,,,,,,,,,,,,,,,,,,,,,,,,,,,,,,,,,,,,,,,,,,,,,,,,,,,,,,,,,,,,,,,,,,
,,,,930683,001,2023-10-10_01h54.00.856,fluency,2022.2.4,Win32,60.0132029,,,,,,,,,,,,,,,,,,,,,,,,,,,,,,,,,,,,,,,,,,,,,,,,,,,,,,,,,,,,,,,,,,,,,,,,,,,,,,,,,,,,,,,,,0,0,0,0,1,,"[""j""]",[0.7880000000000109],1,"[""j""]",[0.7880999999939604],,,,,,,,,,,,,,,,,,,,,,,,,,,,,,,,,,,,,,,,,,,,,,,,,,,,,,,,,,,,,,
,,,,930683,001,2023-10-10_01h54.00.856,fluency,2022.2.4,Win32,60.0132029,,,,,,,,,,,,,,,,,,,,,,,6,4,img/B04_06.jpg,BLEND,Press J if the face is a BLEND and K if the face is a NON-BLEND,A blend is a computer-generated image created by combining together multiple photos of real human faces. A non-blend is a regular photo of a human face.,JK,,,,,,,,,,,,,,,,,,,,,,,,,,,,,,,,,,,,,,,1,1.3137,,,,,,,,,,,,,,0,35,35,39,1,,,,,,,,,,,,,space,0.4699,,,,,,,,,,,,,,,,,,,,,,,,,,,,,,,,,,,,,,,,,,,,,,,,,,,,,,,,,,,,
,,,,930683,001,2023-10-10_01h54.00.856,fluency,2022.2.4,Win32,60.0132029,,,,,,,,,,,,,,,,,,,,,,,7,8,img/B08_07.jpg,BLEND,Press J if the face is a BLEND and K if the face is a NON-BLEND,A blend is a computer-generated image created by combining together multiple photos of real human faces. A non-blend is a regular photo of a human face.,JK,,,,,,,,,,,,,,,,,,,,,,,,,,,,,,,,,,,,,,,,,,,,,,,,,,,,,662.8572,0,36,36,84,1,109,0,0,0,0,1,98,,,,,,,,,,,,,,,,,,,,,,,,,,,,,,,,,,,,,,,,,,,,,,,,,,,,,,,,,,,,,,,,,,,
,,,,930683,001,2023-10-10_01h54.00.856,fluency,2022.2.4,Win32,60.0132029,,,,,,,,,,,,,,,,,,,,,,,,,,,,,,,,,,,,,,,,,,,,,,,,,,,,,,,,,,,,,,,,,,,,,,,,,,,,,,,,,,,,,,,,,0,0,0,0,1,,"[""j""]",[1.0939000000059877],1,"[""j"",""2""]","[1.0938999999910948,2.87600000000009]",,,,,,,,,,,,,,,,,,,,,,,,,,,,,,,,,,,,,,,,,,,,,,,,,,,,,,,,,,,,,,
,,,,930683,001,2023-10-10_01h54.00.856,fluency,2022.2.4,Win32,60.0132029,,,,,,,,,,,,,,,,,,,,,,,7,8,img/B08_07.jpg,BLEND,Press J if the face is a BLEND and K if the face is a NON-BLEND,A blend is a computer-generated image created by combining together multiple photos of real human faces. A non-blend is a regular photo of a human face.,JK,,,,,,,,,,,,,,,,,,,,,,,,,,,,,,,,,,,,,,,2,0.4697,,,,,,,,,,,,,,0,36,36,84,1,,,,,,,,,,,,,space,0.8018,,,,,,,,,,,,,,,,,,,,,,,,,,,,,,,,,,,,,,,,,,,,,,,,,,,,,,,,,,,,
,,,,930683,001,2023-10-10_01h54.00.856,fluency,2022.2.4,Win32,60.0132029,,,,,,,,,,,,,,,,,,,,,,,6,8,img/B08_06.jpg,BLEND,Press J if the face is a BLEND and K if the face is a NON-BLEND,A blend is a computer-generated image created by combining together multiple photos of real human faces. A non-blend is a regular photo of a human face.,JK,,,,,,,,,,,,,,,,,,,,,,,,,,,,,,,,,,,,,,,,,,,,,,,,,,,,,668.1732,0,37,37,83,1,109,0,0,0,0,1,98,,,,,,,,,,,,,,,,,,,,,,,,,,,,,,,,,,,,,,,,,,,,,,,,,,,,,,,,,,,,,,,,,,,
,,,,930683,001,2023-10-10_01h54.00.856,fluency,2022.2.4,Win32,60.0132029,,,,,,,,,,,,,,,,,,,,,,,,,,,,,,,,,,,,,,,,,,,,,,,,,,,,,,,,,,,,,,,,,,,,,,,,,,,,,,,,,,,,,,,,,0,0,0,0,1,,"[""k""]",[1.052000000000021],1,"[""k""]",[1.052000000000021],,,,,,,,,,,,,,,,,,,,,,,,,,,,,,,,,,,,,,,,,,,,,,,,,,,,,,,,,,,,,,
,,,,930683,001,2023-10-10_01h54.00.856,fluency,2022.2.4,Win32,60.0132029,,,,,,,,,,,,,,,,,,,,,,,6,8,img/B08_06.jpg,BLEND,Press J if the face is a BLEND and K if the face is a NON-BLEND,A blend is a computer-generated image created by combining together multiple photos of real human faces. A non-blend is a regular photo of a human face.,JK,,,,,,,,,,,,,,,,,,,,,,,,,,,,,,,,,,,,,,,2,0.3936,,,,,,,,,,,,,,0,37,37,83,1,,,,,,,,,,,,,space,0.6357,,,,,,,,,,,,,,,,,,,,,,,,,,,,,,,,,,,,,,,,,,,,,,,,,,,,,,,,,,,,
,,,,930683,001,2023-10-10_01h54.00.856,fluency,2022.2.4,Win32,60.0132029,,,,,,,,,,,,,,,,,,,,,,,2,10,img/B10_02.jpg,BLEND,Press J if the face is a BLEND and K if the face is a NON-BLEND,A blend is a computer-generated image created by combining together multiple photos of real human faces. A non-blend is a regular photo of a human face.,JK,,,,,,,,,,,,,,,,,,,,,,,,,,,,,,,,,,,,,,,,,,,,,,,,,,,,,674.2544,0,38,38,101,1,109,0,0,0,0,1,98,,,,,,,,,,,,,,,,,,,,,,,,,,,,,,,,,,,,,,,,,,,,,,,,,,,,,,,,,,,,,,,,,,,
,,,,930683,001,2023-10-10_01h54.00.856,fluency,2022.2.4,Win32,60.0132029,,,,,,,,,,,,,,,,,,,,,,,,,,,,,,,,,,,,,,,,,,,,,,,,,,,,,,,,,,,,,,,,,,,,,,,,,,,,,,,,,,,,,,,,,0,0,0,0,1,,"[""j""]",[1.2854000000058932],1,"[""j""]",[1.2853000000119437],,,,,,,,,,,,,,,,,,,,,,,,,,,,,,,,,,,,,,,,,,,,,,,,,,,,,,,,,,,,,,
,,,,930683,001,2023-10-10_01h54.00.856,fluency,2022.2.4,Win32,60.0132029,,,,,,,,,,,,,,,,,,,,,,,2,10,img/B10_02.jpg,BLEND,Press J if the face is a BLEND and K if the face is a NON-BLEND,A blend is a computer-generated image created by combining together multiple photos of real human faces. A non-blend is a regular photo of a human face.,JK,,,,,,,,,,,,,,,,,,,,,,,,,,,,,,,,,,,,,,,2,0.3557,,,,,,,,,,,,,,0,38,38,101,1,,,,,,,,,,,,,space,4.1491,,,,,,,,,,,,,,,,,,,,,,,,,,,,,,,,,,,,,,,,,,,,,,,,,,,,,,,,,,,,
,,,,930683,001,2023-10-10_01h54.00.856,fluency,2022.2.4,Win32,60.0132029,,,,,,,,,,,,,,,,,,,,,,,8,6,img/B06_08.jpg,BLEND,Press J if the face is a BLEND and K if the face is a NON-BLEND,A blend is a computer-generated image created by combining together multiple photos of real human faces. A non-blend is a regular photo of a human face.,JK,,,,,,,,,,,,,,,,,,,,,,,,,,,,,,,,,,,,,,,,,,,,,,,,,,,,,682.889,0,39,39,63,1,109,0,0,0,0,1,98,,,,,,,,,,,,,,,,,,,,,,,,,,,,,,,,,,,,,,,,,,,,,,,,,,,,,,,,,,,,,,,,,,,
,,,,930683,001,2023-10-10_01h54.00.856,fluency,2022.2.4,Win32,60.0132029,,,,,,,,,,,,,,,,,,,,,,,,,,,,,,,,,,,,,,,,,,,,,,,,,,,,,,,,,,,,,,,,,,,,,,,,,,,,,,,,,,,,,,,,,0,0,0,0,1,,"[""k""]",[1.091700000002902],1,"[""k""]",[1.0914999999999964],,,,,,,,,,,,,,,,,,,,,,,,,,,,,,,,,,,,,,,,,,,,,,,,,,,,,,,,,,,,,,
,,,,930683,001,2023-10-10_01h54.00.856,fluency,2022.2.4,Win32,60.0132029,,,,,,,,,,,,,,,,,,,,,,,8,6,img/B06_08.jpg,BLEND,Press J if the face is a BLEND and K if the face is a NON-BLEND,A blend is a computer-generated image created by combining together multiple photos of real human faces. A non-blend is a regular photo of a human face.,JK,,,,,,,,,,,,,,,,,,,,,,,,,,,,,,,,,,,,,,,5,0.9871,,,,,,,,,,,,,,0,39,39,63,1,,,,,,,,,,,,,space,1.4947,,,,,,,,,,,,,,,,,,,,,,,,,,,,,,,,,,,,,,,,,,,,,,,,,,,,,,,,,,,,
,,,,930683,001,2023-10-10_01h54.00.856,fluency,2022.2.4,Win32,60.0132029,,,,,,,,,,,,,,,,,,,,,,,2,3,img/B03_02.jpg,BLEND,Press J if the face is a BLEND and K if the face is a NON-BLEND,A blend is a computer-generated image created by combining together multiple photos of real human faces. A non-blend is a regular photo of a human face.,JK,,,,,,,,,,,,,,,,,,,,,,,,,,,,,,,,,,,,,,,,,,,,,,,,,,,,,689.4669,0,40,40,24,1,109,0,0,0,0,1,98,,,,,,,,,,,,,,,,,,,,,,,,,,,,,,,,,,,,,,,,,,,,,,,,,,,,,,,,,,,,,,,,,,,
,,,,930683,001,2023-10-10_01h54.00.856,fluency,2022.2.4,Win32,60.0132029,,,,,,,,,,,,,,,,,,,,,,,,,,,,,,,,,,,,,,,,,,,,,,,,,,,,,,,,,,,,,,,,,,,,,,,,,,,,,,,,,,,,,,,,,0,0,0,0,1,,"[""j""]",[0.9466999999881409],1,"[""j""]",[0.9465999999940777],,,,,,,,,,,,,,,,,,,,,,,,,,,,,,,,,,,,,,,,,,,,,,,,,,,,,,,,,,,,,,
,,,,930683,001,2023-10-10_01h54.00.856,fluency,2022.2.4,Win32,60.0132029,,,,,,,,,,,,,,,,,,,,,,,2,3,img/B03_02.jpg,BLEND,Press J if the face is a BLEND and K if the face is a NON-BLEND,A blend is a computer-generated image created by combining together multiple photos of real human faces. A non-blend is a regular photo of a human face.,JK,,,,,,,,,,,,,,,,,,,,,,,,,,,,,,,,,,,,,,,2,0.2577,,,,,,,,,,,,,,0,40,40,24,1,,,,,,,,,,,,,space,0.9177,,,,,,,,,,,,,,,,,,,,,,,,,,,,,,,,,,,,,,,,,,,,,,,,,,,,,,,,,,,,
,,,,930683,001,2023-10-10_01h54.00.856,fluency,2022.2.4,Win32,60.0132029,,,,,,,,,,,,,,,,,,,,,,,10,3,img/B03_10.jpg,BLEND,Press J if the face is a BLEND and K if the face is a NON-BLEND,A blend is a computer-generated image created by combining together multiple photos of real human faces. A non-blend is a regular photo of a human face.,JK,,,,,,,,,,,,,,,,,,,,,,,,,,,,,,,,,,,,,,,,,,,,,,,,,,,,,695.7331,0,41,41,32,1,109,0,0,0,0,1,98,,,,,,,,,,,,,,,,,,,,,,,,,,,,,,,,,,,,,,,,,,,,,,,,,,,,,,,,,,,,,,,,,,,
,,,,930683,001,2023-10-10_01h54.00.856,fluency,2022.2.4,Win32,60.0132029,,,,,,,,,,,,,,,,,,,,,,,,,,,,,,,,,,,,,,,,,,,,,,,,,,,,,,,,,,,,,,,,,,,,,,,,,,,,,,,,,,,,,,,,,0,0,0,0,1,,"[""k""]",[2.3277000000030057],1,"[""k""]",[2.327599999993936],,,,,,,,,,,,,,,,,,,,,,,,,,,,,,,,,,,,,,,,,,,,,,,,,,,,,,,,,,,,,,
,,,,930683,001,2023-10-10_01h54.00.856,fluency,2022.2.4,Win32,60.0132029,,,,,,,,,,,,,,,,,,,,,,,10,3,img/B03_10.jpg,BLEND,Press J if the face is a BLEND and K if the face is a NON-BLEND,A blend is a computer-generated image created by combining together multiple photos of real human faces. A non-blend is a regular photo of a human face.,JK,,,,,,,,,,,,,,,,,,,,,,,,,,,,,,,,,,,,,,,4,1.7753,,,,,,,,,,,,,,0,41,41,32,1,,,,,,,,,,,,,space,0.6441,,,,,,,,,,,,,,,,,,,,,,,,,,,,,,,,,,,,,,,,,,,,,,,,,,,,,,,,,,,,
,,,,930683,001,2023-10-10_01h54.00.856,fluency,2022.2.4,Win32,60.0132029,,,,,,,,,,,,,,,,,,,,,,,4,9,img/B09_04.jpg,BLEND,Press J if the face is a BLEND and K if the face is a NON-BLEND,A blend is a computer-generated image created by combining together multiple photos of real human faces. A non-blend is a regular photo of a human face.,JK,,,,,,,,,,,,,,,,,,,,,,,,,,,,,,,,,,,,,,,,,,,,,,,,,,,,,703.1992,0,42,42,92,1,109,0,0,0,0,1,98,,,,,,,,,,,,,,,,,,,,,,,,,,,,,,,,,,,,,,,,,,,,,,,,,,,,,,,,,,,,,,,,,,,
,,,,930683,001,2023-10-10_01h54.00.856,fluency,2022.2.4,Win32,60.0132029,,,,,,,,,,,,,,,,,,,,,,,,,,,,,,,,,,,,,,,,,,,,,,,,,,,,,,,,,,,,,,,,,,,,,,,,,,,,,,,,,,,,,,,,,0,0,0,0,1,,"[""j""]",[1.0912000000030275],1,"[""j""]",[1.0910000000000082],,,,,,,,,,,,,,,,,,,,,,,,,,,,,,,,,,,,,,,,,,,,,,,,,,,,,,,,,,,,,,
,,,,930683,001,2023-10-10_01h54.00.856,fluency,2022.2.4,Win32,60.0132029,,,,,,,,,,,,,,,,,,,,,,,4,9,img/B09_04.jpg,BLEND,Press J if the face is a BLEND and K if the face is a NON-BLEND,A blend is a computer-generated image created by combining together multiple photos of real human faces. A non-blend is a regular photo of a human face.,JK,,,,,,,,,,,,,,,,,,,,,,,,,,,,,,,,,,,,,,,2,0.9219,,,,,,,,,,,,,,0,42,42,92,1,,,,,,,,,,,,,space,1.1682,,,,,,,,,,,,,,,,,,,,,,,,,,,,,,,,,,,,,,,,,,,,,,,,,,,,,,,,,,,,
,,,,930683,001,2023-10-10_01h54.00.856,fluency,2022.2.4,Win32,60.0132029,,,,,,,,,,,,,,,,,,,,,,,3,4,img/B04_03.jpg,BLEND,Press J if the face is a BLEND and K if the face is a NON-BLEND,A blend is a computer-generated image created by combining together multiple photos of real human faces. A non-blend is a regular photo of a human face.,JK,,,,,,,,,,,,,,,,,,,,,,,,,,,,,,,,,,,,,,,,,,,,,,,,,,,,,710.3651,0,43,43,36,1,109,0,0,0,0,1,98,,,,,,,,,,,,,,,,,,,,,,,,,,,,,,,,,,,,,,,,,,,,,,,,,,,,,,,,,,,,,,,,,,,
,,,,930683,001,2023-10-10_01h54.00.856,fluency,2022.2.4,Win32,60.0132029,,,,,,,,,,,,,,,,,,,,,,,,,,,,,,,,,,,,,,,,,,,,,,,,,,,,,,,,,,,,,,,,,,,,,,,,,,,,,,,,,,,,,,,,,0,0,0,0,1,,"[""k""]",[1.1535000000000082],1,"[""k""]",[1.1532999999971025],,,,,,,,,,,,,,,,,,,,,,,,,,,,,,,,,,,,,,,,,,,,,,,,,,,,,,,,,,,,,,
,,,,930683,001,2023-10-10_01h54.00.856,fluency,2022.2.4,Win32,60.0132029,,,,,,,,,,,,,,,,,,,,,,,3,4,img/B04_03.jpg,BLEND,Press J if the face is a BLEND and K if the face is a NON-BLEND,A blend is a computer-generated image created by combining together multiple photos of real human faces. A non-blend is a regular photo of a human face.,JK,,,,,,,,,,,,,,,,,,,,,,,,,,,,,,,,,,,,,,,3,0.6496,,,,,,,,,,,,,,0,43,43,36,1,,,,,,,,,,,,,space,0.7108,,,,,,,,,,,,,,,,,,,,,,,,,,,,,,,,,,,,,,,,,,,,,,,,,,,,,,,,,,,,
,,,,930683,001,2023-10-10_01h54.00.856,fluency,2022.2.4,Win32,60.0132029,,,,,,,,,,,,,,,,,,,,,,,5,7,img/B07_05.jpg,BLEND,Press J if the face is a BLEND and K if the face is a NON-BLEND,A blend is a computer-generated image created by combining together multiple photos of real human faces. A non-blend is a regular photo of a human face.,JK,,,,,,,,,,,,,,,,,,,,,,,,,,,,,,,,,,,,,,,,,,,,,,,,,,,,,715.815,0,44,44,71,1,109,0,0,0,0,1,98,,,,,,,,,,,,,,,,,,,,,,,,,,,,,,,,,,,,,,,,,,,,,,,,,,,,,,,,,,,,,,,,,,,
,,,,930683,001,2023-10-10_01h54.00.856,fluency,2022.2.4,Win32,60.0132029,,,,,,,,,,,,,,,,,,,,,,,,,,,,,,,,,,,,,,,,,,,,,,,,,,,,,,,,,,,,,,,,,,,,,,,,,,,,,,,,,,,,,,,,,0,0,0,0,1,,"[""j""]",[0.8249000000059823],1,"[""j"",""1""]","[0.8247999999970261,2.8902000000030057]",,,,,,,,,,,,,,,,,,,,,,,,,,,,,,,,,,,,,,,,,,,,,,,,,,,,,,,,,,,,,,
,,,,930683,001,2023-10-10_01h54.00.856,fluency,2022.2.4,Win32,60.0132029,,,,,,,,,,,,,,,,,,,,,,,5,7,img/B07_05.jpg,BLEND,Press J if the face is a BLEND and K if the face is a NON-BLEND,A blend is a computer-generated image created by combining together multiple photos of real human faces. A non-blend is a regular photo of a human face.,JK,,,,,,,,,,,,,,,,,,,,,,,,,,,,,,,,,,,,,,,1,0.1461,,,,,,,,,,,,,,0,44,44,71,1,,,,,,,,,,,,,space,0.8192,,,,,,,,,,,,,,,,,,,,,,,,,,,,,,,,,,,,,,,,,,,,,,,,,,,,,,,,,,,,
,,,,930683,001,2023-10-10_01h54.00.856,fluency,2022.2.4,Win32,60.0132029,,,,,,,,,,,,,,,,,,,,,,,1,9,img/B09_01.jpg,BLEND,Press J if the face is a BLEND and K if the face is a NON-BLEND,A blend is a computer-generated image created by combining together multiple photos of real human faces. A non-blend is a regular photo of a human face.,JK,,,,,,,,,,,,,,,,,,,,,,,,,,,,,,,,,,,,,,,,,,,,,,,,,,,,,720.8666,0,45,45,89,1,109,0,0,0,0,1,98,,,,,,,,,,,,,,,,,,,,,,,,,,,,,,,,,,,,,,,,,,,,,,,,,,,,,,,,,,,,,,,,,,,
,,,,930683,001,2023-10-10_01h54.00.856,fluency,2022.2.4,Win32,60.0132029,,,,,,,,,,,,,,,,,,,,,,,,,,,,,,,,,,,,,,,,,,,,,,,,,,,,,,,,,,,,,,,,,,,,,,,,,,,,,,,,,,,,,,,,,0,0,0,0,1,,"[""k""]",[0.8532000000029711],1,"[""k"",""1""]","[0.8532000000029711,2.869700000002922]",,,,,,,,,,,,,,,,,,,,,,,,,,,,,,,,,,,,,,,,,,,,,,,,,,,,,,,,,,,,,,
,,,,930683,001,2023-10-10_01h54.00.856,fluency,2022.2.4,Win32,60.0132029,,,,,,,,,,,,,,,,,,,,,,,1,9,img/B09_01.jpg,BLEND,Press J if the face is a BLEND and K if the face is a NON-BLEND,A blend is a computer-generated image created by combining together multiple photos of real human faces. A non-blend is a regular photo of a human face.,JK,,,,,,,,,,,,,,,,,,,,,,,,,,,,,,,,,,,,,,,1,0.2118,,,,,,,,,,,,,,0,45,45,89,1,,,,,,,,,,,,,space,0.8187,,,,,,,,,,,,,,,,,,,,,,,,,,,,,,,,,,,,,,,,,,,,,,,,,,,,,,,,,,,,
,,,,930683,001,2023-10-10_01h54.00.856,fluency,2022.2.4,Win32,60.0132029,,,,,,,,,,,,,,,,,,,,,,,9,10,img/B10_09.jpg,BLEND,Press J if the face is a BLEND and K if the face is a NON-BLEND,A blend is a computer-generated image created by combining together multiple photos of real human faces. A non-blend is a regular photo of a human face.,JK,,,,,,,,,,,,,,,,,,,,,,,,,,,,,,,,,,,,,,,,,,,,,,,,,,,,,725.9515,0,46,46,108,1,109,0,0,0,0,1,98,,,,,,,,,,,,,,,,,,,,,,,,,,,,,,,,,,,,,,,,,,,,,,,,,,,,,,,,,,,,,,,,,,,
,,,,930683,001,2023-10-10_01h54.00.856,fluency,2022.2.4,Win32,60.0132029,,,,,,,,,,,,,,,,,,,,,,,,,,,,,,,,,,,,,,,,,,,,,,,,,,,,,,,,,,,,,,,,,,,,,,,,,,,,,,,,,,,,,,,,,0,0,0,0,1,,"[""j""]",[0.9168999999909602],1,"[""j""]",[0.9167999999970107],,,,,,,,,,,,,,,,,,,,,,,,,,,,,,,,,,,,,,,,,,,,,,,,,,,,,,,,,,,,,,
,,,,930683,001,2023-10-10_01h54.00.856,fluency,2022.2.4,Win32,60.0132029,,,,,,,,,,,,,,,,,,,,,,,9,10,img/B10_09.jpg,BLEND,Press J if the face is a BLEND and K if the face is a NON-BLEND,A blend is a computer-generated image created by combining together multiple photos of real human faces. A non-blend is a regular photo of a human face.,JK,,,,,,,,,,,,,,,,,,,,,,,,,,,,,,,,,,,,,,,2,0.1018,,,,,,,,,,,,,,0,46,46,108,1,,,,,,,,,,,,,space,1.0203,,,,,,,,,,,,,,,,,,,,,,,,,,,,,,,,,,,,,,,,,,,,,,,,,,,,,,,,,,,,
,,,,930683,001,2023-10-10_01h54.00.856,fluency,2022.2.4,Win32,60.0132029,,,,,,,,,,,,,,,,,,,,,,,0,6,img/B06_00.jpg,BLEND,Press J if the face is a BLEND and K if the face is a NON-BLEND,A blend is a computer-generated image created by combining together multiple photos of real human faces. A non-blend is a regular photo of a human face.,JK,,,,,,,,,,,,,,,,,,,,,,,,,,,,,,,,,,,,,,,,,,,,,,,,,,,,,731.1637,0,47,47,55,1,109,0,0,0,0,1,98,,,,,,,,,,,,,,,,,,,,,,,,,,,,,,,,,,,,,,,,,,,,,,,,,,,,,,,,,,,,,,,,,,,
,,,,930683,001,2023-10-10_01h54.00.856,fluency,2022.2.4,Win32,60.0132029,,,,,,,,,,,,,,,,,,,,,,,,,,,,,,,,,,,,,,,,,,,,,,,,,,,,,,,,,,,,,,,,,,,,,,,,,,,,,,,,,,,,,,,,,0,0,0,0,1,,"[""k""]",[0.909100000008948],1,"[""k"",""1""]","[0.9088000000118654,2.620999999999981]",,,,,,,,,,,,,,,,,,,,,,,,,,,,,,,,,,,,,,,,,,,,,,,,,,,,,,,,,,,,,,
,,,,930683,001,2023-10-10_01h54.00.856,fluency,2022.2.4,Win32,60.0132029,,,,,,,,,,,,,,,,,,,,,,,0,6,img/B06_00.jpg,BLEND,Press J if the face is a BLEND and K if the face is a NON-BLEND,A blend is a computer-generated image created by combining together multiple photos of real human faces. A non-blend is a regular photo of a human face.,JK,,,,,,,,,,,,,,,,,,,,,,,,,,,,,,,,,,,,,,,1,0.2489,,,,,,,,,,,,,,0,47,47,55,1,,,,,,,,,,,,,space,0.9334,,,,,,,,,,,,,,,,,,,,,,,,,,,,,,,,,,,,,,,,,,,,,,,,,,,,,,,,,,,,
,,,,930683,001,2023-10-10_01h54.00.856,fluency,2022.2.4,Win32,60.0132029,,,,,,,,,,,,,,,,,,,,,,,5,6,img/B06_05.jpg,BLEND,Press J if the face is a BLEND and K if the face is a NON-BLEND,A blend is a computer-generated image created by combining together multiple photos of real human faces. A non-blend is a regular photo of a human face.,JK,,,,,,,,,,,,,,,,,,,,,,,,,,,,,,,,,,,,,,,,,,,,,,,,,,,,,736.4122,0,48,48,60,1,109,0,0,0,0,1,98,,,,,,,,,,,,,,,,,,,,,,,,,,,,,,,,,,,,,,,,,,,,,,,,,,,,,,,,,,,,,,,,,,,
,,,,930683,001,2023-10-10_01h54.00.856,fluency,2022.2.4,Win32,60.0132029,,,,,,,,,,,,,,,,,,,,,,,,,,,,,,,,,,,,,,,,,,,,,,,,,,,,,,,,,,,,,,,,,,,,,,,,,,,,,,,,,,,,,,,,,0,0,0,0,1,,"[""j""]",[1.1406000000089307],1,"[""j"",""3""]","[1.1403000000119619,2.908400000006054]",,,,,,,,,,,,,,,,,,,,,,,,,,,,,,,,,,,,,,,,,,,,,,,,,,,,,,,,,,,,,,
,,,,930683,001,2023-10-10_01h54.00.856,fluency,2022.2.4,Win32,60.0132029,,,,,,,,,,,,,,,,,,,,,,,5,6,img/B06_05.jpg,BLEND,Press J if the face is a BLEND and K if the face is a NON-BLEND,A blend is a computer-generated image created by combining together multiple photos of real human faces. A non-blend is a regular photo of a human face.,JK,,,,,,,,,,,,,,,,,,,,,,,,,,,,,,,,,,,,,,,3,0.4936,,,,,,,,,,,,,,0,48,48,60,1,,,,,,,,,,,,,space,0.9392,,,,,,,,,,,,,,,,,,,,,,,,,,,,,,,,,,,,,,,,,,,,,,,,,,,,,,,,,,,,
,,,,930683,001,2023-10-10_01h54.00.856,fluency,2022.2.4,Win32,60.0132029,,,,,,,,,,,,,,,,,,,,,,,7,10,img/B10_07.jpg,BLEND,Press J if the face is a BLEND and K if the face is a NON-BLEND,A blend is a computer-generated image created by combining together multiple photos of real human faces. A non-blend is a regular photo of a human face.,JK,,,,,,,,,,,,,,,,,,,,,,,,,,,,,,,,,,,,,,,,,,,,,,,,,,,,,742.9285,0,49,49,106,1,109,0,0,0,0,1,98,,,,,,,,,,,,,,,,,,,,,,,,,,,,,,,,,,,,,,,,,,,,,,,,,,,,,,,,,,,,,,,,,,,
,,,,930683,001,2023-10-10_01h54.00.856,fluency,2022.2.4,Win32,60.0132029,,,,,,,,,,,,,,,,,,,,,,,,,,,,,,,,,,,,,,,,,,,,,,,,,,,,,,,,,,,,,,,,,,,,,,,,,,,,,,,,,,,,,,,,,0,0,0,0,1,,"[""k""]",[2.4785000000000537],1,"[""k""]",[2.4785000000000537],,,,,,,,,,,,,,,,,,,,,,,,,,,,,,,,,,,,,,,,,,,,,,,,,,,,,,,,,,,,,,
,,,,930683,001,2023-10-10_01h54.00.856,fluency,2022.2.4,Win32,60.0132029,,,,,,,,,,,,,,,,,,,,,,,7,10,img/B10_07.jpg,BLEND,Press J if the face is a BLEND and K if the face is a NON-BLEND,A blend is a computer-generated image created by combining together multiple photos of real human faces. A non-blend is a regular photo of a human face.,JK,,,,,,,,,,,,,,,,,,,,,,,,,,,,,,,,,,,,,,,4,2.8532,,,,,,,,,,,,,,0,49,49,106,1,,,,,,,,,,,,,space,0.8751,,,,,,,,,,,,,,,,,,,,,,,,,,,,,,,,,,,,,,,,,,,,,,,,,,,,,,,,,,,,
,,,,930683,001,2023-10-10_01h54.00.856,fluency,2022.2.4,Win32,60.0132029,,,,,,,,,,,,,,,,,,,,,,,10,2,img/B02_10.jpg,BLEND,Press J if the face is a BLEND and K if the face is a NON-BLEND,A blend is a computer-generated image created by combining together multiple photos of real human faces. A non-blend is a regular photo of a human face.,JK,,,,,,,,,,,,,,,,,,,,,,,,,,,,,,,,,,,,,,,,,,,,,,,,,,,,,751.7627,0,50,50,21,1,109,0,0,0,0,1,98,,,,,,,,,,,,,,,,,,,,,,,,,,,,,,,,,,,,,,,,,,,,,,,,,,,,,,,,,,,,,,,,,,,
,,,,930683,001,2023-10-10_01h54.00.856,fluency,2022.2.4,Win32,60.0132029,,,,,,,,,,,,,,,,,,,,,,,,,,,,,,,,,,,,,,,,,,,,,,,,,,,,,,,,,,,,,,,,,,,,,,,,,,,,,,,,,,,,,,,,,0,0,0,0,1,,"[""j""]",[2.2658999999910066],1,"[""j""]",[2.2655999999940377],,,,,,,,,,,,,,,,,,,,,,,,,,,,,,,,,,,,,,,,,,,,,,,,,,,,,,,,,,,,,,
,,,,930683,001,2023-10-10_01h54.00.856,fluency,2022.2.4,Win32,60.0132029,,,,,,,,,,,,,,,,,,,,,,,10,2,img/B02_10.jpg,BLEND,Press J if the face is a BLEND and K if the face is a NON-BLEND,A blend is a computer-generated image created by combining together multiple photos of real human faces. A non-blend is a regular photo of a human face.,JK,,,,,,,,,,,,,,,,,,,,,,,,,,,,,,,,,,,,,,,3,1.5085,,,,,,,,,,,,,,0,50,50,21,1,,,,,,,,,,,,,space,0.7206,,,,,,,,,,,,,,,,,,,,,,,,,,,,,,,,,,,,,,,,,,,,,,,,,,,,,,,,,,,,
,,,,930683,001,2023-10-10_01h54.00.856,fluency,2022.2.4,Win32,60.0132029,,,,,,,,,,,,,,,,,,,,,,,2,1,img/B01_02.jpg,BLEND,Press J if the face is a BLEND and K if the face is a NON-BLEND,A blend is a computer-generated image created by combining together multiple photos of real human faces. A non-blend is a regular photo of a human face.,JK,,,,,,,,,,,,,,,,,,,,,,,,,,,,,,,,,,,,,,,,,,,,,,,,,,,,,759.0939,0,51,51,2,1,109,0,0,0,0,1,98,,,,,,,,,,,,,,,,,,,,,,,,,,,,,,,,,,,,,,,,,,,,,,,,,,,,,,,,,,,,,,,,,,,
,,,,930683,001,2023-10-10_01h54.00.856,fluency,2022.2.4,Win32,60.0132029,,,,,,,,,,,,,,,,,,,,,,,,,,,,,,,,,,,,,,,,,,,,,,,,,,,,,,,,,,,,,,,,,,,,,,,,,,,,,,,,,,,,,,,,,0,0,0,0,1,,"[""k""]",[1.1281000000088852],1,"[""k""]",[1.1279000000059796],,,,,,,,,,,,,,,,,,,,,,,,,,,,,,,,,,,,,,,,,,,,,,,,,,,,,,,,,,,,,,
,,,,930683,001,2023-10-10_01h54.00.856,fluency,2022.2.4,Win32,60.0132029,,,,,,,,,,,,,,,,,,,,,,,2,1,img/B01_02.jpg,BLEND,Press J if the face is a BLEND and K if the face is a NON-BLEND,A blend is a computer-generated image created by combining together multiple photos of real human faces. A non-blend is a regular photo of a human face.,JK,,,,,,,,,,,,,,,,,,,,,,,,,,,,,,,,,,,,,,,1,0.2767,,,,,,,,,,,,,,0,51,51,2,1,,,,,,,,,,,,,space,1.1204,,,,,,,,,,,,,,,,,,,,,,,,,,,,,,,,,,,,,,,,,,,,,,,,,,,,,,,,,,,,
,,,,930683,001,2023-10-10_01h54.00.856,fluency,2022.2.4,Win32,60.0132029,,,,,,,,,,,,,,,,,,,,,,,7,3,img/B03_07.jpg,BLEND,Press J if the face is a BLEND and K if the face is a NON-BLEND,A blend is a computer-generated image created by combining together multiple photos of real human faces. A non-blend is a regular photo of a human face.,JK,,,,,,,,,,,,,,,,,,,,,,,,,,,,,,,,,,,,,,,,,,,,,,,,,,,,,764.5506,0,52,52,29,1,109,0,0,0,0,1,98,,,,,,,,,,,,,,,,,,,,,,,,,,,,,,,,,,,,,,,,,,,,,,,,,,,,,,,,,,,,,,,,,,,
,,,,930683,001,2023-10-10_01h54.00.856,fluency,2022.2.4,Win32,60.0132029,,,,,,,,,,,,,,,,,,,,,,,,,,,,,,,,,,,,,,,,,,,,,,,,,,,,,,,,,,,,,,,,,,,,,,,,,,,,,,,,,,,,,,,,,0,0,0,0,1,,"[""k""]",[1.9264000000059696],1,"[""k""]",[1.9265000000000327],,,,,,,,,,,,,,,,,,,,,,,,,,,,,,,,,,,,,,,,,,,,,,,,,,,,,,,,,,,,,,
,,,,930683,001,2023-10-10_01h54.00.856,fluency,2022.2.4,Win32,60.0132029,,,,,,,,,,,,,,,,,,,,,,,7,3,img/B03_07.jpg,BLEND,Press J if the face is a BLEND and K if the face is a NON-BLEND,A blend is a computer-generated image created by combining together multiple photos of real human faces. A non-blend is a regular photo of a human face.,JK,,,,,,,,,,,,,,,,,,,,,,,,,,,,,,,,,,,,,,,3,0.942,,,,,,,,,,,,,,0,52,52,29,1,,,,,,,,,,,,,space,0.9708,,,,,,,,,,,,,,,,,,,,,,,,,,,,,,,,,,,,,,,,,,,,,,,,,,,,,,,,,,,,
,,,,930683,001,2023-10-10_01h54.00.856,fluency,2022.2.4,Win32,60.0132029,,,,,,,,,,,,,,,,,,,,,,,6,3,img/B03_06.jpg,BLEND,Press J if the face is a BLEND and K if the face is a NON-BLEND,A blend is a computer-generated image created by combining together multiple photos of real human faces. A non-blend is a regular photo of a human face.,JK,,,,,,,,,,,,,,,,,,,,,,,,,,,,,,,,,,,,,,,,,,,,,,,,,,,,,771.5496,0,53,53,28,1,109,0,0,0,0,1,98,,,,,,,,,,,,,,,,,,,,,,,,,,,,,,,,,,,,,,,,,,,,,,,,,,,,,,,,,,,,,,,,,,,
,,,,930683,001,2023-10-10_01h54.00.856,fluency,2022.2.4,Win32,60.0132029,,,,,,,,,,,,,,,,,,,,,,,,,,,,,,,,,,,,,,,,,,,,,,,,,,,,,,,,,,,,,,,,,,,,,,,,,,,,,,,,,,,,,,,,,0,0,0,0,1,,"[""k""]",[1.094400000005976],1,"[""k"",""3""]","[1.0940999999940004,2.6133999999910884]",,,,,,,,,,,,,,,,,,,,,,,,,,,,,,,,,,,,,,,,,,,,,,,,,,,,,,,,,,,,,,
,,,,930683,001,2023-10-10_01h54.00.856,fluency,2022.2.4,Win32,60.0132029,,,,,,,,,,,,,,,,,,,,,,,6,3,img/B03_06.jpg,BLEND,Press J if the face is a BLEND and K if the face is a NON-BLEND,A blend is a computer-generated image created by combining together multiple photos of real human faces. A non-blend is a regular photo of a human face.,JK,,,,,,,,,,,,,,,,,,,,,,,,,,,,,,,,,,,,,,,3,0.3098,,,,,,,,,,,,,,0,53,53,28,1,,,,,,,,,,,,,space,0.7195,,,,,,,,,,,,,,,,,,,,,,,,,,,,,,,,,,,,,,,,,,,,,,,,,,,,,,,,,,,,
,,,,930683,001,2023-10-10_01h54.00.856,fluency,2022.2.4,Win32,60.0132029,,,,,,,,,,,,,,,,,,,,,,,7,1,img/B01_07.jpg,BLEND,Press J if the face is a BLEND and K if the face is a NON-BLEND,A blend is a computer-generated image created by combining together multiple photos of real human faces. A non-blend is a regular photo of a human face.,JK,,,,,,,,,,,,,,,,,,,,,,,,,,,,,,,,,,,,,,,,,,,,,,,,,,,,,776.6497,0,54,54,7,1,109,0,0,0,0,1,98,,,,,,,,,,,,,,,,,,,,,,,,,,,,,,,,,,,,,,,,,,,,,,,,,,,,,,,,,,,,,,,,,,,
,,,,930683,001,2023-10-10_01h54.00.856,fluency,2022.2.4,Win32,60.0132029,,,,,,,,,,,,,,,,,,,,,,,,,,,,,,,,,,,,,,,,,,,,,,,,,,,,,,,,,,,,,,,,,,,,,,,,,,,,,,,,,,,,,,,,,0,0,0,0,1,,"[""k""]",[1.3684999999999263],1,"[""k""]",[1.3684999999999263],,,,,,,,,,,,,,,,,,,,,,,,,,,,,,,,,,,,,,,,,,,,,,,,,,,,,,,,,,,,,,
,,,,930683,001,2023-10-10_01h54.00.856,fluency,2022.2.4,Win32,60.0132029,,,,,,,,,,,,,,,,,,,,,,,7,1,img/B01_07.jpg,BLEND,Press J if the face is a BLEND and K if the face is a NON-BLEND,A blend is a computer-generated image created by combining together multiple photos of real human faces. A non-blend is a regular photo of a human face.,JK,,,,,,,,,,,,,,,,,,,,,,,,,,,,,,,,,,,,,,,4,2.5656,,,,,,,,,,,,,,0,54,54,7,1,,,,,,,,,,,,,space,1.5363,,,,,,,,,,,,,,,,,,,,,,,,,,,,,,,,,,,,,,,,,,,,,,,,,,,,,,,,,,,,
,,,,930683,001,2023-10-10_01h54.00.856,fluency,2022.2.4,Win32,60.0132029,,,,,,,,,,,,,,,,,,,,,,,0,5,img/B05_00.jpg,BLEND,Press J if the face is a BLEND and K if the face is a NON-BLEND,A blend is a computer-generated image created by combining together multiple photos of real human faces. A non-blend is a regular photo of a human face.,JK,,,,,,,,,,,,,,,,,,,,,,,,,,,,,,,,,,,,,,,,,,,,,,,,,,,,,785.8604,0,55,55,44,1,109,0,0,0,0,1,98,,,,,,,,,,,,,,,,,,,,,,,,,,,,,,,,,,,,,,,,,,,,,,,,,,,,,,,,,,,,,,,,,,,
,,,,930683,001,2023-10-10_01h54.00.856,fluency,2022.2.4,Win32,60.0132029,,,,,,,,,,,,,,,,,,,,,,,,,,,,,,,,,,,,,,,,,,,,,,,,,,,,,,,,,,,,,,,,,,,,,,,,,,,,,,,,,,,,,,,,,0,0,0,0,1,,"[""k""]",[1.3165999999940823],1,"[""k""]",[1.316500000000019],,,,,,,,,,,,,,,,,,,,,,,,,,,,,,,,,,,,,,,,,,,,,,,,,,,,,,,,,,,,,,
,,,,930683,001,2023-10-10_01h54.00.856,fluency,2022.2.4,Win32,60.0132029,,,,,,,,,,,,,,,,,,,,,,,0,5,img/B05_00.jpg,BLEND,Press J if the face is a BLEND and K if the face is a NON-BLEND,A blend is a computer-generated image created by combining together multiple photos of real human faces. A non-blend is a regular photo of a human face.,JK,,,,,,,,,,,,,,,,,,,,,,,,,,,,,,,,,,,,,,,1,0.562,,,,,,,,,,,,,,0,55,55,44,1,,,,,,,,,,,,,space,0.9853,,,,,,,,,,,,,,,,,,,,,,,,,,,,,,,,,,,,,,,,,,,,,,,,,,,,,,,,,,,,
,,,,930683,001,2023-10-10_01h54.00.856,fluency,2022.2.4,Win32,60.0132029,,,,,,,,,,,,,,,,,,,,,,,4,4,img/B04_04.jpg,BLEND,Press J if the face is a BLEND and K if the face is a NON-BLEND,A blend is a computer-generated image created by combining together multiple photos of real human faces. A non-blend is a regular photo of a human face.,JK,,,,,,,,,,,,,,,,,,,,,,,,,,,,,,,,,,,,,,,,,,,,,,,,,,,,,792.4815,0,56,56,37,1,109,0,0,0,0,1,98,,,,,,,,,,,,,,,,,,,,,,,,,,,,,,,,,,,,,,,,,,,,,,,,,,,,,,,,,,,,,,,,,,,
,,,,930683,001,2023-10-10_01h54.00.856,fluency,2022.2.4,Win32,60.0132029,,,,,,,,,,,,,,,,,,,,,,,,,,,,,,,,,,,,,,,,,,,,,,,,,,,,,,,,,,,,,,,,,,,,,,,,,,,,,,,,,,,,,,,,,0,0,0,0,1,,"[""j""]",[1.9017000000030748],1,"[""j""]",[1.9017000000029611],,,,,,,,,,,,,,,,,,,,,,,,,,,,,,,,,,,,,,,,,,,,,,,,,,,,,,,,,,,,,,
,,,,930683,001,2023-10-10_01h54.00.856,fluency,2022.2.4,Win32,60.0132029,,,,,,,,,,,,,,,,,,,,,,,4,4,img/B04_04.jpg,BLEND,Press J if the face is a BLEND and K if the face is a NON-BLEND,A blend is a computer-generated image created by combining together multiple photos of real human faces. A non-blend is a regular photo of a human face.,JK,,,,,,,,,,,,,,,,,,,,,,,,,,,,,,,,,,,,,,,3,0.9128,,,,,,,,,,,,,,0,56,56,37,1,,,,,,,,,,,,,space,0.7527,,,,,,,,,,,,,,,,,,,,,,,,,,,,,,,,,,,,,,,,,,,,,,,,,,,,,,,,,,,,
,,,,930683,001,2023-10-10_01h54.00.856,fluency,2022.2.4,Win32,60.0132029,,,,,,,,,,,,,,,,,,,,,,,5,9,img/B09_05.jpg,BLEND,Press J if the face is a BLEND and K if the face is a NON-BLEND,A blend is a computer-generated image created by combining together multiple photos of real human faces. A non-blend is a regular photo of a human face.,JK,,,,,,,,,,,,,,,,,,,,,,,,,,,,,,,,,,,,,,,,,,,,,,,,,,,,,798.212,0,57,57,93,1,109,0,0,0,0,1,98,,,,,,,,,,,,,,,,,,,,,,,,,,,,,,,,,,,,,,,,,,,,,,,,,,,,,,,,,,,,,,,,,,,
,,,,930683,001,2023-10-10_01h54.00.856,fluency,2022.2.4,Win32,60.0132029,,,,,,,,,,,,,,,,,,,,,,,,,,,,,,,,,,,,,,,,,,,,,,,,,,,,,,,,,,,,,,,,,,,,,,,,,,,,,,,,,,,,,,,,,0,0,0,0,1,,"[""j""]",[1.5204000000060205],1,"[""j""]",[1.5203999999910138],,,,,,,,,,,,,,,,,,,,,,,,,,,,,,,,,,,,,,,,,,,,,,,,,,,,,,,,,,,,,,
,,,,930683,001,2023-10-10_01h54.00.856,fluency,2022.2.4,Win32,60.0132029,,,,,,,,,,,,,,,,,,,,,,,5,9,img/B09_05.jpg,BLEND,Press J if the face is a BLEND and K if the face is a NON-BLEND,A blend is a computer-generated image created by combining together multiple photos of real human faces. A non-blend is a regular photo of a human face.,JK,,,,,,,,,,,,,,,,,,,,,,,,,,,,,,,,,,,,,,,3,0.3835,,,,,,,,,,,,,,0,57,57,93,1,,,,,,,,,,,,,space,0.573,,,,,,,,,,,,,,,,,,,,,,,,,,,,,,,,,,,,,,,,,,,,,,,,,,,,,,,,,,,,
,,,,930683,001,2023-10-10_01h54.00.856,fluency,2022.2.4,Win32,60.0132029,,,,,,,,,,,,,,,,,,,,,,,0,4,img/B04_00.jpg,BLEND,Press J if the face is a BLEND and K if the face is a NON-BLEND,A blend is a computer-generated image created by combining together multiple photos of real human faces. A non-blend is a regular photo of a human face.,JK,,,,,,,,,,,,,,,,,,,,,,,,,,,,,,,,,,,,,,,,,,,,,,,,,,,,,803.2453,0,58,58,33,1,109,0,0,0,0,1,98,,,,,,,,,,,,,,,,,,,,,,,,,,,,,,,,,,,,,,,,,,,,,,,,,,,,,,,,,,,,,,,,,,,
,,,,930683,001,2023-10-10_01h54.00.856,fluency,2022.2.4,Win32,60.0132029,,,,,,,,,,,,,,,,,,,,,,,,,,,,,,,,,,,,,,,,,,,,,,,,,,,,,,,,,,,,,,,,,,,,,,,,,,,,,,,,,,,,,,,,,0,0,0,0,1,,"[""j""]",[2.033599999994067],1,"[""j""]",[2.033700000003023],,,,,,,,,,,,,,,,,,,,,,,,,,,,,,,,,,,,,,,,,,,,,,,,,,,,,,,,,,,,,,
,,,,930683,001,2023-10-10_01h54.00.856,fluency,2022.2.4,Win32,60.0132029,,,,,,,,,,,,,,,,,,,,,,,0,4,img/B04_00.jpg,BLEND,Press J if the face is a BLEND and K if the face is a NON-BLEND,A blend is a computer-generated image created by combining together multiple photos of real human faces. A non-blend is a regular photo of a human face.,JK,,,,,,,,,,,,,,,,,,,,,,,,,,,,,,,,,,,,,,,4,1.3759,,,,,,,,,,,,,,0,58,58,33,1,,,,,,,,,,,,,space,1.661,,,,,,,,,,,,,,,,,,,,,,,,,,,,,,,,,,,,,,,,,,,,,,,,,,,,,,,,,,,,
,,,,930683,001,2023-10-10_01h54.00.856,fluency,2022.2.4,Win32,60.0132029,,,,,,,,,,,,,,,,,,,,,,,3,2,img/B02_03.jpg,BLEND,Press J if the face is a BLEND and K if the face is a NON-BLEND,A blend is a computer-generated image created by combining together multiple photos of real human faces. A non-blend is a regular photo of a human face.,JK,,,,,,,,,,,,,,,,,,,,,,,,,,,,,,,,,,,,,,,,,,,,,,,,,,,,,811.3632,0,59,59,14,1,109,0,0,0,0,1,98,,,,,,,,,,,,,,,,,,,,,,,,,,,,,,,,,,,,,,,,,,,,,,,,,,,,,,,,,,,,,,,,,,,
,,,,930683,001,2023-10-10_01h54.00.856,fluency,2022.2.4,Win32,60.0132029,,,,,,,,,,,,,,,,,,,,,,,,,,,,,,,,,,,,,,,,,,,,,,,,,,,,,,,,,,,,,,,,,,,,,,,,,,,,,,,,,,,,,,,,,0,0,0,0,1,,"[""j""]",[1.163100000008967],1,"[""j""]",[1.1629000000059477],,,,,,,,,,,,,,,,,,,,,,,,,,,,,,,,,,,,,,,,,,,,,,,,,,,,,,,,,,,,,,
,,,,930683,001,2023-10-10_01h54.00.856,fluency,2022.2.4,Win32,60.0132029,,,,,,,,,,,,,,,,,,,,,,,3,2,img/B02_03.jpg,BLEND,Press J if the face is a BLEND and K if the face is a NON-BLEND,A blend is a computer-generated image created by combining together multiple photos of real human faces. A non-blend is a regular photo of a human face.,JK,,,,,,,,,,,,,,,,,,,,,,,,,,,,,,,,,,,,,,,3,0.0027,,,,,,,,,,,,,,0,59,59,14,1,,,,,,,,,,,,,space,1.9505,,,,,,,,,,,,,,,,,,,,,,,,,,,,,,,,,,,,,,,,,,,,,,,,,,,,,,,,,,,,
,,,,930683,001,2023-10-10_01h54.00.856,fluency,2022.2.4,Win32,60.0132029,,,,,,,,,,,,,,,,,,,,,,,8,1,img/B01_08.jpg,BLEND,Press J if the face is a BLEND and K if the face is a NON-BLEND,A blend is a computer-generated image created by combining together multiple photos of real human faces. A non-blend is a regular photo of a human face.,JK,,,,,,,,,,,,,,,,,,,,,,,,,,,,,,,,,,,,,,,,,,,,,,,,,,,,,817.3799,0,60,60,8,1,109,0,0,0,0,1,98,,,,,,,,,,,,,,,,,,,,,,,,,,,,,,,,,,,,,,,,,,,,,,,,,,,,,,,,,,,,,,,,,,,
,,,,930683,001,2023-10-10_01h54.00.856,fluency,2022.2.4,Win32,60.0132029,,,,,,,,,,,,,,,,,,,,,,,,,,,,,,,,,,,,,,,,,,,,,,,,,,,,,,,,,,,,,,,,,,,,,,,,,,,,,,,,,,,,,,,,,0,0,0,0,1,,"[""k""]",[1.334799999997017],1,"[""k""]",[1.3345999999939977],,,,,,,,,,,,,,,,,,,,,,,,,,,,,,,,,,,,,,,,,,,,,,,,,,,,,,,,,,,,,,
,,,,930683,001,2023-10-10_01h54.00.856,fluency,2022.2.4,Win32,60.0132029,,,,,,,,,,,,,,,,,,,,,,,8,1,img/B01_08.jpg,BLEND,Press J if the face is a BLEND and K if the face is a NON-BLEND,A blend is a computer-generated image created by combining together multiple photos of real human faces. A non-blend is a regular photo of a human face.,JK,,,,,,,,,,,,,,,,,,,,,,,,,,,,,,,,,,,,,,,5,1.2393,,,,,,,,,,,,,,0,60,60,8,1,,,,,,,,,,,,,space,1.6017,,,,,,,,,,,,,,,,,,,,,,,,,,,,,,,,,,,,,,,,,,,,,,,,,,,,,,,,,,,,
,,,,930683,001,2023-10-10_01h54.00.856,fluency,2022.2.4,Win32,60.0132029,,,,,,,,,,,,,,,,,,,,,,,6,6,img/B06_06.jpg,BLEND,Press J if the face is a BLEND and K if the face is a NON-BLEND,A blend is a computer-generated image created by combining together multiple photos of real human faces. A non-blend is a regular photo of a human face.,JK,,,,,,,,,,,,,,,,,,,,,,,,,,,,,,,,,,,,,,,,,,,,,,,,,,,,,825.2742,0,61,61,61,1,109,0,0,0,0,1,98,,,,,,,,,,,,,,,,,,,,,,,,,,,,,,,,,,,,,,,,,,,,,,,,,,,,,,,,,,,,,,,,,,,
,,,,930683,001,2023-10-10_01h54.00.856,fluency,2022.2.4,Win32,60.0132029,,,,,,,,,,,,,,,,,,,,,,,,,,,,,,,,,,,,,,,,,,,,,,,,,,,,,,,,,,,,,,,,,,,,,,,,,,,,,,,,,,,,,,,,,0,0,0,0,1,,"[""j""]",[2.4272999999971034],1,"[""j""]",[2.4268999999910648],,,,,,,,,,,,,,,,,,,,,,,,,,,,,,,,,,,,,,,,,,,,,,,,,,,,,,,,,,,,,,
,,,,930683,001,2023-10-10_01h54.00.856,fluency,2022.2.4,Win32,60.0132029,,,,,,,,,,,,,,,,,,,,,,,6,6,img/B06_06.jpg,BLEND,Press J if the face is a BLEND and K if the face is a NON-BLEND,A blend is a computer-generated image created by combining together multiple photos of real human faces. A non-blend is a regular photo of a human face.,JK,,,,,,,,,,,,,,,,,,,,,,,,,,,,,,,,,,,,,,,4,1.4352,,,,,,,,,,,,,,0,61,61,61,1,,,,,,,,,,,,,space,0.6349,,,,,,,,,,,,,,,,,,,,,,,,,,,,,,,,,,,,,,,,,,,,,,,,,,,,,,,,,,,,
,,,,930683,001,2023-10-10_01h54.00.856,fluency,2022.2.4,Win32,60.0132029,,,,,,,,,,,,,,,,,,,,,,,3,6,img/B06_03.jpg,BLEND,Press J if the face is a BLEND and K if the face is a NON-BLEND,A blend is a computer-generated image created by combining together multiple photos of real human faces. A non-blend is a regular photo of a human face.,JK,,,,,,,,,,,,,,,,,,,,,,,,,,,,,,,,,,,,,,,,,,,,,,,,,,,,,832.4275,0,62,62,58,1,109,0,0,0,0,1,98,,,,,,,,,,,,,,,,,,,,,,,,,,,,,,,,,,,,,,,,,,,,,,,,,,,,,,,,,,,,,,,,,,,
,,,,930683,001,2023-10-10_01h54.00.856,fluency,2022.2.4,Win32,60.0132029,,,,,,,,,,,,,,,,,,,,,,,,,,,,,,,,,,,,,,,,,,,,,,,,,,,,,,,,,,,,,,,,,,,,,,,,,,,,,,,,,,,,,,,,,0,0,0,0,1,,"[""k""]",[1.6841999999880954],1,"[""k""]",[1.6841999999880954],,,,,,,,,,,,,,,,,,,,,,,,,,,,,,,,,,,,,,,,,,,,,,,,,,,,,,,,,,,,,,
,,,,930683,001,2023-10-10_01h54.00.856,fluency,2022.2.4,Win32,60.0132029,,,,,,,,,,,,,,,,,,,,,,,3,6,img/B06_03.jpg,BLEND,Press J if the face is a BLEND and K if the face is a NON-BLEND,A blend is a computer-generated image created by combining together multiple photos of real human faces. A non-blend is a regular photo of a human face.,JK,,,,,,,,,,,,,,,,,,,,,,,,,,,,,,,,,,,,,,,3,0.5149,,,,,,,,,,,,,,0,62,62,58,1,,,,,,,,,,,,,space,0.7363,,,,,,,,,,,,,,,,,,,,,,,,,,,,,,,,,,,,,,,,,,,,,,,,,,,,,,,,,,,,
,,,,930683,001,2023-10-10_01h54.00.856,fluency,2022.2.4,Win32,60.0132029,,,,,,,,,,,,,,,,,,,,,,,0,8,img/B08_00.jpg,BLEND,Press J if the face is a BLEND and K if the face is a NON-BLEND,A blend is a computer-generated image created by combining together multiple photos of real human faces. A non-blend is a regular photo of a human face.,JK,,,,,,,,,,,,,,,,,,,,,,,,,,,,,,,,,,,,,,,,,,,,,,,,,,,,,838.7376,0,63,63,77,1,109,0,0,0,0,1,98,,,,,,,,,,,,,,,,,,,,,,,,,,,,,,,,,,,,,,,,,,,,,,,,,,,,,,,,,,,,,,,,,,,
,,,,930683,001,2023-10-10_01h54.00.856,fluency,2022.2.4,Win32,60.0132029,,,,,,,,,,,,,,,,,,,,,,,,,,,,,,,,,,,,,,,,,,,,,,,,,,,,,,,,,,,,,,,,,,,,,,,,,,,,,,,,,,,,,,,,,0,0,0,0,1,,"[""j""]",[1.5775999999940495],1,"[""j""]",[1.5775999999940495],,,,,,,,,,,,,,,,,,,,,,,,,,,,,,,,,,,,,,,,,,,,,,,,,,,,,,,,,,,,,,
,,,,930683,001,2023-10-10_01h54.00.856,fluency,2022.2.4,Win32,60.0132029,,,,,,,,,,,,,,,,,,,,,,,0,8,img/B08_00.jpg,BLEND,Press J if the face is a BLEND and K if the face is a NON-BLEND,A blend is a computer-generated image created by combining together multiple photos of real human faces. A non-blend is a regular photo of a human face.,JK,,,,,,,,,,,,,,,,,,,,,,,,,,,,,,,,,,,,,,,1,0.7097,,,,,,,,,,,,,,0,63,63,77,1,,,,,,,,,,,,,space,0.9534,,,,,,,,,,,,,,,,,,,,,,,,,,,,,,,,,,,,,,,,,,,,,,,,,,,,,,,,,,,,
,,,,930683,001,2023-10-10_01h54.00.856,fluency,2022.2.4,Win32,60.0132029,,,,,,,,,,,,,,,,,,,,,,,10,8,img/B08_10.jpg,BLEND,Press J if the face is a BLEND and K if the face is a NON-BLEND,A blend is a computer-generated image created by combining together multiple photos of real human faces. A non-blend is a regular photo of a human face.,JK,,,,,,,,,,,,,,,,,,,,,,,,,,,,,,,,,,,,,,,,,,,,,,,,,,,,,844.4785,0,64,64,87,1,109,0,0,0,0,1,98,,,,,,,,,,,,,,,,,,,,,,,,,,,,,,,,,,,,,,,,,,,,,,,,,,,,,,,,,,,,,,,,,,,
,,,,930683,001,2023-10-10_01h54.00.856,fluency,2022.2.4,Win32,60.0132029,,,,,,,,,,,,,,,,,,,,,,,,,,,,,,,,,,,,,,,,,,,,,,,,,,,,,,,,,,,,,,,,,,,,,,,,,,,,,,,,,,,,,,,,,0,0,0,0,1,,"[""j""]",[1.7034999999999627],1,"[""j""]",[1.7034000000058995],,,,,,,,,,,,,,,,,,,,,,,,,,,,,,,,,,,,,,,,,,,,,,,,,,,,,,,,,,,,,,
,,,,930683,001,2023-10-10_01h54.00.856,fluency,2022.2.4,Win32,60.0132029,,,,,,,,,,,,,,,,,,,,,,,10,8,img/B08_10.jpg,BLEND,Press J if the face is a BLEND and K if the face is a NON-BLEND,A blend is a computer-generated image created by combining together multiple photos of real human faces. A non-blend is a regular photo of a human face.,JK,,,,,,,,,,,,,,,,,,,,,,,,,,,,,,,,,,,,,,,1,0.8089,,,,,,,,,,,,,,0,64,64,87,1,,,,,,,,,,,,,space,0.5369,,,,,,,,,,,,,,,,,,,,,,,,,,,,,,,,,,,,,,,,,,,,,,,,,,,,,,,,,,,,
,,,,930683,001,2023-10-10_01h54.00.856,fluency,2022.2.4,Win32,60.0132029,,,,,,,,,,,,,,,,,,,,,,,6,2,img/B02_06.jpg,BLEND,Press J if the face is a BLEND and K if the face is a NON-BLEND,A blend is a computer-generated image created by combining together multiple photos of real human faces. A non-blend is a regular photo of a human face.,JK,,,,,,,,,,,,,,,,,,,,,,,,,,,,,,,,,,,,,,,,,,,,,,,,,,,,,850.8995,0,65,65,17,1,109,0,0,0,0,1,98,,,,,,,,,,,,,,,,,,,,,,,,,,,,,,,,,,,,,,,,,,,,,,,,,,,,,,,,,,,,,,,,,,,
,,,,930683,001,2023-10-10_01h54.00.856,fluency,2022.2.4,Win32,60.0132029,,,,,,,,,,,,,,,,,,,,,,,,,,,,,,,,,,,,,,,,,,,,,,,,,,,,,,,,,,,,,,,,,,,,,,,,,,,,,,,,,,,,,,,,,0,0,0,0,1,,"[""j""]",[1.25100000000009],1,"[""j""]",[1.25100000000009],,,,,,,,,,,,,,,,,,,,,,,,,,,,,,,,,,,,,,,,,,,,,,,,,,,,,,,,,,,,,,
,,,,930683,001,2023-10-10_01h54.00.856,fluency,2022.2.4,Win32,60.0132029,,,,,,,,,,,,,,,,,,,,,,,6,2,img/B02_06.jpg,BLEND,Press J if the face is a BLEND and K if the face is a NON-BLEND,A blend is a computer-generated image created by combining together multiple photos of real human faces. A non-blend is a regular photo of a human face.,JK,,,,,,,,,,,,,,,,,,,,,,,,,,,,,,,,,,,,,,,3,0.5313,,,,,,,,,,,,,,0,65,65,17,1,,,,,,,,,,,,,space,0.9955,,,,,,,,,,,,,,,,,,,,,,,,,,,,,,,,,,,,,,,,,,,,,,,,,,,,,,,,,,,,
,,,,930683,001,2023-10-10_01h54.00.856,fluency,2022.2.4,Win32,60.0132029,,,,,,,,,,,,,,,,,,,,,,,0,1,img/B01_00.jpg,BLEND,Press J if the face is a BLEND and K if the face is a NON-BLEND,A blend is a computer-generated image created by combining together multiple photos of real human faces. A non-blend is a regular photo of a human face.,JK,,,,,,,,,,,,,,,,,,,,,,,,,,,,,,,,,,,,,,,,,,,,,,,,,,,,,856.4722,0,66,66,0,1,109,0,0,0,0,1,98,,,,,,,,,,,,,,,,,,,,,,,,,,,,,,,,,,,,,,,,,,,,,,,,,,,,,,,,,,,,,,,,,,,
,,,,930683,001,2023-10-10_01h54.00.856,fluency,2022.2.4,Win32,60.0132029,,,,,,,,,,,,,,,,,,,,,,,,,,,,,,,,,,,,,,,,,,,,,,,,,,,,,,,,,,,,,,,,,,,,,,,,,,,,,,,,,,,,,,,,,0,0,0,0,1,,"[""k""]",[1.4722000000028856],1,"[""k"",""2""]","[1.4720999999940432,2.887299999997026]",,,,,,,,,,,,,,,,,,,,,,,,,,,,,,,,,,,,,,,,,,,,,,,,,,,,,,,,,,,,,,
,,,,930683,001,2023-10-10_01h54.00.856,fluency,2022.2.4,Win32,60.0132029,,,,,,,,,,,,,,,,,,,,,,,0,1,img/B01_00.jpg,BLEND,Press J if the face is a BLEND and K if the face is a NON-BLEND,A blend is a computer-generated image created by combining together multiple photos of real human faces. A non-blend is a regular photo of a human face.,JK,,,,,,,,,,,,,,,,,,,,,,,,,,,,,,,,,,,,,,,2,0.562,,,,,,,,,,,,,,0,66,66,0,1,,,,,,,,,,,,,space,0.6717,,,,,,,,,,,,,,,,,,,,,,,,,,,,,,,,,,,,,,,,,,,,,,,,,,,,,,,,,,,,
,,,,930683,001,2023-10-10_01h54.00.856,fluency,2022.2.4,Win32,60.0132029,,,,,,,,,,,,,,,,,,,,,,,9,4,img/B04_09.jpg,BLEND,Press J if the face is a BLEND and K if the face is a NON-BLEND,A blend is a computer-generated image created by combining together multiple photos of real human faces. A non-blend is a regular photo of a human face.,JK,,,,,,,,,,,,,,,,,,,,,,,,,,,,,,,,,,,,,,,,,,,,,,,,,,,,,862.7717,0,67,67,42,1,109,0,0,0,0,1,98,,,,,,,,,,,,,,,,,,,,,,,,,,,,,,,,,,,,,,,,,,,,,,,,,,,,,,,,,,,,,,,,,,,
,,,,930683,001,2023-10-10_01h54.00.856,fluency,2022.2.4,Win32,60.0132029,,,,,,,,,,,,,,,,,,,,,,,,,,,,,,,,,,,,,,,,,,,,,,,,,,,,,,,,,,,,,,,,,,,,,,,,,,,,,,,,,,,,,,,,,0,0,0,0,1,,"[""j""]",[0.8301000000089971],1,"[""j""]",[0.8299000000059777],,,,,,,,,,,,,,,,,,,,,,,,,,,,,,,,,,,,,,,,,,,,,,,,,,,,,,,,,,,,,,
,,,,930683,001,2023-10-10_01h54.00.856,fluency,2022.2.4,Win32,60.0132029,,,,,,,,,,,,,,,,,,,,,,,9,4,img/B04_09.jpg,BLEND,Press J if the face is a BLEND and K if the face is a NON-BLEND,A blend is a computer-generated image created by combining together multiple photos of real human faces. A non-blend is a regular photo of a human face.,JK,,,,,,,,,,,,,,,,,,,,,,,,,,,,,,,,,,,,,,,1,0.405,,,,,,,,,,,,,,0,67,67,42,1,,,,,,,,,,,,,space,1.3541,,,,,,,,,,,,,,,,,,,,,,,,,,,,,,,,,,,,,,,,,,,,,,,,,,,,,,,,,,,,
,,,,930683,001,2023-10-10_01h54.00.856,fluency,2022.2.4,Win32,60.0132029,,,,,,,,,,,,,,,,,,,,,,,3,1,img/B01_03.jpg,BLEND,Press J if the face is a BLEND and K if the face is a NON-BLEND,A blend is a computer-generated image created by combining together multiple photos of real human faces. A non-blend is a regular photo of a human face.,JK,,,,,,,,,,,,,,,,,,,,,,,,,,,,,,,,,,,,,,,,,,,,,,,,,,,,,868.6059,0,68,68,3,1,109,0,0,0,0,1,98,,,,,,,,,,,,,,,,,,,,,,,,,,,,,,,,,,,,,,,,,,,,,,,,,,,,,,,,,,,,,,,,,,,
,,,,930683,001,2023-10-10_01h54.00.856,fluency,2022.2.4,Win32,60.0132029,,,,,,,,,,,,,,,,,,,,,,,,,,,,,,,,,,,,,,,,,,,,,,,,,,,,,,,,,,,,,,,,,,,,,,,,,,,,,,,,,,,,,,,,,0,0,0,0,1,,"[""j""]",[1.525299999996946],1,"[""j""]",[1.525299999996946],,,,,,,,,,,,,,,,,,,,,,,,,,,,,,,,,,,,,,,,,,,,,,,,,,,,,,,,,,,,,,
,,,,930683,001,2023-10-10_01h54.00.856,fluency,2022.2.4,Win32,60.0132029,,,,,,,,,,,,,,,,,,,,,,,3,1,img/B01_03.jpg,BLEND,Press J if the face is a BLEND and K if the face is a NON-BLEND,A blend is a computer-generated image created by combining together multiple photos of real human faces. A non-blend is a regular photo of a human face.,JK,,,,,,,,,,,,,,,,,,,,,,,,,,,,,,,,,,,,,,,2,1.412,,,,,,,,,,,,,,0,68,68,3,1,,,,,,,,,,,,,space,1.3523,,,,,,,,,,,,,,,,,,,,,,,,,,,,,,,,,,,,,,,,,,,,,,,,,,,,,,,,,,,,
,,,,930683,001,2023-10-10_01h54.00.856,fluency,2022.2.4,Win32,60.0132029,,,,,,,,,,,,,,,,,,,,,,,1,6,img/B06_01.jpg,BLEND,Press J if the face is a BLEND and K if the face is a NON-BLEND,A blend is a computer-generated image created by combining together multiple photos of real human faces. A non-blend is a regular photo of a human face.,JK,,,,,,,,,,,,,,,,,,,,,,,,,,,,,,,,,,,,,,,,,,,,,,,,,,,,,875.4593,0,69,69,56,1,109,0,0,0,0,1,98,,,,,,,,,,,,,,,,,,,,,,,,,,,,,,,,,,,,,,,,,,,,,,,,,,,,,,,,,,,,,,,,,,,
,,,,930683,001,2023-10-10_01h54.00.856,fluency,2022.2.4,Win32,60.0132029,,,,,,,,,,,,,,,,,,,,,,,,,,,,,,,,,,,,,,,,,,,,,,,,,,,,,,,,,,,,,,,,,,,,,,,,,,,,,,,,,,,,,,,,,0,0,0,0,1,,"[""k""]",[0.9940999999939777],1,"[""k"",""3""]","[0.9940999999939777,2.8231999999879918]",,,,,,,,,,,,,,,,,,,,,,,,,,,,,,,,,,,,,,,,,,,,,,,,,,,,,,,,,,,,,,
,,,,930683,001,2023-10-10_01h54.00.856,fluency,2022.2.4,Win32,60.0132029,,,,,,,,,,,,,,,,,,,,,,,1,6,img/B06_01.jpg,BLEND,Press J if the face is a BLEND and K if the face is a NON-BLEND,A blend is a computer-generated image created by combining together multiple photos of real human faces. A non-blend is a regular photo of a human face.,JK,,,,,,,,,,,,,,,,,,,,,,,,,,,,,,,,,,,,,,,3,0.4266,,,,,,,,,,,,,,0,69,69,56,1,,,,,,,,,,,,,space,0.5848,,,,,,,,,,,,,,,,,,,,,,,,,,,,,,,,,,,,,,,,,,,,,,,,,,,,,,,,,,,,
,,,,930683,001,2023-10-10_01h54.00.856,fluency,2022.2.4,Win32,60.0132029,,,,,,,,,,,,,,,,,,,,,,,0,2,img/B02_00.jpg,BLEND,Press J if the face is a BLEND and K if the face is a NON-BLEND,A blend is a computer-generated image created by combining together multiple photos of real human faces. A non-blend is a regular photo of a human face.,JK,,,,,,,,,,,,,,,,,,,,,,,,,,,,,,,,,,,,,,,,,,,,,,,,,,,,,880.5703,0,70,70,11,1,109,0,0,0,0,1,98,,,,,,,,,,,,,,,,,,,,,,,,,,,,,,,,,,,,,,,,,,,,,,,,,,,,,,,,,,,,,,,,,,,
,,,,930683,001,2023-10-10_01h54.00.856,fluency,2022.2.4,Win32,60.0132029,,,,,,,,,,,,,,,,,,,,,,,,,,,,,,,,,,,,,,,,,,,,,,,,,,,,,,,,,,,,,,,,,,,,,,,,,,,,,,,,,,,,,,,,,0,0,0,0,1,,"[""j""]",[0.6913000000118927],1,"[""j""]",[0.6912000000029366],,,,,,,,,,,,,,,,,,,,,,,,,,,,,,,,,,,,,,,,,,,,,,,,,,,,,,,,,,,,,,
,,,,930683,001,2023-10-10_01h54.00.856,fluency,2022.2.4,Win32,60.0132029,,,,,,,,,,,,,,,,,,,,,,,0,2,img/B02_00.jpg,BLEND,Press J if the face is a BLEND and K if the face is a NON-BLEND,A blend is a computer-generated image created by combining together multiple photos of real human faces. A non-blend is a regular photo of a human face.,JK,,,,,,,,,,,,,,,,,,,,,,,,,,,,,,,,,,,,,,,1,0.3291,,,,,,,,,,,,,,0,70,70,11,1,,,,,,,,,,,,,space,0.8182,,,,,,,,,,,,,,,,,,,,,,,,,,,,,,,,,,,,,,,,,,,,,,,,,,,,,,,,,,,,
,,,,930683,001,2023-10-10_01h54.00.856,fluency,2022.2.4,Win32,60.0132029,,,,,,,,,,,,,,,,,,,,,,,7,5,img/B05_07.jpg,BLEND,Press J if the face is a BLEND and K if the face is a NON-BLEND,A blend is a computer-generated image created by combining together multiple photos of real human faces. A non-blend is a regular photo of a human face.,JK,,,,,,,,,,,,,,,,,,,,,,,,,,,,,,,,,,,,,,,,,,,,,,,,,,,,,885.7854,0,71,71,51,1,109,0,0,0,0,1,98,,,,,,,,,,,,,,,,,,,,,,,,,,,,,,,,,,,,,,,,,,,,,,,,,,,,,,,,,,,,,,,,,,,
,,,,930683,001,2023-10-10_01h54.00.856,fluency,2022.2.4,Win32,60.0132029,,,,,,,,,,,,,,,,,,,,,,,,,,,,,,,,,,,,,,,,,,,,,,,,,,,,,,,,,,,,,,,,,,,,,,,,,,,,,,,,,,,,,,,,,0,0,0,0,1,,"[""k""]",[1.436700000003043],1,"[""k""]",[1.436700000003043],,,,,,,,,,,,,,,,,,,,,,,,,,,,,,,,,,,,,,,,,,,,,,,,,,,,,,,,,,,,,,
