idTextbox.text,welcomeDone.numClicks,welcomeDone.timesOn,welcomeDone.timesOff,participant,session,date,expName,psychopyVersion,OS,frameRate,consent_advance.keys,consent_advance.rt,consent_advance_2.keys,consent_advance_2.rt,consentClick.x,consentClick.y,consentClick.leftButton,consentClick.midButton,consentClick.rightButton,consentClick.time,consentClick.clicked_name,instr_advance_3.keys,instr_advance_3.rt,spec_instr_adv.keys,spec_instr_adv.rt,spec_instr_adv2.keys,spec_instr_adv2.rt,instrLoop.thisRepN,instrLoop.thisTrialN,instrLoop.thisN,instrLoop.thisIndex,instrLoop.ran,steps,fams,face_file,cond,instr,term,key_map,attnKeyResp1.keys,attnKeyResp1.rt,q1.thisRepN,q1.thisTrialN,q1.thisN,q1.thisIndex,q1.ran,attnKeyResp2.keys,attnKeyResp2.rt,q2.thisRepN,q2.thisTrialN,q2.thisN,q2.thisIndex,q2.ran,attnKeyResp3.keys,attnKeyResp3.rt,q3.thisRepN,q3.thisTrialN,q3.thisN,q3.thisIndex,q3.ran,practiceStart.keys,practiceStart.rt,practiceResp.keys,practiceResp.rt,timesRedone,practiceRepeat.thisRepN,practiceRepeat.thisTrialN,practiceRepeat.thisN,practiceRepeat.thisIndex,practiceRepeat.ran,attrRating.keys,attrRating.rt,practiceTrial.thisRepN,practiceTrial.thisTrialN,practiceTrial.thisN,practiceTrial.thisIndex,practiceTrial.ran,key_resp_3.keys,key_resp_3.rt,attnChecker.thisRepN,attnChecker.thisTrialN,attnChecker.thisN,attnChecker.thisIndex,attnChecker.ran,faceOnsetTime,trials.thisRepN,trials.thisTrialN,trials.thisN,trials.thisIndex,trials.ran,trials.order,repeat_loop.thisRepN,repeat_loop.thisTrialN,repeat_loop.thisN,repeat_loop.thisIndex,repeat_loop.ran,repeat_loop.order,catResp.keys,catResp.rt,globalTimesRedone,catAllKeys.keys,catAllKeys.rt,contResp.keys,contResp.rt,redo_keypress.keys,redo_keypress.rt,redo_feedback_loop.thisRepN,redo_feedback_loop.thisTrialN,redo_feedback_loop.thisN,redo_feedback_loop.thisIndex,redo_feedback_loop.ran,contResp_2.keys,contResp_2.rt,respQ1.response,respQ1.rt,respQ2.response,respQ2.rt,respQ3.response,respQ3.rt,respQ4.response,respQ4.rt,surveyContinue1.numClicks,surveyContinue1.timesOn,surveyContinue1.timesOff,respQ5.response,respQ5.rt,respQ6.response,respQ6.rt,respQ7.response,respQ7.rt,respQ8.response,respQ8.rt,surveyContinue2.numClicks,surveyContinue2.timesOn,surveyContinue2.timesOff,respQ9.response,respQ9.rt,respQ10.response,respQ10.rt,respQ11.response,respQ11.rt,respQ12.response,respQ12.rt,surveyContinue3.numClicks,surveyContinue3.timesOn,surveyContinue3.timesOff,respQ13.response,respQ13.rt,respQ14.response,respQ14.rt,respQ15.response,respQ15.rt,surveyContinue4.numClicks,surveyContinue4.timesOn,surveyContinue4.timesOff,respAge.response,respAge.rt,genderResp1.response,genderResp1.rt,genderResp2.text,demogexitClick.numClicks,demogexitClick.timesOn,demogexitClick.timesOff,textbox.text,openAnswerClick.numClicks,openAnswerClick.timesOn,openAnswerClick.timesOff,debriefEnd.keys,debriefEnd.rt,exitKey.keys,exitKey.rt
6511f1f1490c9df9f8c7890e,1,[5.229000000000001],[5.229000000000001],006293,001,2023-11-02_17h51.13.734,fluency,2022.2.4,Win32,144.092219,,,,,,,,,,,,,,,,,,,,,,,,,,,,,,,,,,,,,,,,,,,,,,,,,,,,,,,,,,,,,,,,,,,,,,,,,,,,,,,,,,,,,,,,,,,,,,,,,,,,,,,,,,,,,,,,,,,,,,,,,,,,,,,,,,,,,,,,,,,,,,,,,,,,,,,,,,,,,,,,,
,,,,006293,001,2023-11-02_17h51.13.734,fluency,2022.2.4,Win32,144.092219,space,0.731,,,,,,,,,,,,,,,,,,,,,,,,,,,,,,,,,,,,,,,,,,,,,,,,,,,,,,,,,,,,,,,,,,,,,,,,,,,,,,,,,,,,,,,,,,,,,,,,,,,,,,,,,,,,,,,,,,,,,,,,,,,,,,,,,,,,,,,,,,,,,,,,,,,,,,,,,,,,,,,
,,,,006293,001,2023-11-02_17h51.13.734,fluency,2022.2.4,Win32,144.092219,,,space,29.352,,,,,,,,,,,,,,,,,,,,,,,,,,,,,,,,,,,,,,,,,,,,,,,,,,,,,,,,,,,,,,,,,,,,,,,,,,,,,,,,,,,,,,,,,,,,,,,,,,,,,,,,,,,,,,,,,,,,,,,,,,,,,,,,,,,,,,,,,,,,,,,,,,,,,,,,,,,,,
,,,,006293,001,2023-11-02_17h51.13.734,fluency,2022.2.4,Win32,144.092219,,,,,0.293501048,-0.35115304,1,0,0,2.048,iAgree,,,,,,,,,,,,,,,,,,,,,,,,,,,,,,,,,,,,,,,,,,,,,,,,,,,,,,,,,,,,,,,,,,,,,,,,,,,,,,,,,,,,,,,,,,,,,,,,,,,,,,,,,,,,,,,,,,,,,,,,,,,,,,,,,,,,,,,,,,,,,,,,,,,,,,
,,,,006293,001,2023-11-02_17h51.13.734,fluency,2022.2.4,Win32,144.092219,,,,,,,,,,,,space,4.603,,,,,,,,,,,,,,,,,,,,,,,,,,,,,,,,,,,,,,,,,,,,,,,,,,,,,,,,,,,,,,,,,,,,,,,,,,,,,,,,,,,,,,,,,,,,,,,,,,,,,,,,,,,,,,,,,,,,,,,,,,,,,,,,,,,,,,,,,,,,,,,,,,,,
,,,,006293,001,2023-11-02_17h51.13.734,fluency,2022.2.4,Win32,144.092219,,,,,,,,,,,,,,space,1.131,space,3.755,0,0,0,18,1,7,2,img/B02_07.jpg,MF,Press J if the face is FEMALE and K if the face is MALE, ,KJ,,,,,,,,,,,,,,,,,,,,,,,,,,,,,,,,,,,,,,,,,,,,,,,,,,,,,,,,,,,,,,,,,,,,,,,,,,,,,,,,,,,,,,,,,,,,,,,,,,,,,,,,,,,,,,,,,,,,,,,,,,,,,,,,,,,,
,,,,006293,001,2023-11-02_17h51.13.734,fluency,2022.2.4,Win32,144.092219,,,,,,,,,,,,,,,,,,,,,,,,,,,,,,c,4.593,0,0,0,0,1,,,,,,,,,,,,,,,,,,,,,,,,,,,,,,,,,,,,,,,,,,,,,,,,,,,,,,,,,,,,,,,,,,,,,,,,,,,,,,,,,,,,,,,,,,,,,,,,,,,,,,,,,,,,,,,,,,,,,,,,,,,,,
,,,,006293,001,2023-11-02_17h51.13.734,fluency,2022.2.4,Win32,144.092219,,,,,,,,,,,,,,,,,,,,,,,,,,,,,,,,,,,,,a,2.106,0,0,0,0,1,,,,,,,,,,,,,,,,,,,,,,,,,,,,,,,,,,,,,,,,,,,,,,,,,,,,,,,,,,,,,,,,,,,,,,,,,,,,,,,,,,,,,,,,,,,,,,,,,,,,,,,,,,,,,,,,,,,,,,
,,,,006293,001,2023-11-02_17h51.13.734,fluency,2022.2.4,Win32,144.092219,,,,,,,,,,,,,,,,,,,,,,,,,,,,,,,,,,,,,,,,,,,,c,1.979,0,0,0,0,1,,,,,,,,,,,,,,,,,,,,,,,,,,,,,,,,,,,,,,,,,,,,,,,,,,,,,,,,,,,,,,,,,,,,,,,,,,,,,,,,,,,,,,,,,,,,,,,,,,,,,,,,,,,,,,,
,,,,006293,001,2023-11-02_17h51.13.734,fluency,2022.2.4,Win32,144.092219,,,,,,,,,,,,,,,,,,,,,,,,,,,,,,,,,,,,,,,,,,,,,,,,,,,space,2.195,k,2.091,0,0,0,0,0,1,,,,,,,,,,,,,,,,,,,,,,,,,,,,,,,,,,,,,,,,,,,,,,,,,,,,,,,,,,,,,,,,,,,,,,,,,,,,,,,,,,,,,,,,,,,,,,,,,,,,,
,,,,006293,001,2023-11-02_17h51.13.734,fluency,2022.2.4,Win32,144.092219,,,,,,,,,,,,,,,,,,,,,,,,,,,,,,,,,,,,,,,,,,,,,,,,,,,,,,,,,,,,,5,2.657,0,0,0,0,1,,,,,,,,,,,,,,,,,,,,,,,,,,,,,,,,,,,,,,,,,,,,,,,,,,,,,,,,,,,,,,,,,,,,,,,,,,,,,,,,,,,,,,,,,,,,,,
,,,,006293,001,2023-11-02_17h51.13.734,fluency,2022.2.4,Win32,144.092219,,,,,,,,,,,,,,,,,,,,,,,,,,,,,,,,,,,,,,,,,,,,,,,,,,,,,,,,,,,,,,,,,,,,space,2.522,0,0,0,0,1,,,,,,,,,,,,,,,,,,,,,,,,,,,,,,,,,,,,,,,,,,,,,,,,,,,,,,,,,,,,,,,,,,,,,,,,,,,,,,,,,,,,,,,
,,,,006293,001,2023-11-02_17h51.13.734,fluency,2022.2.4,Win32,144.092219,,,,,,,,,,,,,,,,,,,,,,,4,6,img/B06_04.jpg,MF,Press J if the face is FEMALE and K if the face is MALE, ,KJ,,,,,,,,,,,,,,,,,,,,,,,,,,,,,,,,,,,,,,,,,,,,,,88.149,0,0,0,59,1,109,0,0,0,0,1,98,,,,,,,,,,,,,,,,,,,,,,,,,,,,,,,,,,,,,,,,,,,,,,,,,,,,,,,,,,,,,,,,,,,,,,,,,,
,,,,006293,001,2023-11-02_17h51.13.734,fluency,2022.2.4,Win32,144.092219,,,,,,,,,,,,,,,,,,,,,,,,,,,,,,,,,,,,,,,,,,,,,,,,,,,,,,,,,,,,,,,,,,,,,,,,,,,,,,,,,,0,0,0,0,1,,"[""j""]",[0.9380000000000024],0,"[""j""]",[0.9380000000000024],,,,,,,,,,,,,,,,,,,,,,,,,,,,,,,,,,,,,,,,,,,,,,,,,,,,,,,,,,,,,,,,,,,,,
,,,,006293,001,2023-11-02_17h51.13.734,fluency,2022.2.4,Win32,144.092219,,,,,,,,,,,,,,,,,,,,,,,4,6,img/B06_04.jpg,MF,Press J if the face is FEMALE and K if the face is MALE, ,KJ,,,,,,,,,,,,,,,,,,,,,,,,,,,,,,,,1,4.392,,,,,,,,,,,,,,0,0,0,59,1,,,,,,,,,,,,,space,7.116,,,,,,,,,,,,,,,,,,,,,,,,,,,,,,,,,,,,,,,,,,,,,,,,,,,,,,,,,,,,,,,,,,,
,,,,006293,001,2023-11-02_17h51.13.734,fluency,2022.2.4,Win32,144.092219,,,,,,,,,,,,,,,,,,,,,,,2,4,img/B04_02.jpg,MF,Press J if the face is FEMALE and K if the face is MALE, ,KJ,,,,,,,,,,,,,,,,,,,,,,,,,,,,,,,,,,,,,,,,,,,,,,104.697,0,1,1,35,1,109,0,0,0,0,1,98,,,,,,,,,,,,,,,,,,,,,,,,,,,,,,,,,,,,,,,,,,,,,,,,,,,,,,,,,,,,,,,,,,,,,,,,,,
,,,,006293,001,2023-11-02_17h51.13.734,fluency,2022.2.4,Win32,144.092219,,,,,,,,,,,,,,,,,,,,,,,,,,,,,,,,,,,,,,,,,,,,,,,,,,,,,,,,,,,,,,,,,,,,,,,,,,,,,,,,,,0,0,0,0,1,,"[""k""]",[0.7710000000000008],0,"[""k""]",[0.7710000000000008],,,,,,,,,,,,,,,,,,,,,,,,,,,,,,,,,,,,,,,,,,,,,,,,,,,,,,,,,,,,,,,,,,,,,
,,,,006293,001,2023-11-02_17h51.13.734,fluency,2022.2.4,Win32,144.092219,,,,,,,,,,,,,,,,,,,,,,,2,4,img/B04_02.jpg,MF,Press J if the face is FEMALE and K if the face is MALE, ,KJ,,,,,,,,,,,,,,,,,,,,,,,,,,,,,,,,9,4.551,,,,,,,,,,,,,,0,1,1,35,1,,,,,,,,,,,,,space,0.889,,,,,,,,,,,,,,,,,,,,,,,,,,,,,,,,,,,,,,,,,,,,,,,,,,,,,,,,,,,,,,,,,,,
,,,,006293,001,2023-11-02_17h51.13.734,fluency,2022.2.4,Win32,144.092219,,,,,,,,,,,,,,,,,,,,,,,4,8,img/B08_04.jpg,MF,Press J if the face is FEMALE and K if the face is MALE, ,KJ,,,,,,,,,,,,,,,,,,,,,,,,,,,,,,,,,,,,,,,,,,,,,,114.168,0,2,2,81,1,109,0,0,0,0,1,98,,,,,,,,,,,,,,,,,,,,,,,,,,,,,,,,,,,,,,,,,,,,,,,,,,,,,,,,,,,,,,,,,,,,,,,,,,
,,,,006293,001,2023-11-02_17h51.13.734,fluency,2022.2.4,Win32,144.092219,,,,,,,,,,,,,,,,,,,,,,,,,,,,,,,,,,,,,,,,,,,,,,,,,,,,,,,,,,,,,,,,,,,,,,,,,,,,,,,,,,0,0,0,0,1,,"[""j""]",[1.3259999999999934],0,"[""j""]",[1.3259999999999934],,,,,,,,,,,,,,,,,,,,,,,,,,,,,,,,,,,,,,,,,,,,,,,,,,,,,,,,,,,,,,,,,,,,,
,,,,006293,001,2023-11-02_17h51.13.734,fluency,2022.2.4,Win32,144.092219,,,,,,,,,,,,,,,,,,,,,,,4,8,img/B08_04.jpg,MF,Press J if the face is FEMALE and K if the face is MALE, ,KJ,,,,,,,,,,,,,,,,,,,,,,,,,,,,,,,,3,0.976,,,,,,,,,,,,,,0,2,2,81,1,,,,,,,,,,,,,space,0.432,,,,,,,,,,,,,,,,,,,,,,,,,,,,,,,,,,,,,,,,,,,,,,,,,,,,,,,,,,,,,,,,,,,
,,,,006293,001,2023-11-02_17h51.13.734,fluency,2022.2.4,Win32,144.092219,,,,,,,,,,,,,,,,,,,,,,,1,1,img/B01_01.jpg,MF,Press J if the face is FEMALE and K if the face is MALE, ,KJ,,,,,,,,,,,,,,,,,,,,,,,,,,,,,,,,,,,,,,,,,,,,,,119.606,0,3,3,1,1,109,0,0,0,0,1,98,,,,,,,,,,,,,,,,,,,,,,,,,,,,,,,,,,,,,,,,,,,,,,,,,,,,,,,,,,,,,,,,,,,,,,,,,,
,,,,006293,001,2023-11-02_17h51.13.734,fluency,2022.2.4,Win32,144.092219,,,,,,,,,,,,,,,,,,,,,,,,,,,,,,,,,,,,,,,,,,,,,,,,,,,,,,,,,,,,,,,,,,,,,,,,,,,,,,,,,,0,0,0,0,1,,"[""k""]",[2.480000000000004],0,"[""space"",""k""]","[1.5229999999999961,2.480000000000004]",,,,,,,,,,,,,,,,,,,,,,,,,,,,,,,,,,,,,,,,,,,,,,,,,,,,,,,,,,,,,,,,,,,,,
,,,,006293,001,2023-11-02_17h51.13.734,fluency,2022.2.4,Win32,144.092219,,,,,,,,,,,,,,,,,,,,,,,1,1,img/B01_01.jpg,MF,Press J if the face is FEMALE and K if the face is MALE, ,KJ,,,,,,,,,,,,,,,,,,,,,,,,,,,,,,,,3,1.464,,,,,,,,,,,,,,0,3,3,1,1,,,,,,,,,,,,,space,2.125,,,,,,,,,,,,,,,,,,,,,,,,,,,,,,,,,,,,,,,,,,,,,,,,,,,,,,,,,,,,,,,,,,,
,,,,006293,001,2023-11-02_17h51.13.734,fluency,2022.2.4,Win32,144.092219,,,,,,,,,,,,,,,,,,,,,,,4,4,img/B04_04.jpg,MF,Press J if the face is FEMALE and K if the face is MALE, ,KJ,,,,,,,,,,,,,,,,,,,,,,,,,,,,,,,,,,,,,,,,,,,,,,127.226,0,4,4,37,1,109,0,0,0,0,1,98,,,,,,,,,,,,,,,,,,,,,,,,,,,,,,,,,,,,,,,,,,,,,,,,,,,,,,,,,,,,,,,,,,,,,,,,,,
,,,,006293,001,2023-11-02_17h51.13.734,fluency,2022.2.4,Win32,144.092219,,,,,,,,,,,,,,,,,,,,,,,,,,,,,,,,,,,,,,,,,,,,,,,,,,,,,,,,,,,,,,,,,,,,,,,,,,,,,,,,,,0,0,0,0,1,,"[""j""]",[1.396000000000015],0,"[""j""]",[1.396000000000015],,,,,,,,,,,,,,,,,,,,,,,,,,,,,,,,,,,,,,,,,,,,,,,,,,,,,,,,,,,,,,,,,,,,,
,,,,006293,001,2023-11-02_17h51.13.734,fluency,2022.2.4,Win32,144.092219,,,,,,,,,,,,,,,,,,,,,,,4,4,img/B04_04.jpg,MF,Press J if the face is FEMALE and K if the face is MALE, ,KJ,,,,,,,,,,,,,,,,,,,,,,,,,,,,,,,,5,1.363,,,,,,,,,,,,,,0,4,4,37,1,,,,,,,,,,,,,space,0.889,,,,,,,,,,,,,,,,,,,,,,,,,,,,,,,,,,,,,,,,,,,,,,,,,,,,,,,,,,,,,,,,,,,
,,,,006293,001,2023-11-02_17h51.13.734,fluency,2022.2.4,Win32,144.092219,,,,,,,,,,,,,,,,,,,,,,,4,9,img/B09_04.jpg,MF,Press J if the face is FEMALE and K if the face is MALE, ,KJ,,,,,,,,,,,,,,,,,,,,,,,,,,,,,,,,,,,,,,,,,,,,,,133.508,0,5,5,92,1,109,0,0,0,0,1,98,,,,,,,,,,,,,,,,,,,,,,,,,,,,,,,,,,,,,,,,,,,,,,,,,,,,,,,,,,,,,,,,,,,,,,,,,,
,,,,006293,001,2023-11-02_17h51.13.734,fluency,2022.2.4,Win32,144.092219,,,,,,,,,,,,,,,,,,,,,,,,,,,,,,,,,,,,,,,,,,,,,,,,,,,,,,,,,,,,,,,,,,,,,,,,,,,,,,,,,,0,0,0,0,1,,"[""j""]",[0.8760000000000048],0,"[""j""]",[0.8760000000000048],,,,,,,,,,,,,,,,,,,,,,,,,,,,,,,,,,,,,,,,,,,,,,,,,,,,,,,,,,,,,,,,,,,,,
,,,,006293,001,2023-11-02_17h51.13.734,fluency,2022.2.4,Win32,144.092219,,,,,,,,,,,,,,,,,,,,,,,4,9,img/B09_04.jpg,MF,Press J if the face is FEMALE and K if the face is MALE, ,KJ,,,,,,,,,,,,,,,,,,,,,,,,,,,,,,,,5,1.177,,,,,,,,,,,,,,0,5,5,92,1,,,,,,,,,,,,,space,2.098,,,,,,,,,,,,,,,,,,,,,,,,,,,,,,,,,,,,,,,,,,,,,,,,,,,,,,,,,,,,,,,,,,,
,,,,006293,001,2023-11-02_17h51.13.734,fluency,2022.2.4,Win32,144.092219,,,,,,,,,,,,,,,,,,,,,,,6,1,img/B01_06.jpg,MF,Press J if the face is FEMALE and K if the face is MALE, ,KJ,,,,,,,,,,,,,,,,,,,,,,,,,,,,,,,,,,,,,,,,,,,,,,140.814,0,6,6,6,1,109,0,0,0,0,1,98,,,,,,,,,,,,,,,,,,,,,,,,,,,,,,,,,,,,,,,,,,,,,,,,,,,,,,,,,,,,,,,,,,,,,,,,,,
,,,,006293,001,2023-11-02_17h51.13.734,fluency,2022.2.4,Win32,144.092219,,,,,,,,,,,,,,,,,,,,,,,,,,,,,,,,,,,,,,,,,,,,,,,,,,,,,,,,,,,,,,,,,,,,,,,,,,,,,,,,,,0,0,0,0,1,,"[""j""]",[1.063999999999993],0,"[""j""]",[1.063999999999993],,,,,,,,,,,,,,,,,,,,,,,,,,,,,,,,,,,,,,,,,,,,,,,,,,,,,,,,,,,,,,,,,,,,,
,,,,006293,001,2023-11-02_17h51.13.734,fluency,2022.2.4,Win32,144.092219,,,,,,,,,,,,,,,,,,,,,,,6,1,img/B01_06.jpg,MF,Press J if the face is FEMALE and K if the face is MALE, ,KJ,,,,,,,,,,,,,,,,,,,,,,,,,,,,,,,,5,0.845,,,,,,,,,,,,,,0,6,6,6,1,,,,,,,,,,,,,space,1.799,,,,,,,,,,,,,,,,,,,,,,,,,,,,,,,,,,,,,,,,,,,,,,,,,,,,,,,,,,,,,,,,,,,
,,,,006293,001,2023-11-02_17h51.13.734,fluency,2022.2.4,Win32,144.092219,,,,,,,,,,,,,,,,,,,,,,,3,5,img/B05_03.jpg,MF,Press J if the face is FEMALE and K if the face is MALE, ,KJ,,,,,,,,,,,,,,,,,,,,,,,,,,,,,,,,,,,,,,,,,,,,,,148.488,0,7,7,47,1,109,0,0,0,0,1,98,,,,,,,,,,,,,,,,,,,,,,,,,,,,,,,,,,,,,,,,,,,,,,,,,,,,,,,,,,,,,,,,,,,,,,,,,,
,,,,006293,001,2023-11-02_17h51.13.734,fluency,2022.2.4,Win32,144.092219,,,,,,,,,,,,,,,,,,,,,,,,,,,,,,,,,,,,,,,,,,,,,,,,,,,,,,,,,,,,,,,,,,,,,,,,,,,,,,,,,,0,0,0,0,1,,"[""j""]",[1.3689999999999998],0,"[""j""]",[1.3689999999999998],,,,,,,,,,,,,,,,,,,,,,,,,,,,,,,,,,,,,,,,,,,,,,,,,,,,,,,,,,,,,,,,,,,,,
,,,,006293,001,2023-11-02_17h51.13.734,fluency,2022.2.4,Win32,144.092219,,,,,,,,,,,,,,,,,,,,,,,3,5,img/B05_03.jpg,MF,Press J if the face is FEMALE and K if the face is MALE, ,KJ,,,,,,,,,,,,,,,,,,,,,,,,,,,,,,,,3,3.187,,,,,,,,,,,,,,0,7,7,47,1,,,,,,,,,,,,,space,1.104,,,,,,,,,,,,,,,,,,,,,,,,,,,,,,,,,,,,,,,,,,,,,,,,,,,,,,,,,,,,,,,,,,,
,,,,006293,001,2023-11-02_17h51.13.734,fluency,2022.2.4,Win32,144.092219,,,,,,,,,,,,,,,,,,,,,,,10,5,img/B05_10.jpg,MF,Press J if the face is FEMALE and K if the face is MALE, ,KJ,,,,,,,,,,,,,,,,,,,,,,,,,,,,,,,,,,,,,,,,,,,,,,156.806,0,8,8,54,1,109,0,0,0,0,1,98,,,,,,,,,,,,,,,,,,,,,,,,,,,,,,,,,,,,,,,,,,,,,,,,,,,,,,,,,,,,,,,,,,,,,,,,,,
,,,,006293,001,2023-11-02_17h51.13.734,fluency,2022.2.4,Win32,144.092219,,,,,,,,,,,,,,,,,,,,,,,,,,,,,,,,,,,,,,,,,,,,,,,,,,,,,,,,,,,,,,,,,,,,,,,,,,,,,,,,,,0,0,0,0,1,,"[""j""]",[1],0,"[""j""]",[1],,,,,,,,,,,,,,,,,,,,,,,,,,,,,,,,,,,,,,,,,,,,,,,,,,,,,,,,,,,,,,,,,,,,,
,,,,006293,001,2023-11-02_17h51.13.734,fluency,2022.2.4,Win32,144.092219,,,,,,,,,,,,,,,,,,,,,,,10,5,img/B05_10.jpg,MF,Press J if the face is FEMALE and K if the face is MALE, ,KJ,,,,,,,,,,,,,,,,,,,,,,,,,,,,,,,,4,1.612,,,,,,,,,,,,,,0,8,8,54,1,,,,,,,,,,,,,space,0.626,,,,,,,,,,,,,,,,,,,,,,,,,,,,,,,,,,,,,,,,,,,,,,,,,,,,,,,,,,,,,,,,,,,
,,,,006293,001,2023-11-02_17h51.13.734,fluency,2022.2.4,Win32,144.092219,,,,,,,,,,,,,,,,,,,,,,,0,1,img/B01_00.jpg,MF,Press J if the face is FEMALE and K if the face is MALE, ,KJ,,,,,,,,,,,,,,,,,,,,,,,,,,,,,,,,,,,,,,,,,,,,,,164.077,0,9,9,0,1,109,0,0,0,0,1,98,,,,,,,,,,,,,,,,,,,,,,,,,,,,,,,,,,,,,,,,,,,,,,,,,,,,,,,,,,,,,,,,,,,,,,,,,,
,,,,006293,001,2023-11-02_17h51.13.734,fluency,2022.2.4,Win32,144.092219,,,,,,,,,,,,,,,,,,,,,,,,,,,,,,,,,,,,,,,,,,,,,,,,,,,,,,,,,,,,,,,,,,,,,,,,,,,,,,,,,,0,0,0,0,1,,"[""k""]",[0.6229999999999905],0,"[""k""]",[0.6229999999999905],,,,,,,,,,,,,,,,,,,,,,,,,,,,,,,,,,,,,,,,,,,,,,,,,,,,,,,,,,,,,,,,,,,,,
,,,,006293,001,2023-11-02_17h51.13.734,fluency,2022.2.4,Win32,144.092219,,,,,,,,,,,,,,,,,,,,,,,0,1,img/B01_00.jpg,MF,Press J if the face is FEMALE and K if the face is MALE, ,KJ,,,,,,,,,,,,,,,,,,,,,,,,,,,,,,,,3,0.322,,,,,,,,,,,,,,0,9,9,0,1,,,,,,,,,,,,,space,0.382,,,,,,,,,,,,,,,,,,,,,,,,,,,,,,,,,,,,,,,,,,,,,,,,,,,,,,,,,,,,,,,,,,,
,,,,006293,001,2023-11-02_17h51.13.734,fluency,2022.2.4,Win32,144.092219,,,,,,,,,,,,,,,,,,,,,,,7,8,img/B08_07.jpg,MF,Press J if the face is FEMALE and K if the face is MALE, ,KJ,,,,,,,,,,,,,,,,,,,,,,,,,,,,,,,,,,,,,,,,,,,,,,168.813,0,10,10,84,1,109,0,0,0,0,1,98,,,,,,,,,,,,,,,,,,,,,,,,,,,,,,,,,,,,,,,,,,,,,,,,,,,,,,,,,,,,,,,,,,,,,,,,,,
,,,,006293,001,2023-11-02_17h51.13.734,fluency,2022.2.4,Win32,144.092219,,,,,,,,,,,,,,,,,,,,,,,,,,,,,,,,,,,,,,,,,,,,,,,,,,,,,,,,,,,,,,,,,,,,,,,,,,,,,,,,,,0,0,0,0,1,,"[""k""]",[1.5970000000000084],0,"[""k""]",[1.5970000000000084],,,,,,,,,,,,,,,,,,,,,,,,,,,,,,,,,,,,,,,,,,,,,,,,,,,,,,,,,,,,,,,,,,,,,
,,,,006293,001,2023-11-02_17h51.13.734,fluency,2022.2.4,Win32,144.092219,,,,,,,,,,,,,,,,,,,,,,,7,8,img/B08_07.jpg,MF,Press J if the face is FEMALE and K if the face is MALE, ,KJ,,,,,,,,,,,,,,,,,,,,,,,,,,,,,,,,7,0.262,,,,,,,,,,,,,,0,10,10,84,1,,,,,,,,,,,,,space,0.487,,,,,,,,,,,,,,,,,,,,,,,,,,,,,,,,,,,,,,,,,,,,,,,,,,,,,,,,,,,,,,,,,,,
,,,,006293,001,2023-11-02_17h51.13.734,fluency,2022.2.4,Win32,144.092219,,,,,,,,,,,,,,,,,,,,,,,1,6,img/B06_01.jpg,MF,Press J if the face is FEMALE and K if the face is MALE, ,KJ,,,,,,,,,,,,,,,,,,,,,,,,,,,,,,,,,,,,,,,,,,,,,,173.591,0,11,11,56,1,109,0,0,0,0,1,98,,,,,,,,,,,,,,,,,,,,,,,,,,,,,,,,,,,,,,,,,,,,,,,,,,,,,,,,,,,,,,,,,,,,,,,,,,
,,,,006293,001,2023-11-02_17h51.13.734,fluency,2022.2.4,Win32,144.092219,,,,,,,,,,,,,,,,,,,,,,,,,,,,,,,,,,,,,,,,,,,,,,,,,,,,,,,,,,,,,,,,,,,,,,,,,,,,,,,,,,,,,,,,,,1,,,,,space,1.162,0,0,0,0,1,,,,,,,,,,,,,,,,,,,,,,,,,,,,,,,,,,,,,,,,,,,,,,,,,,,,,,,,,,,,
,,,,006293,001,2023-11-02_17h51.13.734,fluency,2022.2.4,Win32,144.092219,,,,,,,,,,,,,,,,,,,,,,,,,,,,,,,,,,,,,,,,,,,,,,,,,,,,,,,,,,,,,,,,,,,,,,,,,,,,,,,,,,0,0,0,0,1,,,,,,,,,,,,,,,,,,,,,,,,,,,,,,,,,,,,,,,,,,,,,,,,,,,,,,,,,,,,,,,,,,,,,,,,,,,
,,,,006293,001,2023-11-02_17h51.13.734,fluency,2022.2.4,Win32,144.092219,,,,,,,,,,,,,,,,,,,,,,,1,6,img/B06_01.jpg,MF,Press J if the face is FEMALE and K if the face is MALE, ,KJ,,,,,,,,,,,,,,,,,,,,,,,,,,,,,,,,,,,,,,,,,,,,,,178.778,0,11,11,56,1,109,1,0,1,0,1,98,,,,,,,,,,,,,,,,,,,,,,,,,,,,,,,,,,,,,,,,,,,,,,,,,,,,,,,,,,,,,,,,,,,,,,,,,,
,,,,006293,001,2023-11-02_17h51.13.734,fluency,2022.2.4,Win32,144.092219,,,,,,,,,,,,,,,,,,,,,,,,,,,,,,,,,,,,,,,,,,,,,,,,,,,,,,,,,,,,,,,,,,,,,,,,,,,,,,,,,,1,0,1,0,1,,"[""k""]",[0.882000000000005],1,"[""k""]",[0.882000000000005],,,,,,,,,,,,,,,,,,,,,,,,,,,,,,,,,,,,,,,,,,,,,,,,,,,,,,,,,,,,,,,,,,,,,
,,,,006293,001,2023-11-02_17h51.13.734,fluency,2022.2.4,Win32,144.092219,,,,,,,,,,,,,,,,,,,,,,,1,6,img/B06_01.jpg,MF,Press J if the face is FEMALE and K if the face is MALE, ,KJ,,,,,,,,,,,,,,,,,,,,,,,,,,,,,,,,5,1.338,,,,,,,,,,,,,,0,11,11,56,1,,,,,,,,,,,,,space,0.847,,,,,,,,,,,,,,,,,,,,,,,,,,,,,,,,,,,,,,,,,,,,,,,,,,,,,,,,,,,,,,,,,,,
,,,,006293,001,2023-11-02_17h51.13.734,fluency,2022.2.4,Win32,144.092219,,,,,,,,,,,,,,,,,,,,,,,7,4,img/B04_07.jpg,MF,Press J if the face is FEMALE and K if the face is MALE, ,KJ,,,,,,,,,,,,,,,,,,,,,,,,,,,,,,,,,,,,,,,,,,,,,,184.993,0,12,12,40,1,109,0,0,0,0,1,98,,,,,,,,,,,,,,,,,,,,,,,,,,,,,,,,,,,,,,,,,,,,,,,,,,,,,,,,,,,,,,,,,,,,,,,,,,
,,,,006293,001,2023-11-02_17h51.13.734,fluency,2022.2.4,Win32,144.092219,,,,,,,,,,,,,,,,,,,,,,,,,,,,,,,,,,,,,,,,,,,,,,,,,,,,,,,,,,,,,,,,,,,,,,,,,,,,,,,,,,0,0,0,0,1,,"[""j""]",[0.7280000000000086],1,"[""j""]",[0.7280000000000086],,,,,,,,,,,,,,,,,,,,,,,,,,,,,,,,,,,,,,,,,,,,,,,,,,,,,,,,,,,,,,,,,,,,,
,,,,006293,001,2023-11-02_17h51.13.734,fluency,2022.2.4,Win32,144.092219,,,,,,,,,,,,,,,,,,,,,,,7,4,img/B04_07.jpg,MF,Press J if the face is FEMALE and K if the face is MALE, ,KJ,,,,,,,,,,,,,,,,,,,,,,,,,,,,,,,,6,0.673,,,,,,,,,,,,,,0,12,12,40,1,,,,,,,,,,,,,space,0.389,,,,,,,,,,,,,,,,,,,,,,,,,,,,,,,,,,,,,,,,,,,,,,,,,,,,,,,,,,,,,,,,,,,
,,,,006293,001,2023-11-02_17h51.13.734,fluency,2022.2.4,Win32,144.092219,,,,,,,,,,,,,,,,,,,,,,,1,8,img/B08_01.jpg,MF,Press J if the face is FEMALE and K if the face is MALE, ,KJ,,,,,,,,,,,,,,,,,,,,,,,,,,,,,,,,,,,,,,,,,,,,,,190.091,0,13,13,78,1,109,0,0,0,0,1,98,,,,,,,,,,,,,,,,,,,,,,,,,,,,,,,,,,,,,,,,,,,,,,,,,,,,,,,,,,,,,,,,,,,,,,,,,,
,,,,006293,001,2023-11-02_17h51.13.734,fluency,2022.2.4,Win32,144.092219,,,,,,,,,,,,,,,,,,,,,,,,,,,,,,,,,,,,,,,,,,,,,,,,,,,,,,,,,,,,,,,,,,,,,,,,,,,,,,,,,,0,0,0,0,1,,"[""k""]",[2.186000000000007],1,"[""k""]",[2.186000000000007],,,,,,,,,,,,,,,,,,,,,,,,,,,,,,,,,,,,,,,,,,,,,,,,,,,,,,,,,,,,,,,,,,,,,
,,,,006293,001,2023-11-02_17h51.13.734,fluency,2022.2.4,Win32,144.092219,,,,,,,,,,,,,,,,,,,,,,,1,8,img/B08_01.jpg,MF,Press J if the face is FEMALE and K if the face is MALE, ,KJ,,,,,,,,,,,,,,,,,,,,,,,,,,,,,,,,5,0.941,,,,,,,,,,,,,,0,13,13,78,1,,,,,,,,,,,,,space,0.813,,,,,,,,,,,,,,,,,,,,,,,,,,,,,,,,,,,,,,,,,,,,,,,,,,,,,,,,,,,,,,,,,,,
,,,,006293,001,2023-11-02_17h51.13.734,fluency,2022.2.4,Win32,144.092219,,,,,,,,,,,,,,,,,,,,,,,10,1,img/B01_10.jpg,MF,Press J if the face is FEMALE and K if the face is MALE, ,KJ,,,,,,,,,,,,,,,,,,,,,,,,,,,,,,,,,,,,,,,,,,,,,,196.875,0,14,14,10,1,109,0,0,0,0,1,98,,,,,,,,,,,,,,,,,,,,,,,,,,,,,,,,,,,,,,,,,,,,,,,,,,,,,,,,,,,,,,,,,,,,,,,,,,
,,,,006293,001,2023-11-02_17h51.13.734,fluency,2022.2.4,Win32,144.092219,,,,,,,,,,,,,,,,,,,,,,,,,,,,,,,,,,,,,,,,,,,,,,,,,,,,,,,,,,,,,,,,,,,,,,,,,,,,,,,,,,0,0,0,0,1,,"[""k""]",[0.8129999999999882],1,"[""k""]",[0.8129999999999882],,,,,,,,,,,,,,,,,,,,,,,,,,,,,,,,,,,,,,,,,,,,,,,,,,,,,,,,,,,,,,,,,,,,,
,,,,006293,001,2023-11-02_17h51.13.734,fluency,2022.2.4,Win32,144.092219,,,,,,,,,,,,,,,,,,,,,,,10,1,img/B01_10.jpg,MF,Press J if the face is FEMALE and K if the face is MALE, ,KJ,,,,,,,,,,,,,,,,,,,,,,,,,,,,,,,,5,0.97,,,,,,,,,,,,,,0,14,14,10,1,,,,,,,,,,,,,space,0.62,,,,,,,,,,,,,,,,,,,,,,,,,,,,,,,,,,,,,,,,,,,,,,,,,,,,,,,,,,,,,,,,,,,
,,,,006293,001,2023-11-02_17h51.13.734,fluency,2022.2.4,Win32,144.092219,,,,,,,,,,,,,,,,,,,,,,,6,5,img/B05_06.jpg,MF,Press J if the face is FEMALE and K if the face is MALE, ,KJ,,,,,,,,,,,,,,,,,,,,,,,,,,,,,,,,,,,,,,,,,,,,,,203.486,0,15,15,50,1,109,0,0,0,0,1,98,,,,,,,,,,,,,,,,,,,,,,,,,,,,,,,,,,,,,,,,,,,,,,,,,,,,,,,,,,,,,,,,,,,,,,,,,,
,,,,006293,001,2023-11-02_17h51.13.734,fluency,2022.2.4,Win32,144.092219,,,,,,,,,,,,,,,,,,,,,,,,,,,,,,,,,,,,,,,,,,,,,,,,,,,,,,,,,,,,,,,,,,,,,,,,,,,,,,,,,,,,,,,,,,2,,,,,space,1.848,0,0,0,0,1,,,,,,,,,,,,,,,,,,,,,,,,,,,,,,,,,,,,,,,,,,,,,,,,,,,,,,,,,,,,
,,,,006293,001,2023-11-02_17h51.13.734,fluency,2022.2.4,Win32,144.092219,,,,,,,,,,,,,,,,,,,,,,,,,,,,,,,,,,,,,,,,,,,,,,,,,,,,,,,,,,,,,,,,,,,,,,,,,,,,,,,,,,0,0,0,0,1,,,,,,,,,,,,,,,,,,,,,,,,,,,,,,,,,,,,,,,,,,,,,,,,,,,,,,,,,,,,,,,,,,,,,,,,,,,
,,,,006293,001,2023-11-02_17h51.13.734,fluency,2022.2.4,Win32,144.092219,,,,,,,,,,,,,,,,,,,,,,,6,5,img/B05_06.jpg,MF,Press J if the face is FEMALE and K if the face is MALE, ,KJ,,,,,,,,,,,,,,,,,,,,,,,,,,,,,,,,,,,,,,,,,,,,,,209.347,0,15,15,50,1,109,1,0,1,0,1,98,,,,,,,,,,,,,,,,,,,,,,,,,,,,,,,,,,,,,,,,,,,,,,,,,,,,,,,,,,,,,,,,,,,,,,,,,,
,,,,006293,001,2023-11-02_17h51.13.734,fluency,2022.2.4,Win32,144.092219,,,,,,,,,,,,,,,,,,,,,,,,,,,,,,,,,,,,,,,,,,,,,,,,,,,,,,,,,,,,,,,,,,,,,,,,,,,,,,,,,,1,0,1,0,1,,"[""j""]",[0.25],2,"[""j""]",[0.24900000000002365],,,,,,,,,,,,,,,,,,,,,,,,,,,,,,,,,,,,,,,,,,,,,,,,,,,,,,,,,,,,,,,,,,,,,
,,,,006293,001,2023-11-02_17h51.13.734,fluency,2022.2.4,Win32,144.092219,,,,,,,,,,,,,,,,,,,,,,,6,5,img/B05_06.jpg,MF,Press J if the face is FEMALE and K if the face is MALE, ,KJ,,,,,,,,,,,,,,,,,,,,,,,,,,,,,,,,6,0.443,,,,,,,,,,,,,,0,15,15,50,1,,,,,,,,,,,,,space,0.549,,,,,,,,,,,,,,,,,,,,,,,,,,,,,,,,,,,,,,,,,,,,,,,,,,,,,,,,,,,,,,,,,,,
,,,,006293,001,2023-11-02_17h51.13.734,fluency,2022.2.4,Win32,144.092219,,,,,,,,,,,,,,,,,,,,,,,0,3,img/B03_00.jpg,MF,Press J if the face is FEMALE and K if the face is MALE, ,KJ,,,,,,,,,,,,,,,,,,,,,,,,,,,,,,,,,,,,,,,,,,,,,,215.361,0,16,16,22,1,109,0,0,0,0,1,98,,,,,,,,,,,,,,,,,,,,,,,,,,,,,,,,,,,,,,,,,,,,,,,,,,,,,,,,,,,,,,,,,,,,,,,,,,
,,,,006293,001,2023-11-02_17h51.13.734,fluency,2022.2.4,Win32,144.092219,,,,,,,,,,,,,,,,,,,,,,,,,,,,,,,,,,,,,,,,,,,,,,,,,,,,,,,,,,,,,,,,,,,,,,,,,,,,,,,,,,0,0,0,0,1,,"[""k""]",[0.6059999999999945],2,"[""k"",""6"",""6"",""6""]","[0.6059999999999945,2.098000000000013,2.2920000000000016,2.453000000000003]",,,,,,,,,,,,,,,,,,,,,,,,,,,,,,,,,,,,,,,,,,,,,,,,,,,,,,,,,,,,,,,,,,,,,
,,,,006293,001,2023-11-02_17h51.13.734,fluency,2022.2.4,Win32,144.092219,,,,,,,,,,,,,,,,,,,,,,,0,3,img/B03_00.jpg,MF,Press J if the face is FEMALE and K if the face is MALE, ,KJ,,,,,,,,,,,,,,,,,,,,,,,,,,,,,,,,6,0.001,,,,,,,,,,,,,,0,16,16,22,1,,,,,,,,,,,,,space,0.508,,,,,,,,,,,,,,,,,,,,,,,,,,,,,,,,,,,,,,,,,,,,,,,,,,,,,,,,,,,,,,,,,,,
,,,,006293,001,2023-11-02_17h51.13.734,fluency,2022.2.4,Win32,144.092219,,,,,,,,,,,,,,,,,,,,,,,2,7,img/B07_02.jpg,MF,Press J if the face is FEMALE and K if the face is MALE, ,KJ,,,,,,,,,,,,,,,,,,,,,,,,,,,,,,,,,,,,,,,,,,,,,,220.903,0,17,17,68,1,109,0,0,0,0,1,98,,,,,,,,,,,,,,,,,,,,,,,,,,,,,,,,,,,,,,,,,,,,,,,,,,,,,,,,,,,,,,,,,,,,,,,,,,
,,,,006293,001,2023-11-02_17h51.13.734,fluency,2022.2.4,Win32,144.092219,,,,,,,,,,,,,,,,,,,,,,,,,,,,,,,,,,,,,,,,,,,,,,,,,,,,,,,,,,,,,,,,,,,,,,,,,,,,,,,,,,0,0,0,0,1,,"[""k""]",[1.436000000000007],2,"[""k"",""space""]","[1.436000000000007,2.4499999999999886]",,,,,,,,,,,,,,,,,,,,,,,,,,,,,,,,,,,,,,,,,,,,,,,,,,,,,,,,,,,,,,,,,,,,,
,,,,006293,001,2023-11-02_17h51.13.734,fluency,2022.2.4,Win32,144.092219,,,,,,,,,,,,,,,,,,,,,,,2,7,img/B07_02.jpg,MF,Press J if the face is FEMALE and K if the face is MALE, ,KJ,,,,,,,,,,,,,,,,,,,,,,,,,,,,,,,,8,2.032,,,,,,,,,,,,,,0,17,17,68,1,,,,,,,,,,,,,space,0.625,,,,,,,,,,,,,,,,,,,,,,,,,,,,,,,,,,,,,,,,,,,,,,,,,,,,,,,,,,,,,,,,,,,
,,,,006293,001,2023-11-02_17h51.13.734,fluency,2022.2.4,Win32,144.092219,,,,,,,,,,,,,,,,,,,,,,,4,2,img/B02_04.jpg,MF,Press J if the face is FEMALE and K if the face is MALE, ,KJ,,,,,,,,,,,,,,,,,,,,,,,,,,,,,,,,,,,,,,,,,,,,,,228.59,0,18,18,15,1,109,0,0,0,0,1,98,,,,,,,,,,,,,,,,,,,,,,,,,,,,,,,,,,,,,,,,,,,,,,,,,,,,,,,,,,,,,,,,,,,,,,,,,,
,,,,006293,001,2023-11-02_17h51.13.734,fluency,2022.2.4,Win32,144.092219,,,,,,,,,,,,,,,,,,,,,,,,,,,,,,,,,,,,,,,,,,,,,,,,,,,,,,,,,,,,,,,,,,,,,,,,,,,,,,,,,,0,0,0,0,1,,"[""k""]",[0.867999999999995],2,"[""k""]",[0.867999999999995],,,,,,,,,,,,,,,,,,,,,,,,,,,,,,,,,,,,,,,,,,,,,,,,,,,,,,,,,,,,,,,,,,,,,
,,,,006293,001,2023-11-02_17h51.13.734,fluency,2022.2.4,Win32,144.092219,,,,,,,,,,,,,,,,,,,,,,,4,2,img/B02_04.jpg,MF,Press J if the face is FEMALE and K if the face is MALE, ,KJ,,,,,,,,,,,,,,,,,,,,,,,,,,,,,,,,6,1.936,,,,,,,,,,,,,,0,18,18,15,1,,,,,,,,,,,,,space,0.48,,,,,,,,,,,,,,,,,,,,,,,,,,,,,,,,,,,,,,,,,,,,,,,,,,,,,,,,,,,,,,,,,,,
,,,,006293,001,2023-11-02_17h51.13.734,fluency,2022.2.4,Win32,144.092219,,,,,,,,,,,,,,,,,,,,,,,6,3,img/B03_06.jpg,MF,Press J if the face is FEMALE and K if the face is MALE, ,KJ,,,,,,,,,,,,,,,,,,,,,,,,,,,,,,,,,,,,,,,,,,,,,,235.033,0,19,19,28,1,109,0,0,0,0,1,98,,,,,,,,,,,,,,,,,,,,,,,,,,,,,,,,,,,,,,,,,,,,,,,,,,,,,,,,,,,,,,,,,,,,,,,,,,
,,,,006293,001,2023-11-02_17h51.13.734,fluency,2022.2.4,Win32,144.092219,,,,,,,,,,,,,,,,,,,,,,,,,,,,,,,,,,,,,,,,,,,,,,,,,,,,,,,,,,,,,,,,,,,,,,,,,,,,,,,,,,,,,,,,,,3,,,,,space,0.68,0,0,0,0,1,,,,,,,,,,,,,,,,,,,,,,,,,,,,,,,,,,,,,,,,,,,,,,,,,,,,,,,,,,,,
,,,,006293,001,2023-11-02_17h51.13.734,fluency,2022.2.4,Win32,144.092219,,,,,,,,,,,,,,,,,,,,,,,,,,,,,,,,,,,,,,,,,,,,,,,,,,,,,,,,,,,,,,,,,,,,,,,,,,,,,,,,,,0,0,0,0,1,,,,,,,,,,,,,,,,,,,,,,,,,,,,,,,,,,,,,,,,,,,,,,,,,,,,,,,,,,,,,,,,,,,,,,,,,,,
,,,,006293,001,2023-11-02_17h51.13.734,fluency,2022.2.4,Win32,144.092219,,,,,,,,,,,,,,,,,,,,,,,6,3,img/B03_06.jpg,MF,Press J if the face is FEMALE and K if the face is MALE, ,KJ,,,,,,,,,,,,,,,,,,,,,,,,,,,,,,,,,,,,,,,,,,,,,,239.735,0,19,19,28,1,109,1,0,1,0,1,98,,,,,,,,,,,,,,,,,,,,,,,,,,,,,,,,,,,,,,,,,,,,,,,,,,,,,,,,,,,,,,,,,,,,,,,,,,
,,,,006293,001,2023-11-02_17h51.13.734,fluency,2022.2.4,Win32,144.092219,,,,,,,,,,,,,,,,,,,,,,,,,,,,,,,,,,,,,,,,,,,,,,,,,,,,,,,,,,,,,,,,,,,,,,,,,,,,,,,,,,1,0,1,0,1,,"[""k""]",[0.3620000000000232],3,"[""k""]",[0.3620000000000232],,,,,,,,,,,,,,,,,,,,,,,,,,,,,,,,,,,,,,,,,,,,,,,,,,,,,,,,,,,,,,,,,,,,,
,,,,006293,001,2023-11-02_17h51.13.734,fluency,2022.2.4,Win32,144.092219,,,,,,,,,,,,,,,,,,,,,,,6,3,img/B03_06.jpg,MF,Press J if the face is FEMALE and K if the face is MALE, ,KJ,,,,,,,,,,,,,,,,,,,,,,,,,,,,,,,,7,1.039,,,,,,,,,,,,,,0,19,19,28,1,,,,,,,,,,,,,space,0.605,,,,,,,,,,,,,,,,,,,,,,,,,,,,,,,,,,,,,,,,,,,,,,,,,,,,,,,,,,,,,,,,,,,
,,,,006293,001,2023-11-02_17h51.13.734,fluency,2022.2.4,Win32,144.092219,,,,,,,,,,,,,,,,,,,,,,,7,3,img/B03_07.jpg,MF,Press J if the face is FEMALE and K if the face is MALE, ,KJ,,,,,,,,,,,,,,,,,,,,,,,,,,,,,,,,,,,,,,,,,,,,,,246.409,0,20,20,29,1,109,0,0,0,0,1,98,,,,,,,,,,,,,,,,,,,,,,,,,,,,,,,,,,,,,,,,,,,,,,,,,,,,,,,,,,,,,,,,,,,,,,,,,,
,,,,006293,001,2023-11-02_17h51.13.734,fluency,2022.2.4,Win32,144.092219,,,,,,,,,,,,,,,,,,,,,,,,,,,,,,,,,,,,,,,,,,,,,,,,,,,,,,,,,,,,,,,,,,,,,,,,,,,,,,,,,,0,0,0,0,1,,"[""k"",""j"",""j"",""j"",""j"",""j"",""j"",""j"",""j""]","[0.771000000000015,1.3540000000000134,1.5,1.6400000000000148,1.7860000000000014,1.9519999999999982,2.105000000000018,2.257000000000005,2.4170000000000016]",3,"[""k"",""j"",""j"",""j"",""j"",""j"",""j"",""j"",""j""]","[0.771000000000015,1.3540000000000134,1.5,1.6409999999999911,1.7860000000000014,1.9519999999999982,2.105000000000018,2.257000000000005,2.4170000000000016]",,,,,,,,,,,,,,,,,,,,,,,,,,,,,,,,,,,,,,,,,,,,,,,,,,,,,,,,,,,,,,,,,,,,,
,,,,006293,001,2023-11-02_17h51.13.734,fluency,2022.2.4,Win32,144.092219,,,,,,,,,,,,,,,,,,,,,,,7,3,img/B03_07.jpg,MF,Press J if the face is FEMALE and K if the face is MALE, ,KJ,,,,,,,,,,,,,,,,,,,,,,,,,,,,,,,,7,0.009,,,,,,,,,,,,,,0,20,20,29,1,,,,,,,,,,,,,space,0.508,,,,,,,,,,,,,,,,,,,,,,,,,,,,,,,,,,,,,,,,,,,,,,,,,,,,,,,,,,,,,,,,,,,
,,,,006293,001,2023-11-02_17h51.13.734,fluency,2022.2.4,Win32,144.092219,,,,,,,,,,,,,,,,,,,,,,,2,1,img/B01_02.jpg,MF,Press J if the face is FEMALE and K if the face is MALE, ,KJ,,,,,,,,,,,,,,,,,,,,,,,,,,,,,,,,,,,,,,,,,,,,,,250.957,0,21,21,2,1,109,0,0,0,0,1,98,,,,,,,,,,,,,,,,,,,,,,,,,,,,,,,,,,,,,,,,,,,,,,,,,,,,,,,,,,,,,,,,,,,,,,,,,,
,,,,006293,001,2023-11-02_17h51.13.734,fluency,2022.2.4,Win32,144.092219,,,,,,,,,,,,,,,,,,,,,,,,,,,,,,,,,,,,,,,,,,,,,,,,,,,,,,,,,,,,,,,,,,,,,,,,,,,,,,,,,,0,0,0,0,1,,"[""k"",""k""]","[0.5549999999999784,0.6950000000000216]",3,"[""k"",""k"",""3"",""3"",""3"",""3"",""3"",""3"",""3""]","[0.5539999999999736,0.6940000000000168,1.5339999999999918,1.6659999999999968,1.7969999999999686,1.9219999999999686,2.151999999999987,2.305000000000007,2.4850000000000136]",,,,,,,,,,,,,,,,,,,,,,,,,,,,,,,,,,,,,,,,,,,,,,,,,,,,,,,,,,,,,,,,,,,,,
,,,,006293,001,2023-11-02_17h51.13.734,fluency,2022.2.4,Win32,144.092219,,,,,,,,,,,,,,,,,,,,,,,2,1,img/B01_02.jpg,MF,Press J if the face is FEMALE and K if the face is MALE, ,KJ,,,,,,,,,,,,,,,,,,,,,,,,,,,,,,,,3,0.419,,,,,,,,,,,,,,0,21,21,2,1,,,,,,,,,,,,,space,0.465,,,,,,,,,,,,,,,,,,,,,,,,,,,,,,,,,,,,,,,,,,,,,,,,,,,,,,,,,,,,,,,,,,,
,,,,006293,001,2023-11-02_17h51.13.734,fluency,2022.2.4,Win32,144.092219,,,,,,,,,,,,,,,,,,,,,,,7,5,img/B05_07.jpg,MF,Press J if the face is FEMALE and K if the face is MALE, ,KJ,,,,,,,,,,,,,,,,,,,,,,,,,,,,,,,,,,,,,,,,,,,,,,256.873,0,22,22,51,1,109,0,0,0,0,1,98,,,,,,,,,,,,,,,,,,,,,,,,,,,,,,,,,,,,,,,,,,,,,,,,,,,,,,,,,,,,,,,,,,,,,,,,,,
,,,,006293,001,2023-11-02_17h51.13.734,fluency,2022.2.4,Win32,144.092219,,,,,,,,,,,,,,,,,,,,,,,,,,,,,,,,,,,,,,,,,,,,,,,,,,,,,,,,,,,,,,,,,,,,,,,,,,,,,,,,,,0,0,0,0,1,,"[""j""]",[0.6809999999999832],3,"[""j""]",[0.6809999999999832],,,,,,,,,,,,,,,,,,,,,,,,,,,,,,,,,,,,,,,,,,,,,,,,,,,,,,,,,,,,,,,,,,,,,
,,,,006293,001,2023-11-02_17h51.13.734,fluency,2022.2.4,Win32,144.092219,,,,,,,,,,,,,,,,,,,,,,,7,5,img/B05_07.jpg,MF,Press J if the face is FEMALE and K if the face is MALE, ,KJ,,,,,,,,,,,,,,,,,,,,,,,,,,,,,,,,7,1.192,,,,,,,,,,,,,,0,22,22,51,1,,,,,,,,,,,,,space,0.693,,,,,,,,,,,,,,,,,,,,,,,,,,,,,,,,,,,,,,,,,,,,,,,,,,,,,,,,,,,,,,,,,,,
,,,,006293,001,2023-11-02_17h51.13.734,fluency,2022.2.4,Win32,144.092219,,,,,,,,,,,,,,,,,,,,,,,0,10,img/B10_00.jpg,MF,Press J if the face is FEMALE and K if the face is MALE, ,KJ,,,,,,,,,,,,,,,,,,,,,,,,,,,,,,,,,,,,,,,,,,,,,,263.79,0,23,23,99,1,109,0,0,0,0,1,98,,,,,,,,,,,,,,,,,,,,,,,,,,,,,,,,,,,,,,,,,,,,,,,,,,,,,,,,,,,,,,,,,,,,,,,,,,
,,,,006293,001,2023-11-02_17h51.13.734,fluency,2022.2.4,Win32,144.092219,,,,,,,,,,,,,,,,,,,,,,,,,,,,,,,,,,,,,,,,,,,,,,,,,,,,,,,,,,,,,,,,,,,,,,,,,,,,,,,,,,0,0,0,0,1,,"[""k""]",[0.9739999999999895],3,"[""k""]",[0.9739999999999895],,,,,,,,,,,,,,,,,,,,,,,,,,,,,,,,,,,,,,,,,,,,,,,,,,,,,,,,,,,,,,,,,,,,,
,,,,006293,001,2023-11-02_17h51.13.734,fluency,2022.2.4,Win32,144.092219,,,,,,,,,,,,,,,,,,,,,,,0,10,img/B10_00.jpg,MF,Press J if the face is FEMALE and K if the face is MALE, ,KJ,,,,,,,,,,,,,,,,,,,,,,,,,,,,,,,,7,0.812,,,,,,,,,,,,,,0,23,23,99,1,,,,,,,,,,,,,space,0.446,,,,,,,,,,,,,,,,,,,,,,,,,,,,,,,,,,,,,,,,,,,,,,,,,,,,,,,,,,,,,,,,,,,
,,,,006293,001,2023-11-02_17h51.13.734,fluency,2022.2.4,Win32,144.092219,,,,,,,,,,,,,,,,,,,,,,,6,2,img/B02_06.jpg,MF,Press J if the face is FEMALE and K if the face is MALE, ,KJ,,,,,,,,,,,,,,,,,,,,,,,,,,,,,,,,,,,,,,,,,,,,,,269.075,0,24,24,17,1,109,0,0,0,0,1,98,,,,,,,,,,,,,,,,,,,,,,,,,,,,,,,,,,,,,,,,,,,,,,,,,,,,,,,,,,,,,,,,,,,,,,,,,,
,,,,006293,001,2023-11-02_17h51.13.734,fluency,2022.2.4,Win32,144.092219,,,,,,,,,,,,,,,,,,,,,,,,,,,,,,,,,,,,,,,,,,,,,,,,,,,,,,,,,,,,,,,,,,,,,,,,,,,,,,,,,,0,0,0,0,1,,"[""j""]",[0.8409999999999513],3,"[""j""]",[0.8409999999999513],,,,,,,,,,,,,,,,,,,,,,,,,,,,,,,,,,,,,,,,,,,,,,,,,,,,,,,,,,,,,,,,,,,,,
,,,,006293,001,2023-11-02_17h51.13.734,fluency,2022.2.4,Win32,144.092219,,,,,,,,,,,,,,,,,,,,,,,6,2,img/B02_06.jpg,MF,Press J if the face is FEMALE and K if the face is MALE, ,KJ,,,,,,,,,,,,,,,,,,,,,,,,,,,,,,,,6,0.519,,,,,,,,,,,,,,0,24,24,17,1,,,,,,,,,,,,,space,0.479,,,,,,,,,,,,,,,,,,,,,,,,,,,,,,,,,,,,,,,,,,,,,,,,,,,,,,,,,,,,,,,,,,,
,,,,006293,001,2023-11-02_17h51.13.734,fluency,2022.2.4,Win32,144.092219,,,,,,,,,,,,,,,,,,,,,,,3,7,img/B07_03.jpg,MF,Press J if the face is FEMALE and K if the face is MALE, ,KJ,,,,,,,,,,,,,,,,,,,,,,,,,,,,,,,,,,,,,,,,,,,,,,274.102,0,25,25,69,1,109,0,0,0,0,1,98,,,,,,,,,,,,,,,,,,,,,,,,,,,,,,,,,,,,,,,,,,,,,,,,,,,,,,,,,,,,,,,,,,,,,,,,,,
,,,,006293,001,2023-11-02_17h51.13.734,fluency,2022.2.4,Win32,144.092219,,,,,,,,,,,,,,,,,,,,,,,,,,,,,,,,,,,,,,,,,,,,,,,,,,,,,,,,,,,,,,,,,,,,,,,,,,,,,,,,,,0,0,0,0,1,,"[""k""]",[0.6120000000000232],3,"[""k"",""8"",""8"",""8"",""8"",""8"",""8"",""8"",""8"",""8""]","[0.6120000000000232,1.1200000000000045,1.271000000000015,1.4110000000000014,1.5500000000000114,1.6960000000000264,1.8480000000000132,2.0430000000000064,2.390000000000043,2.7450000000000045]",,,,,,,,,,,,,,,,,,,,,,,,,,,,,,,,,,,,,,,,,,,,,,,,,,,,,,,,,,,,,,,,,,,,,
,,,,006293,001,2023-11-02_17h51.13.734,fluency,2022.2.4,Win32,144.092219,,,,,,,,,,,,,,,,,,,,,,,3,7,img/B07_03.jpg,MF,Press J if the face is FEMALE and K if the face is MALE, ,KJ,,,,,,,,,,,,,,,,,,,,,,,,,,,,,,,,8,0.262,,,,,,,,,,,,,,0,25,25,69,1,,,,,,,,,,,,,space,1.431,,,,,,,,,,,,,,,,,,,,,,,,,,,,,,,,,,,,,,,,,,,,,,,,,,,,,,,,,,,,,,,,,,,
,,,,006293,001,2023-11-02_17h51.13.734,fluency,2022.2.4,Win32,144.092219,,,,,,,,,,,,,,,,,,,,,,,8,8,img/B08_08.jpg,MF,Press J if the face is FEMALE and K if the face is MALE, ,KJ,,,,,,,,,,,,,,,,,,,,,,,,,,,,,,,,,,,,,,,,,,,,,,280.825,0,26,26,85,1,109,0,0,0,0,1,98,,,,,,,,,,,,,,,,,,,,,,,,,,,,,,,,,,,,,,,,,,,,,,,,,,,,,,,,,,,,,,,,,,,,,,,,,,
,,,,006293,001,2023-11-02_17h51.13.734,fluency,2022.2.4,Win32,144.092219,,,,,,,,,,,,,,,,,,,,,,,,,,,,,,,,,,,,,,,,,,,,,,,,,,,,,,,,,,,,,,,,,,,,,,,,,,,,,,,,,,0,0,0,0,1,,"[""k""]",[0.5819999999999936],3,"[""k"",""7"",""7"",""7"",""7"",""7"",""7""]","[0.5819999999999936,1.7350000000000136,1.9220000000000255,2.089999999999975,2.2620000000000005,2.437000000000012,2.762999999999977]",,,,,,,,,,,,,,,,,,,,,,,,,,,,,,,,,,,,,,,,,,,,,,,,,,,,,,,,,,,,,,,,,,,,,
,,,,006293,001,2023-11-02_17h51.13.734,fluency,2022.2.4,Win32,144.092219,,,,,,,,,,,,,,,,,,,,,,,8,8,img/B08_08.jpg,MF,Press J if the face is FEMALE and K if the face is MALE, ,KJ,,,,,,,,,,,,,,,,,,,,,,,,,,,,,,,,7,0.287,,,,,,,,,,,,,,0,26,26,85,1,,,,,,,,,,,,,space,0.528,,,,,,,,,,,,,,,,,,,,,,,,,,,,,,,,,,,,,,,,,,,,,,,,,,,,,,,,,,,,,,,,,,,
,,,,006293,001,2023-11-02_17h51.13.734,fluency,2022.2.4,Win32,144.092219,,,,,,,,,,,,,,,,,,,,,,,9,6,img/B06_09.jpg,MF,Press J if the face is FEMALE and K if the face is MALE, ,KJ,,,,,,,,,,,,,,,,,,,,,,,,,,,,,,,,,,,,,,,,,,,,,,285.672,0,27,27,64,1,109,0,0,0,0,1,98,,,,,,,,,,,,,,,,,,,,,,,,,,,,,,,,,,,,,,,,,,,,,,,,,,,,,,,,,,,,,,,,,,,,,,,,,,
,,,,006293,001,2023-11-02_17h51.13.734,fluency,2022.2.4,Win32,144.092219,,,,,,,,,,,,,,,,,,,,,,,,,,,,,,,,,,,,,,,,,,,,,,,,,,,,,,,,,,,,,,,,,,,,,,,,,,,,,,,,,,0,0,0,0,1,,"[""j""]",[0.61099999999999],3,"[""j""]",[0.61099999999999],,,,,,,,,,,,,,,,,,,,,,,,,,,,,,,,,,,,,,,,,,,,,,,,,,,,,,,,,,,,,,,,,,,,,
,,,,006293,001,2023-11-02_17h51.13.734,fluency,2022.2.4,Win32,144.092219,,,,,,,,,,,,,,,,,,,,,,,9,6,img/B06_09.jpg,MF,Press J if the face is FEMALE and K if the face is MALE, ,KJ,,,,,,,,,,,,,,,,,,,,,,,,,,,,,,,,8,0.442,,,,,,,,,,,,,,0,27,27,64,1,,,,,,,,,,,,,space,0.251,,,,,,,,,,,,,,,,,,,,,,,,,,,,,,,,,,,,,,,,,,,,,,,,,,,,,,,,,,,,,,,,,,,
,,,,006293,001,2023-11-02_17h51.13.734,fluency,2022.2.4,Win32,144.092219,,,,,,,,,,,,,,,,,,,,,,,8,7,img/B07_08.jpg,MF,Press J if the face is FEMALE and K if the face is MALE, ,KJ,,,,,,,,,,,,,,,,,,,,,,,,,,,,,,,,,,,,,,,,,,,,,,290.394,0,28,28,74,1,109,0,0,0,0,1,98,,,,,,,,,,,,,,,,,,,,,,,,,,,,,,,,,,,,,,,,,,,,,,,,,,,,,,,,,,,,,,,,,,,,,,,,,,
,,,,006293,001,2023-11-02_17h51.13.734,fluency,2022.2.4,Win32,144.092219,,,,,,,,,,,,,,,,,,,,,,,,,,,,,,,,,,,,,,,,,,,,,,,,,,,,,,,,,,,,,,,,,,,,,,,,,,,,,,,,,,0,0,0,0,1,,"[""j""]",[0.6739999999999782],3,"[""j"",""7""]","[0.6739999999999782,2.5289999999999964]",,,,,,,,,,,,,,,,,,,,,,,,,,,,,,,,,,,,,,,,,,,,,,,,,,,,,,,,,,,,,,,,,,,,,
,,,,006293,001,2023-11-02_17h51.13.734,fluency,2022.2.4,Win32,144.092219,,,,,,,,,,,,,,,,,,,,,,,8,7,img/B07_08.jpg,MF,Press J if the face is FEMALE and K if the face is MALE, ,KJ,,,,,,,,,,,,,,,,,,,,,,,,,,,,,,,,7,0.358,,,,,,,,,,,,,,0,28,28,74,1,,,,,,,,,,,,,space,0.452,,,,,,,,,,,,,,,,,,,,,,,,,,,,,,,,,,,,,,,,,,,,,,,,,,,,,,,,,,,,,,,,,,,
,,,,006293,001,2023-11-02_17h51.13.734,fluency,2022.2.4,Win32,144.092219,,,,,,,,,,,,,,,,,,,,,,,1,5,img/B05_01.jpg,MF,Press J if the face is FEMALE and K if the face is MALE, ,KJ,,,,,,,,,,,,,,,,,,,,,,,,,,,,,,,,,,,,,,,,,,,,,,295.233,0,29,29,45,1,109,0,0,0,0,1,98,,,,,,,,,,,,,,,,,,,,,,,,,,,,,,,,,,,,,,,,,,,,,,,,,,,,,,,,,,,,,,,,,,,,,,,,,,
,,,,006293,001,2023-11-02_17h51.13.734,fluency,2022.2.4,Win32,144.092219,,,,,,,,,,,,,,,,,,,,,,,,,,,,,,,,,,,,,,,,,,,,,,,,,,,,,,,,,,,,,,,,,,,,,,,,,,,,,,,,,,0,0,0,0,1,,"[""k""]",[0.83299999999997],3,"[""k""]",[0.83299999999997],,,,,,,,,,,,,,,,,,,,,,,,,,,,,,,,,,,,,,,,,,,,,,,,,,,,,,,,,,,,,,,,,,,,,
,,,,006293,001,2023-11-02_17h51.13.734,fluency,2022.2.4,Win32,144.092219,,,,,,,,,,,,,,,,,,,,,,,1,5,img/B05_01.jpg,MF,Press J if the face is FEMALE and K if the face is MALE, ,KJ,,,,,,,,,,,,,,,,,,,,,,,,,,,,,,,,7,0.061,,,,,,,,,,,,,,0,29,29,45,1,,,,,,,,,,,,,space,0.495,,,,,,,,,,,,,,,,,,,,,,,,,,,,,,,,,,,,,,,,,,,,,,,,,,,,,,,,,,,,,,,,,,,
,,,,006293,001,2023-11-02_17h51.13.734,fluency,2022.2.4,Win32,144.092219,,,,,,,,,,,,,,,,,,,,,,,5,3,img/B03_05.jpg,MF,Press J if the face is FEMALE and K if the face is MALE, ,KJ,,,,,,,,,,,,,,,,,,,,,,,,,,,,,,,,,,,,,,,,,,,,,,299.817,0,30,30,27,1,109,0,0,0,0,1,98,,,,,,,,,,,,,,,,,,,,,,,,,,,,,,,,,,,,,,,,,,,,,,,,,,,,,,,,,,,,,,,,,,,,,,,,,,
,,,,006293,001,2023-11-02_17h51.13.734,fluency,2022.2.4,Win32,144.092219,,,,,,,,,,,,,,,,,,,,,,,,,,,,,,,,,,,,,,,,,,,,,,,,,,,,,,,,,,,,,,,,,,,,,,,,,,,,,,,,,,0,0,0,0,1,,"[""j""]",[1.3969999999999914],3,"[""j"",""7"",""7"",""7"",""7""]","[1.3969999999999914,2.165999999999997,2.40300000000002,2.6100000000000136,2.826999999999998]",,,,,,,,,,,,,,,,,,,,,,,,,,,,,,,,,,,,,,,,,,,,,,,,,,,,,,,,,,,,,,,,,,,,,
,,,,006293,001,2023-11-02_17h51.13.734,fluency,2022.2.4,Win32,144.092219,,,,,,,,,,,,,,,,,,,,,,,5,3,img/B03_05.jpg,MF,Press J if the face is FEMALE and K if the face is MALE, ,KJ,,,,,,,,,,,,,,,,,,,,,,,,,,,,,,,,7,0.039,,,,,,,,,,,,,,0,30,30,27,1,,,,,,,,,,,,,space,0.466,,,,,,,,,,,,,,,,,,,,,,,,,,,,,,,,,,,,,,,,,,,,,,,,,,,,,,,,,,,,,,,,,,,
,,,,006293,001,2023-11-02_17h51.13.734,fluency,2022.2.4,Win32,144.092219,,,,,,,,,,,,,,,,,,,,,,,7,6,img/B06_07.jpg,MF,Press J if the face is FEMALE and K if the face is MALE, ,KJ,,,,,,,,,,,,,,,,,,,,,,,,,,,,,,,,,,,,,,,,,,,,,,305.352,0,31,31,62,1,109,0,0,0,0,1,98,,,,,,,,,,,,,,,,,,,,,,,,,,,,,,,,,,,,,,,,,,,,,,,,,,,,,,,,,,,,,,,,,,,,,,,,,,
,,,,006293,001,2023-11-02_17h51.13.734,fluency,2022.2.4,Win32,144.092219,,,,,,,,,,,,,,,,,,,,,,,,,,,,,,,,,,,,,,,,,,,,,,,,,,,,,,,,,,,,,,,,,,,,,,,,,,,,,,,,,,0,0,0,0,1,,"[""j""]",[0.49099999999998545],3,"[""j"",""8"",""8"",""8"",""8"",""8"",""8"",""8"",""8""]","[0.49099999999998545,1.1310000000000286,1.367999999999995,1.6999999999999886,1.875,2.0810000000000173,2.290999999999997,2.4710000000000036,2.9220000000000255]",,,,,,,,,,,,,,,,,,,,,,,,,,,,,,,,,,,,,,,,,,,,,,,,,,,,,,,,,,,,,,,,,,,,,
,,,,006293,001,2023-11-02_17h51.13.734,fluency,2022.2.4,Win32,144.092219,,,,,,,,,,,,,,,,,,,,,,,7,6,img/B06_07.jpg,MF,Press J if the face is FEMALE and K if the face is MALE, ,KJ,,,,,,,,,,,,,,,,,,,,,,,,,,,,,,,,8,0.185,,,,,,,,,,,,,,0,31,31,62,1,,,,,,,,,,,,,space,0.438,,,,,,,,,,,,,,,,,,,,,,,,,,,,,,,,,,,,,,,,,,,,,,,,,,,,,,,,,,,,,,,,,,,
,,,,006293,001,2023-11-02_17h51.13.734,fluency,2022.2.4,Win32,144.092219,,,,,,,,,,,,,,,,,,,,,,,5,10,img/B10_05.jpg,MF,Press J if the face is FEMALE and K if the face is MALE, ,KJ,,,,,,,,,,,,,,,,,,,,,,,,,,,,,,,,,,,,,,,,,,,,,,310.006,0,32,32,104,1,109,0,0,0,0,1,98,,,,,,,,,,,,,,,,,,,,,,,,,,,,,,,,,,,,,,,,,,,,,,,,,,,,,,,,,,,,,,,,,,,,,,,,,,
,,,,006293,001,2023-11-02_17h51.13.734,fluency,2022.2.4,Win32,144.092219,,,,,,,,,,,,,,,,,,,,,,,,,,,,,,,,,,,,,,,,,,,,,,,,,,,,,,,,,,,,,,,,,,,,,,,,,,,,,,,,,,0,0,0,0,1,,"[""k""]",[1.6779999999999973],3,"[""k""]",[1.6789999999999736],,,,,,,,,,,,,,,,,,,,,,,,,,,,,,,,,,,,,,,,,,,,,,,,,,,,,,,,,,,,,,,,,,,,,
,,,,006293,001,2023-11-02_17h51.13.734,fluency,2022.2.4,Win32,144.092219,,,,,,,,,,,,,,,,,,,,,,,5,10,img/B10_05.jpg,MF,Press J if the face is FEMALE and K if the face is MALE, ,KJ,,,,,,,,,,,,,,,,,,,,,,,,,,,,,,,,6,1.426,,,,,,,,,,,,,,0,32,32,104,1,,,,,,,,,,,,,space,0.89,,,,,,,,,,,,,,,,,,,,,,,,,,,,,,,,,,,,,,,,,,,,,,,,,,,,,,,,,,,,,,,,,,,
,,,,006293,001,2023-11-02_17h51.13.734,fluency,2022.2.4,Win32,144.092219,,,,,,,,,,,,,,,,,,,,,,,9,5,img/B05_09.jpg,MF,Press J if the face is FEMALE and K if the face is MALE, ,KJ,,,,,,,,,,,,,,,,,,,,,,,,,,,,,,,,,,,,,,,,,,,,,,316.351,0,33,33,53,1,109,0,0,0,0,1,98,,,,,,,,,,,,,,,,,,,,,,,,,,,,,,,,,,,,,,,,,,,,,,,,,,,,,,,,,,,,,,,,,,,,,,,,,,
,,,,006293,001,2023-11-02_17h51.13.734,fluency,2022.2.4,Win32,144.092219,,,,,,,,,,,,,,,,,,,,,,,,,,,,,,,,,,,,,,,,,,,,,,,,,,,,,,,,,,,,,,,,,,,,,,,,,,,,,,,,,,0,0,0,0,1,,"[""j""]",[0.9429999999999836],3,"[""j""]",[0.94399999999996],,,,,,,,,,,,,,,,,,,,,,,,,,,,,,,,,,,,,,,,,,,,,,,,,,,,,,,,,,,,,,,,,,,,,
,,,,006293,001,2023-11-02_17h51.13.734,fluency,2022.2.4,Win32,144.092219,,,,,,,,,,,,,,,,,,,,,,,9,5,img/B05_09.jpg,MF,Press J if the face is FEMALE and K if the face is MALE, ,KJ,,,,,,,,,,,,,,,,,,,,,,,,,,,,,,,,4,1.013,,,,,,,,,,,,,,0,33,33,53,1,,,,,,,,,,,,,space,0.39,,,,,,,,,,,,,,,,,,,,,,,,,,,,,,,,,,,,,,,,,,,,,,,,,,,,,,,,,,,,,,,,,,,
,,,,006293,001,2023-11-02_17h51.13.734,fluency,2022.2.4,Win32,144.092219,,,,,,,,,,,,,,,,,,,,,,,10,9,img/B09_10.jpg,MF,Press J if the face is FEMALE and K if the face is MALE, ,KJ,,,,,,,,,,,,,,,,,,,,,,,,,,,,,,,,,,,,,,,,,,,,,,322.782,0,34,34,98,1,109,0,0,0,0,1,98,,,,,,,,,,,,,,,,,,,,,,,,,,,,,,,,,,,,,,,,,,,,,,,,,,,,,,,,,,,,,,,,,,,,,,,,,,
,,,,006293,001,2023-11-02_17h51.13.734,fluency,2022.2.4,Win32,144.092219,,,,,,,,,,,,,,,,,,,,,,,,,,,,,,,,,,,,,,,,,,,,,,,,,,,,,,,,,,,,,,,,,,,,,,,,,,,,,,,,,,0,0,0,0,1,,"[""j""]",[0.7290000000000418],3,"[""j""]",[0.7290000000000418],,,,,,,,,,,,,,,,,,,,,,,,,,,,,,,,,,,,,,,,,,,,,,,,,,,,,,,,,,,,,,,,,,,,,
,,,,006293,001,2023-11-02_17h51.13.734,fluency,2022.2.4,Win32,144.092219,,,,,,,,,,,,,,,,,,,,,,,10,9,img/B09_10.jpg,MF,Press J if the face is FEMALE and K if the face is MALE, ,KJ,,,,,,,,,,,,,,,,,,,,,,,,,,,,,,,,7,0.353,,,,,,,,,,,,,,0,34,34,98,1,,,,,,,,,,,,,space,0.286,,,,,,,,,,,,,,,,,,,,,,,,,,,,,,,,,,,,,,,,,,,,,,,,,,,,,,,,,,,,,,,,,,,
,,,,006293,001,2023-11-02_17h51.13.734,fluency,2022.2.4,Win32,144.092219,,,,,,,,,,,,,,,,,,,,,,,3,4,img/B04_03.jpg,MF,Press J if the face is FEMALE and K if the face is MALE, ,KJ,,,,,,,,,,,,,,,,,,,,,,,,,,,,,,,,,,,,,,,,,,,,,,327.449,0,35,35,36,1,109,0,0,0,0,1,98,,,,,,,,,,,,,,,,,,,,,,,,,,,,,,,,,,,,,,,,,,,,,,,,,,,,,,,,,,,,,,,,,,,,,,,,,,
,,,,006293,001,2023-11-02_17h51.13.734,fluency,2022.2.4,Win32,144.092219,,,,,,,,,,,,,,,,,,,,,,,,,,,,,,,,,,,,,,,,,,,,,,,,,,,,,,,,,,,,,,,,,,,,,,,,,,,,,,,,,,0,0,0,0,1,,"[""k""]",[0.7980000000000018],3,"[""k"",""8"",""8"",""8"",""8"",""8"",""8"",""8"",""8"",""8""]","[0.7980000000000018,1.3940000000000055,1.5500000000000114,1.6999999999999886,1.853999999999985,1.9920000000000186,2.144999999999982,2.3460000000000036,2.5540000000000305,2.90300000000002]",,,,,,,,,,,,,,,,,,,,,,,,,,,,,,,,,,,,,,,,,,,,,,,,,,,,,,,,,,,,,,,,,,,,,
,,,,006293,001,2023-11-02_17h51.13.734,fluency,2022.2.4,Win32,144.092219,,,,,,,,,,,,,,,,,,,,,,,3,4,img/B04_03.jpg,MF,Press J if the face is FEMALE and K if the face is MALE, ,KJ,,,,,,,,,,,,,,,,,,,,,,,,,,,,,,,,8,0.255,,,,,,,,,,,,,,0,35,35,36,1,,,,,,,,,,,,,space,0.143,,,,,,,,,,,,,,,,,,,,,,,,,,,,,,,,,,,,,,,,,,,,,,,,,,,,,,,,,,,,,,,,,,,
,,,,006293,001,2023-11-02_17h51.13.734,fluency,2022.2.4,Win32,144.092219,,,,,,,,,,,,,,,,,,,,,,,6,6,img/B06_06.jpg,MF,Press J if the face is FEMALE and K if the face is MALE, ,KJ,,,,,,,,,,,,,,,,,,,,,,,,,,,,,,,,,,,,,,,,,,,,,,332.873,0,36,36,61,1,109,0,0,0,0,1,98,,,,,,,,,,,,,,,,,,,,,,,,,,,,,,,,,,,,,,,,,,,,,,,,,,,,,,,,,,,,,,,,,,,,,,,,,,
,,,,006293,001,2023-11-02_17h51.13.734,fluency,2022.2.4,Win32,144.092219,,,,,,,,,,,,,,,,,,,,,,,,,,,,,,,,,,,,,,,,,,,,,,,,,,,,,,,,,,,,,,,,,,,,,,,,,,,,,,,,,,0,0,0,0,1,,"[""j""]",[0.8330000000000268],3,"[""j""]",[0.8330000000000268],,,,,,,,,,,,,,,,,,,,,,,,,,,,,,,,,,,,,,,,,,,,,,,,,,,,,,,,,,,,,,,,,,,,,
,,,,006293,001,2023-11-02_17h51.13.734,fluency,2022.2.4,Win32,144.092219,,,,,,,,,,,,,,,,,,,,,,,6,6,img/B06_06.jpg,MF,Press J if the face is FEMALE and K if the face is MALE, ,KJ,,,,,,,,,,,,,,,,,,,,,,,,,,,,,,,,3,0.761,,,,,,,,,,,,,,0,36,36,61,1,,,,,,,,,,,,,space,2.015,,,,,,,,,,,,,,,,,,,,,,,,,,,,,,,,,,,,,,,,,,,,,,,,,,,,,,,,,,,,,,,,,,,
,,,,006293,001,2023-11-02_17h51.13.734,fluency,2022.2.4,Win32,144.092219,,,,,,,,,,,,,,,,,,,,,,,5,1,img/B01_05.jpg,MF,Press J if the face is FEMALE and K if the face is MALE, ,KJ,,,,,,,,,,,,,,,,,,,,,,,,,,,,,,,,,,,,,,,,,,,,,,340.68,0,37,37,5,1,109,0,0,0,0,1,98,,,,,,,,,,,,,,,,,,,,,,,,,,,,,,,,,,,,,,,,,,,,,,,,,,,,,,,,,,,,,,,,,,,,,,,,,,
,,,,006293,001,2023-11-02_17h51.13.734,fluency,2022.2.4,Win32,144.092219,,,,,,,,,,,,,,,,,,,,,,,,,,,,,,,,,,,,,,,,,,,,,,,,,,,,,,,,,,,,,,,,,,,,,,,,,,,,,,,,,,0,0,0,0,1,,"[""k""]",[1.2269999999999754],3,"[""k""]",[1.2269999999999754],,,,,,,,,,,,,,,,,,,,,,,,,,,,,,,,,,,,,,,,,,,,,,,,,,,,,,,,,,,,,,,,,,,,,
,,,,006293,001,2023-11-02_17h51.13.734,fluency,2022.2.4,Win32,144.092219,,,,,,,,,,,,,,,,,,,,,,,5,1,img/B01_05.jpg,MF,Press J if the face is FEMALE and K if the face is MALE, ,KJ,,,,,,,,,,,,,,,,,,,,,,,,,,,,,,,,3,1.051,,,,,,,,,,,,,,0,37,37,5,1,,,,,,,,,,,,,space,0.473,,,,,,,,,,,,,,,,,,,,,,,,,,,,,,,,,,,,,,,,,,,,,,,,,,,,,,,,,,,,,,,,,,,
,,,,006293,001,2023-11-02_17h51.13.734,fluency,2022.2.4,Win32,144.092219,,,,,,,,,,,,,,,,,,,,,,,6,4,img/B04_06.jpg,MF,Press J if the face is FEMALE and K if the face is MALE, ,KJ,,,,,,,,,,,,,,,,,,,,,,,,,,,,,,,,,,,,,,,,,,,,,,346.232,0,38,38,39,1,109,0,0,0,0,1,98,,,,,,,,,,,,,,,,,,,,,,,,,,,,,,,,,,,,,,,,,,,,,,,,,,,,,,,,,,,,,,,,,,,,,,,,,,
,,,,006293,001,2023-11-02_17h51.13.734,fluency,2022.2.4,Win32,144.092219,,,,,,,,,,,,,,,,,,,,,,,,,,,,,,,,,,,,,,,,,,,,,,,,,,,,,,,,,,,,,,,,,,,,,,,,,,,,,,,,,,0,0,0,0,1,,"[""k""]",[1.3540000000000418],3,"[""k""]",[1.3540000000000418],,,,,,,,,,,,,,,,,,,,,,,,,,,,,,,,,,,,,,,,,,,,,,,,,,,,,,,,,,,,,,,,,,,,,
,,,,006293,001,2023-11-02_17h51.13.734,fluency,2022.2.4,Win32,144.092219,,,,,,,,,,,,,,,,,,,,,,,6,4,img/B04_06.jpg,MF,Press J if the face is FEMALE and K if the face is MALE, ,KJ,,,,,,,,,,,,,,,,,,,,,,,,,,,,,,,,6,0.385,,,,,,,,,,,,,,0,38,38,39,1,,,,,,,,,,,,,space,0.348,,,,,,,,,,,,,,,,,,,,,,,,,,,,,,,,,,,,,,,,,,,,,,,,,,,,,,,,,,,,,,,,,,,
,,,,006293,001,2023-11-02_17h51.13.734,fluency,2022.2.4,Win32,144.092219,,,,,,,,,,,,,,,,,,,,,,,2,8,img/B08_02.jpg,MF,Press J if the face is FEMALE and K if the face is MALE, ,KJ,,,,,,,,,,,,,,,,,,,,,,,,,,,,,,,,,,,,,,,,,,,,,,350.996,0,39,39,79,1,109,0,0,0,0,1,98,,,,,,,,,,,,,,,,,,,,,,,,,,,,,,,,,,,,,,,,,,,,,,,,,,,,,,,,,,,,,,,,,,,,,,,,,,
,,,,006293,001,2023-11-02_17h51.13.734,fluency,2022.2.4,Win32,144.092219,,,,,,,,,,,,,,,,,,,,,,,,,,,,,,,,,,,,,,,,,,,,,,,,,,,,,,,,,,,,,,,,,,,,,,,,,,,,,,,,,,0,0,0,0,1,,"[""k""]",[1.0900000000000318],3,"[""k"",""6"",""7"",""6""]","[1.0900000000000318,2.1240000000000236,2.3319999999999936,2.540999999999997]",,,,,,,,,,,,,,,,,,,,,,,,,,,,,,,,,,,,,,,,,,,,,,,,,,,,,,,,,,,,,,,,,,,,,
,,,,006293,001,2023-11-02_17h51.13.734,fluency,2022.2.4,Win32,144.092219,,,,,,,,,,,,,,,,,,,,,,,2,8,img/B08_02.jpg,MF,Press J if the face is FEMALE and K if the face is MALE, ,KJ,,,,,,,,,,,,,,,,,,,,,,,,,,,,,,,,6,0.727,,,,,,,,,,,,,,0,39,39,79,1,,,,,,,,,,,,,space,0.557,,,,,,,,,,,,,,,,,,,,,,,,,,,,,,,,,,,,,,,,,,,,,,,,,,,,,,,,,,,,,,,,,,,
,,,,006293,001,2023-11-02_17h51.13.734,fluency,2022.2.4,Win32,144.092219,,,,,,,,,,,,,,,,,,,,,,,7,7,img/B07_07.jpg,MF,Press J if the face is FEMALE and K if the face is MALE, ,KJ,,,,,,,,,,,,,,,,,,,,,,,,,,,,,,,,,,,,,,,,,,,,,,357.309,0,40,40,73,1,109,0,0,0,0,1,98,,,,,,,,,,,,,,,,,,,,,,,,,,,,,,,,,,,,,,,,,,,,,,,,,,,,,,,,,,,,,,,,,,,,,,,,,,
,,,,006293,001,2023-11-02_17h51.13.734,fluency,2022.2.4,Win32,144.092219,,,,,,,,,,,,,,,,,,,,,,,,,,,,,,,,,,,,,,,,,,,,,,,,,,,,,,,,,,,,,,,,,,,,,,,,,,,,,,,,,,0,0,0,0,1,,"[""j""]",[1.1180000000000518],3,"[""j"",""3"",""3"",""3"",""3"",""3""]","[1.1180000000000518,1.88900000000001,2.133000000000038,2.40300000000002,2.6680000000000064,2.9460000000000264]",,,,,,,,,,,,,,,,,,,,,,,,,,,,,,,,,,,,,,,,,,,,,,,,,,,,,,,,,,,,,,,,,,,,,
,,,,006293,001,2023-11-02_17h51.13.734,fluency,2022.2.4,Win32,144.092219,,,,,,,,,,,,,,,,,,,,,,,7,7,img/B07_07.jpg,MF,Press J if the face is FEMALE and K if the face is MALE, ,KJ,,,,,,,,,,,,,,,,,,,,,,,,,,,,,,,,3,0.199,,,,,,,,,,,,,,0,40,40,73,1,,,,,,,,,,,,,space,0.272,,,,,,,,,,,,,,,,,,,,,,,,,,,,,,,,,,,,,,,,,,,,,,,,,,,,,,,,,,,,,,,,,,,
,,,,006293,001,2023-11-02_17h51.13.734,fluency,2022.2.4,Win32,144.092219,,,,,,,,,,,,,,,,,,,,,,,8,1,img/B01_08.jpg,MF,Press J if the face is FEMALE and K if the face is MALE, ,KJ,,,,,,,,,,,,,,,,,,,,,,,,,,,,,,,,,,,,,,,,,,,,,,362.809,0,41,41,8,1,109,0,0,0,0,1,98,,,,,,,,,,,,,,,,,,,,,,,,,,,,,,,,,,,,,,,,,,,,,,,,,,,,,,,,,,,,,,,,,,,,,,,,,,
,,,,006293,001,2023-11-02_17h51.13.734,fluency,2022.2.4,Win32,144.092219,,,,,,,,,,,,,,,,,,,,,,,,,,,,,,,,,,,,,,,,,,,,,,,,,,,,,,,,,,,,,,,,,,,,,,,,,,,,,,,,,,0,0,0,0,1,,"[""j"",""k"",""k""]","[1.1180000000000518,1.8760000000000332,2.19500000000005]",3,"[""j"",""k"",""k""]","[1.1180000000000518,1.8760000000000332,2.19500000000005]",,,,,,,,,,,,,,,,,,,,,,,,,,,,,,,,,,,,,,,,,,,,,,,,,,,,,,,,,,,,,,,,,,,,,
,,,,006293,001,2023-11-02_17h51.13.734,fluency,2022.2.4,Win32,144.092219,,,,,,,,,,,,,,,,,,,,,,,8,1,img/B01_08.jpg,MF,Press J if the face is FEMALE and K if the face is MALE, ,KJ,,,,,,,,,,,,,,,,,,,,,,,,,,,,,,,,7,1.247,,,,,,,,,,,,,,0,41,41,8,1,,,,,,,,,,,,,space,0.75,,,,,,,,,,,,,,,,,,,,,,,,,,,,,,,,,,,,,,,,,,,,,,,,,,,,,,,,,,,,,,,,,,,
,,,,006293,001,2023-11-02_17h51.13.734,fluency,2022.2.4,Win32,144.092219,,,,,,,,,,,,,,,,,,,,,,,9,7,img/B07_09.jpg,MF,Press J if the face is FEMALE and K if the face is MALE, ,KJ,,,,,,,,,,,,,,,,,,,,,,,,,,,,,,,,,,,,,,,,,,,,,,369.836,0,42,42,75,1,109,0,0,0,0,1,98,,,,,,,,,,,,,,,,,,,,,,,,,,,,,,,,,,,,,,,,,,,,,,,,,,,,,,,,,,,,,,,,,,,,,,,,,,
,,,,006293,001,2023-11-02_17h51.13.734,fluency,2022.2.4,Win32,144.092219,,,,,,,,,,,,,,,,,,,,,,,,,,,,,,,,,,,,,,,,,,,,,,,,,,,,,,,,,,,,,,,,,,,,,,,,,,,,,,,,,,0,0,0,0,1,,"[""j""]",[0.9809999999999945],3,"[""j"",""8"",""8"",""8"",""8"",""8""]","[0.9809999999999945,1.9739999999999895,2.180999999999983,2.3909999999999627,2.591000000000008,2.7719999999999914]",,,,,,,,,,,,,,,,,,,,,,,,,,,,,,,,,,,,,,,,,,,,,,,,,,,,,,,,,,,,,,,,,,,,,
,,,,006293,001,2023-11-02_17h51.13.734,fluency,2022.2.4,Win32,144.092219,,,,,,,,,,,,,,,,,,,,,,,9,7,img/B07_09.jpg,MF,Press J if the face is FEMALE and K if the face is MALE, ,KJ,,,,,,,,,,,,,,,,,,,,,,,,,,,,,,,,6,0.889,,,,,,,,,,,,,,0,42,42,75,1,,,,,,,,,,,,,space,0.195,,,,,,,,,,,,,,,,,,,,,,,,,,,,,,,,,,,,,,,,,,,,,,,,,,,,,,,,,,,,,,,,,,,
,,,,006293,001,2023-11-02_17h51.13.734,fluency,2022.2.4,Win32,144.092219,,,,,,,,,,,,,,,,,,,,,,,7,9,img/B09_07.jpg,MF,Press J if the face is FEMALE and K if the face is MALE, ,KJ,,,,,,,,,,,,,,,,,,,,,,,,,,,,,,,,,,,,,,,,,,,,,,375.954,0,43,43,95,1,109,0,0,0,0,1,98,,,,,,,,,,,,,,,,,,,,,,,,,,,,,,,,,,,,,,,,,,,,,,,,,,,,,,,,,,,,,,,,,,,,,,,,,,
,,,,006293,001,2023-11-02_17h51.13.734,fluency,2022.2.4,Win32,144.092219,,,,,,,,,,,,,,,,,,,,,,,,,,,,,,,,,,,,,,,,,,,,,,,,,,,,,,,,,,,,,,,,,,,,,,,,,,,,,,,,,,0,0,0,0,1,,"[""j""]",[1.1639999999999873],3,"[""j"",""8"",""8"",""8"",""8"",""8"",""8"",""8"",""8"",""8""]","[1.1639999999999873,1.6370000000000005,1.8179999999999836,2.0120000000000005,2.1650000000000205,2.3240000000000123,2.490000000000009,2.6310000000000286,2.7900000000000205,2.9560000000000173]",,,,,,,,,,,,,,,,,,,,,,,,,,,,,,,,,,,,,,,,,,,,,,,,,,,,,,,,,,,,,,,,,,,,,
,,,,006293,001,2023-11-02_17h51.13.734,fluency,2022.2.4,Win32,144.092219,,,,,,,,,,,,,,,,,,,,,,,7,9,img/B09_07.jpg,MF,Press J if the face is FEMALE and K if the face is MALE, ,KJ,,,,,,,,,,,,,,,,,,,,,,,,,,,,,,,,8,0.108,,,,,,,,,,,,,,0,43,43,95,1,,,,,,,,,,,,,space,0.341,,,,,,,,,,,,,,,,,,,,,,,,,,,,,,,,,,,,,,,,,,,,,,,,,,,,,,,,,,,,,,,,,,,
,,,,006293,001,2023-11-02_17h51.13.734,fluency,2022.2.4,Win32,144.092219,,,,,,,,,,,,,,,,,,,,,,,9,10,img/B10_09.jpg,MF,Press J if the face is FEMALE and K if the face is MALE, ,KJ,,,,,,,,,,,,,,,,,,,,,,,,,,,,,,,,,,,,,,,,,,,,,,380.433,0,44,44,108,1,109,0,0,0,0,1,98,,,,,,,,,,,,,,,,,,,,,,,,,,,,,,,,,,,,,,,,,,,,,,,,,,,,,,,,,,,,,,,,,,,,,,,,,,
,,,,006293,001,2023-11-02_17h51.13.734,fluency,2022.2.4,Win32,144.092219,,,,,,,,,,,,,,,,,,,,,,,,,,,,,,,,,,,,,,,,,,,,,,,,,,,,,,,,,,,,,,,,,,,,,,,,,,,,,,,,,,0,0,0,0,1,,"[""k""]",[1.424000000000035],3,"[""k""]",[1.424000000000035],,,,,,,,,,,,,,,,,,,,,,,,,,,,,,,,,,,,,,,,,,,,,,,,,,,,,,,,,,,,,,,,,,,,,
,,,,006293,001,2023-11-02_17h51.13.734,fluency,2022.2.4,Win32,144.092219,,,,,,,,,,,,,,,,,,,,,,,9,10,img/B10_09.jpg,MF,Press J if the face is FEMALE and K if the face is MALE, ,KJ,,,,,,,,,,,,,,,,,,,,,,,,,,,,,,,,5,0.894,,,,,,,,,,,,,,0,44,44,108,1,,,,,,,,,,,,,space,0.563,,,,,,,,,,,,,,,,,,,,,,,,,,,,,,,,,,,,,,,,,,,,,,,,,,,,,,,,,,,,,,,,,,,
,,,,006293,001,2023-11-02_17h51.13.734,fluency,2022.2.4,Win32,144.092219,,,,,,,,,,,,,,,,,,,,,,,10,4,img/B04_10.jpg,MF,Press J if the face is FEMALE and K if the face is MALE, ,KJ,,,,,,,,,,,,,,,,,,,,,,,,,,,,,,,,,,,,,,,,,,,,,,386.919,0,45,45,43,1,109,0,0,0,0,1,98,,,,,,,,,,,,,,,,,,,,,,,,,,,,,,,,,,,,,,,,,,,,,,,,,,,,,,,,,,,,,,,,,,,,,,,,,,
,,,,006293,001,2023-11-02_17h51.13.734,fluency,2022.2.4,Win32,144.092219,,,,,,,,,,,,,,,,,,,,,,,,,,,,,,,,,,,,,,,,,,,,,,,,,,,,,,,,,,,,,,,,,,,,,,,,,,,,,,,,,,0,0,0,0,1,,"[""j""]",[1.8830000000000382],3,"[""j""]",[1.8830000000000382],,,,,,,,,,,,,,,,,,,,,,,,,,,,,,,,,,,,,,,,,,,,,,,,,,,,,,,,,,,,,,,,,,,,,
,,,,006293,001,2023-11-02_17h51.13.734,fluency,2022.2.4,Win32,144.092219,,,,,,,,,,,,,,,,,,,,,,,10,4,img/B04_10.jpg,MF,Press J if the face is FEMALE and K if the face is MALE, ,KJ,,,,,,,,,,,,,,,,,,,,,,,,,,,,,,,,4,0.748,,,,,,,,,,,,,,0,45,45,43,1,,,,,,,,,,,,,space,0.777,,,,,,,,,,,,,,,,,,,,,,,,,,,,,,,,,,,,,,,,,,,,,,,,,,,,,,,,,,,,,,,,,,,
,,,,006293,001,2023-11-02_17h51.13.734,fluency,2022.2.4,Win32,144.092219,,,,,,,,,,,,,,,,,,,,,,,1,10,img/B10_01.jpg,MF,Press J if the face is FEMALE and K if the face is MALE, ,KJ,,,,,,,,,,,,,,,,,,,,,,,,,,,,,,,,,,,,,,,,,,,,,,393.474,0,46,46,100,1,109,0,0,0,0,1,98,,,,,,,,,,,,,,,,,,,,,,,,,,,,,,,,,,,,,,,,,,,,,,,,,,,,,,,,,,,,,,,,,,,,,,,,,,
,,,,006293,001,2023-11-02_17h51.13.734,fluency,2022.2.4,Win32,144.092219,,,,,,,,,,,,,,,,,,,,,,,,,,,,,,,,,,,,,,,,,,,,,,,,,,,,,,,,,,,,,,,,,,,,,,,,,,,,,,,,,,0,0,0,0,1,,"[""k""]",[0.5749999999999886],3,"[""k"",""8"",""8""]","[0.5749999999999886,2.887999999999977,2.923999999999978]",,,,,,,,,,,,,,,,,,,,,,,,,,,,,,,,,,,,,,,,,,,,,,,,,,,,,,,,,,,,,,,,,,,,,
,,,,006293,001,2023-11-02_17h51.13.734,fluency,2022.2.4,Win32,144.092219,,,,,,,,,,,,,,,,,,,,,,,1,10,img/B10_01.jpg,MF,Press J if the face is FEMALE and K if the face is MALE, ,KJ,,,,,,,,,,,,,,,,,,,,,,,,,,,,,,,,8,0.088,,,,,,,,,,,,,,0,46,46,100,1,,,,,,,,,,,,,space,0.293,,,,,,,,,,,,,,,,,,,,,,,,,,,,,,,,,,,,,,,,,,,,,,,,,,,,,,,,,,,,,,,,,,,
,,,,006293,001,2023-11-02_17h51.13.734,fluency,2022.2.4,Win32,144.092219,,,,,,,,,,,,,,,,,,,,,,,9,9,img/B09_09.jpg,MF,Press J if the face is FEMALE and K if the face is MALE, ,KJ,,,,,,,,,,,,,,,,,,,,,,,,,,,,,,,,,,,,,,,,,,,,,,398.884,0,47,47,97,1,109,0,0,0,0,1,98,,,,,,,,,,,,,,,,,,,,,,,,,,,,,,,,,,,,,,,,,,,,,,,,,,,,,,,,,,,,,,,,,,,,,,,,,,
,,,,006293,001,2023-11-02_17h51.13.734,fluency,2022.2.4,Win32,144.092219,,,,,,,,,,,,,,,,,,,,,,,,,,,,,,,,,,,,,,,,,,,,,,,,,,,,,,,,,,,,,,,,,,,,,,,,,,,,,,,,,,0,0,0,0,1,,"[""k""]",[0.5980000000000132],3,"[""k""]",[0.5980000000000132],,,,,,,,,,,,,,,,,,,,,,,,,,,,,,,,,,,,,,,,,,,,,,,,,,,,,,,,,,,,,,,,,,,,,
,,,,006293,001,2023-11-02_17h51.13.734,fluency,2022.2.4,Win32,144.092219,,,,,,,,,,,,,,,,,,,,,,,9,9,img/B09_09.jpg,MF,Press J if the face is FEMALE and K if the face is MALE, ,KJ,,,,,,,,,,,,,,,,,,,,,,,,,,,,,,,,8,0.431,,,,,,,,,,,,,,0,47,47,97,1,,,,,,,,,,,,,space,0.314,,,,,,,,,,,,,,,,,,,,,,,,,,,,,,,,,,,,,,,,,,,,,,,,,,,,,,,,,,,,,,,,,,,
,,,,006293,001,2023-11-02_17h51.13.734,fluency,2022.2.4,Win32,144.092219,,,,,,,,,,,,,,,,,,,,,,,8,2,img/B02_08.jpg,MF,Press J if the face is FEMALE and K if the face is MALE, ,KJ,,,,,,,,,,,,,,,,,,,,,,,,,,,,,,,,,,,,,,,,,,,,,,404.661,0,48,48,19,1,109,0,0,0,0,1,98,,,,,,,,,,,,,,,,,,,,,,,,,,,,,,,,,,,,,,,,,,,,,,,,,,,,,,,,,,,,,,,,,,,,,,,,,,
,,,,006293,001,2023-11-02_17h51.13.734,fluency,2022.2.4,Win32,144.092219,,,,,,,,,,,,,,,,,,,,,,,,,,,,,,,,,,,,,,,,,,,,,,,,,,,,,,,,,,,,,,,,,,,,,,,,,,,,,,,,,,0,0,0,0,1,,"[""j""]",[1.1519999999999868],3,"[""j""]",[1.1519999999999868],,,,,,,,,,,,,,,,,,,,,,,,,,,,,,,,,,,,,,,,,,,,,,,,,,,,,,,,,,,,,,,,,,,,,
,,,,006293,001,2023-11-02_17h51.13.734,fluency,2022.2.4,Win32,144.092219,,,,,,,,,,,,,,,,,,,,,,,8,2,img/B02_08.jpg,MF,Press J if the face is FEMALE and K if the face is MALE, ,KJ,,,,,,,,,,,,,,,,,,,,,,,,,,,,,,,,7,0.241,,,,,,,,,,,,,,0,48,48,19,1,,,,,,,,,,,,,space,0.48,,,,,,,,,,,,,,,,,,,,,,,,,,,,,,,,,,,,,,,,,,,,,,,,,,,,,,,,,,,,,,,,,,,
,,,,006293,001,2023-11-02_17h51.13.734,fluency,2022.2.4,Win32,144.092219,,,,,,,,,,,,,,,,,,,,,,,5,8,img/B08_05.jpg,MF,Press J if the face is FEMALE and K if the face is MALE, ,KJ,,,,,,,,,,,,,,,,,,,,,,,,,,,,,,,,,,,,,,,,,,,,,,410.412,0,49,49,82,1,109,0,0,0,0,1,98,,,,,,,,,,,,,,,,,,,,,,,,,,,,,,,,,,,,,,,,,,,,,,,,,,,,,,,,,,,,,,,,,,,,,,,,,,
,,,,006293,001,2023-11-02_17h51.13.734,fluency,2022.2.4,Win32,144.092219,,,,,,,,,,,,,,,,,,,,,,,,,,,,,,,,,,,,,,,,,,,,,,,,,,,,,,,,,,,,,,,,,,,,,,,,,,,,,,,,,,0,0,0,0,1,,"[""k""]",[1.6519999999999868],3,"[""k""]",[1.6519999999999868],,,,,,,,,,,,,,,,,,,,,,,,,,,,,,,,,,,,,,,,,,,,,,,,,,,,,,,,,,,,,,,,,,,,,
,,,,006293,001,2023-11-02_17h51.13.734,fluency,2022.2.4,Win32,144.092219,,,,,,,,,,,,,,,,,,,,,,,5,8,img/B08_05.jpg,MF,Press J if the face is FEMALE and K if the face is MALE, ,KJ,,,,,,,,,,,,,,,,,,,,,,,,,,,,,,,,6,0.735,,,,,,,,,,,,,,0,49,49,82,1,,,,,,,,,,,,,space,0.251,,,,,,,,,,,,,,,,,,,,,,,,,,,,,,,,,,,,,,,,,,,,,,,,,,,,,,,,,,,,,,,,,,,
,,,,006293,001,2023-11-02_17h51.13.734,fluency,2022.2.4,Win32,144.092219,,,,,,,,,,,,,,,,,,,,,,,4,7,img/B07_04.jpg,MF,Press J if the face is FEMALE and K if the face is MALE, ,KJ,,,,,,,,,,,,,,,,,,,,,,,,,,,,,,,,,,,,,,,,,,,,,,415.426,0,50,50,70,1,109,0,0,0,0,1,98,,,,,,,,,,,,,,,,,,,,,,,,,,,,,,,,,,,,,,,,,,,,,,,,,,,,,,,,,,,,,,,,,,,,,,,,,,
,,,,006293,001,2023-11-02_17h51.13.734,fluency,2022.2.4,Win32,144.092219,,,,,,,,,,,,,,,,,,,,,,,,,,,,,,,,,,,,,,,,,,,,,,,,,,,,,,,,,,,,,,,,,,,,,,,,,,,,,,,,,,0,0,0,0,1,,"[""k""]",[2.186999999999955],3,"[""k""]",[2.186999999999955],,,,,,,,,,,,,,,,,,,,,,,,,,,,,,,,,,,,,,,,,,,,,,,,,,,,,,,,,,,,,,,,,,,,,
,,,,006293,001,2023-11-02_17h51.13.734,fluency,2022.2.4,Win32,144.092219,,,,,,,,,,,,,,,,,,,,,,,4,7,img/B07_04.jpg,MF,Press J if the face is FEMALE and K if the face is MALE, ,KJ,,,,,,,,,,,,,,,,,,,,,,,,,,,,,,,,8,0.528,,,,,,,,,,,,,,0,50,50,70,1,,,,,,,,,,,,,space,0.439,,,,,,,,,,,,,,,,,,,,,,,,,,,,,,,,,,,,,,,,,,,,,,,,,,,,,,,,,,,,,,,,,,,
,,,,006293,001,2023-11-02_17h51.13.734,fluency,2022.2.4,Win32,144.092219,,,,,,,,,,,,,,,,,,,,,,,10,7,img/B07_10.jpg,MF,Press J if the face is FEMALE and K if the face is MALE, ,KJ,,,,,,,,,,,,,,,,,,,,,,,,,,,,,,,,,,,,,,,,,,,,,,420.411,0,51,51,76,1,109,0,0,0,0,1,98,,,,,,,,,,,,,,,,,,,,,,,,,,,,,,,,,,,,,,,,,,,,,,,,,,,,,,,,,,,,,,,,,,,,,,,,,,
,,,,006293,001,2023-11-02_17h51.13.734,fluency,2022.2.4,Win32,144.092219,,,,,,,,,,,,,,,,,,,,,,,,,,,,,,,,,,,,,,,,,,,,,,,,,,,,,,,,,,,,,,,,,,,,,,,,,,,,,,,,,,0,0,0,0,1,,"[""j""]",[0.7090000000000032],3,"[""j"",""6"",""6"",""6"",""6"",""6"",""6"",""6"",""6""]","[0.7090000000000032,1.507000000000005,1.65300000000002,1.79200000000003,1.9180000000000064,2.05600000000004,2.208000000000027,2.444999999999993,2.709000000000003]",,,,,,,,,,,,,,,,,,,,,,,,,,,,,,,,,,,,,,,,,,,,,,,,,,,,,,,,,,,,,,,,,,,,,
,,,,006293,001,2023-11-02_17h51.13.734,fluency,2022.2.4,Win32,144.092219,,,,,,,,,,,,,,,,,,,,,,,10,7,img/B07_10.jpg,MF,Press J if the face is FEMALE and K if the face is MALE, ,KJ,,,,,,,,,,,,,,,,,,,,,,,,,,,,,,,,6,0.017,,,,,,,,,,,,,,0,51,51,76,1,,,,,,,,,,,,,space,0.39,,,,,,,,,,,,,,,,,,,,,,,,,,,,,,,,,,,,,,,,,,,,,,,,,,,,,,,,,,,,,,,,,,,
,,,,006293,001,2023-11-02_17h51.13.734,fluency,2022.2.4,Win32,144.092219,,,,,,,,,,,,,,,,,,,,,,,3,3,img/B03_03.jpg,MF,Press J if the face is FEMALE and K if the face is MALE, ,KJ,,,,,,,,,,,,,,,,,,,,,,,,,,,,,,,,,,,,,,,,,,,,,,424.849,0,52,52,25,1,109,0,0,0,0,1,98,,,,,,,,,,,,,,,,,,,,,,,,,,,,,,,,,,,,,,,,,,,,,,,,,,,,,,,,,,,,,,,,,,,,,,,,,,
,,,,006293,001,2023-11-02_17h51.13.734,fluency,2022.2.4,Win32,144.092219,,,,,,,,,,,,,,,,,,,,,,,,,,,,,,,,,,,,,,,,,,,,,,,,,,,,,,,,,,,,,,,,,,,,,,,,,,,,,,,,,,0,0,0,0,1,,"[""k""]",[1.7019999999999982],3,"[""k""]",[1.7019999999999982],,,,,,,,,,,,,,,,,,,,,,,,,,,,,,,,,,,,,,,,,,,,,,,,,,,,,,,,,,,,,,,,,,,,,
,,,,006293,001,2023-11-02_17h51.13.734,fluency,2022.2.4,Win32,144.092219,,,,,,,,,,,,,,,,,,,,,,,3,3,img/B03_03.jpg,MF,Press J if the face is FEMALE and K if the face is MALE, ,KJ,,,,,,,,,,,,,,,,,,,,,,,,,,,,,,,,4,0.414,,,,,,,,,,,,,,0,52,52,25,1,,,,,,,,,,,,,space,0.376,,,,,,,,,,,,,,,,,,,,,,,,,,,,,,,,,,,,,,,,,,,,,,,,,,,,,,,,,,,,,,,,,,,
,,,,006293,001,2023-11-02_17h51.13.734,fluency,2022.2.4,Win32,144.092219,,,,,,,,,,,,,,,,,,,,,,,6,8,img/B08_06.jpg,MF,Press J if the face is FEMALE and K if the face is MALE, ,KJ,,,,,,,,,,,,,,,,,,,,,,,,,,,,,,,,,,,,,,,,,,,,,,430.668,0,53,53,83,1,109,0,0,0,0,1,98,,,,,,,,,,,,,,,,,,,,,,,,,,,,,,,,,,,,,,,,,,,,,,,,,,,,,,,,,,,,,,,,,,,,,,,,,,
,,,,006293,001,2023-11-02_17h51.13.734,fluency,2022.2.4,Win32,144.092219,,,,,,,,,,,,,,,,,,,,,,,,,,,,,,,,,,,,,,,,,,,,,,,,,,,,,,,,,,,,,,,,,,,,,,,,,,,,,,,,,,0,0,0,0,1,,"[""j""]",[1.3279999999999745],3,"[""j""]",[1.3279999999999745],,,,,,,,,,,,,,,,,,,,,,,,,,,,,,,,,,,,,,,,,,,,,,,,,,,,,,,,,,,,,,,,,,,,,
,,,,006293,001,2023-11-02_17h51.13.734,fluency,2022.2.4,Win32,144.092219,,,,,,,,,,,,,,,,,,,,,,,6,8,img/B08_06.jpg,MF,Press J if the face is FEMALE and K if the face is MALE, ,KJ,,,,,,,,,,,,,,,,,,,,,,,,,,,,,,,,6,0.348,,,,,,,,,,,,,,0,53,53,83,1,,,,,,,,,,,,,space,0.355,,,,,,,,,,,,,,,,,,,,,,,,,,,,,,,,,,,,,,,,,,,,,,,,,,,,,,,,,,,,,,,,,,,
,,,,006293,001,2023-11-02_17h51.13.734,fluency,2022.2.4,Win32,144.092219,,,,,,,,,,,,,,,,,,,,,,,6,10,img/B10_06.jpg,MF,Press J if the face is FEMALE and K if the face is MALE, ,KJ,,,,,,,,,,,,,,,,,,,,,,,,,,,,,,,,,,,,,,,,,,,,,,436.404,0,54,54,105,1,109,0,0,0,0,1,98,,,,,,,,,,,,,,,,,,,,,,,,,,,,,,,,,,,,,,,,,,,,,,,,,,,,,,,,,,,,,,,,,,,,,,,,,,
,,,,006293,001,2023-11-02_17h51.13.734,fluency,2022.2.4,Win32,144.092219,,,,,,,,,,,,,,,,,,,,,,,,,,,,,,,,,,,,,,,,,,,,,,,,,,,,,,,,,,,,,,,,,,,,,,,,,,,,,,,,,,0,0,0,0,1,,"[""j"",""k"",""k"",""k"",""k""]","[2.2210000000000036,2.437000000000012,2.6030000000000086,2.7350000000000136,2.887999999999977]",3,"[""j"",""k"",""k"",""k"",""k""]","[2.2210000000000036,2.437000000000012,2.6030000000000086,2.7350000000000136,2.887999999999977]",,,,,,,,,,,,,,,,,,,,,,,,,,,,,,,,,,,,,,,,,,,,,,,,,,,,,,,,,,,,,,,,,,,,,
,,,,006293,001,2023-11-02_17h51.13.734,fluency,2022.2.4,Win32,144.092219,,,,,,,,,,,,,,,,,,,,,,,6,10,img/B10_06.jpg,MF,Press J if the face is FEMALE and K if the face is MALE, ,KJ,,,,,,,,,,,,,,,,,,,,,,,,,,,,,,,,6,0.6,,,,,,,,,,,,,,0,54,54,105,1,,,,,,,,,,,,,space,0.298,,,,,,,,,,,,,,,,,,,,,,,,,,,,,,,,,,,,,,,,,,,,,,,,,,,,,,,,,,,,,,,,,,,
,,,,006293,001,2023-11-02_17h51.13.734,fluency,2022.2.4,Win32,144.092219,,,,,,,,,,,,,,,,,,,,,,,5,4,img/B04_05.jpg,MF,Press J if the face is FEMALE and K if the face is MALE, ,KJ,,,,,,,,,,,,,,,,,,,,,,,,,,,,,,,,,,,,,,,,,,,,,,442.334,0,55,55,38,1,109,0,0,0,0,1,98,,,,,,,,,,,,,,,,,,,,,,,,,,,,,,,,,,,,,,,,,,,,,,,,,,,,,,,,,,,,,,,,,,,,,,,,,,
,,,,006293,001,2023-11-02_17h51.13.734,fluency,2022.2.4,Win32,144.092219,,,,,,,,,,,,,,,,,,,,,,,,,,,,,,,,,,,,,,,,,,,,,,,,,,,,,,,,,,,,,,,,,,,,,,,,,,,,,,,,,,0,0,0,0,1,,"[""k""]",[1.575999999999965],3,"[""k"",""5"",""5"",""5""]","[1.575999999999965,2.4639999999999986,2.69399999999996,2.8249999999999886]",,,,,,,,,,,,,,,,,,,,,,,,,,,,,,,,,,,,,,,,,,,,,,,,,,,,,,,,,,,,,,,,,,,,,
,,,,006293,001,2023-11-02_17h51.13.734,fluency,2022.2.4,Win32,144.092219,,,,,,,,,,,,,,,,,,,,,,,5,4,img/B04_05.jpg,MF,Press J if the face is FEMALE and K if the face is MALE, ,KJ,,,,,,,,,,,,,,,,,,,,,,,,,,,,,,,,5,0.114,,,,,,,,,,,,,,0,55,55,38,1,,,,,,,,,,,,,space,0.195,,,,,,,,,,,,,,,,,,,,,,,,,,,,,,,,,,,,,,,,,,,,,,,,,,,,,,,,,,,,,,,,,,,
,,,,006293,001,2023-11-02_17h51.13.734,fluency,2022.2.4,Win32,144.092219,,,,,,,,,,,,,,,,,,,,,,,8,4,img/B04_08.jpg,MF,Press J if the face is FEMALE and K if the face is MALE, ,KJ,,,,,,,,,,,,,,,,,,,,,,,,,,,,,,,,,,,,,,,,,,,,,,446.675,0,56,56,41,1,109,0,0,0,0,1,98,,,,,,,,,,,,,,,,,,,,,,,,,,,,,,,,,,,,,,,,,,,,,,,,,,,,,,,,,,,,,,,,,,,,,,,,,,
,,,,006293,001,2023-11-02_17h51.13.734,fluency,2022.2.4,Win32,144.092219,,,,,,,,,,,,,,,,,,,,,,,,,,,,,,,,,,,,,,,,,,,,,,,,,,,,,,,,,,,,,,,,,,,,,,,,,,,,,,,,,,0,0,0,0,1,,"[""k""]",[0.992999999999995],3,"[""k""]",[0.992999999999995],,,,,,,,,,,,,,,,,,,,,,,,,,,,,,,,,,,,,,,,,,,,,,,,,,,,,,,,,,,,,,,,,,,,,
,,,,006293,001,2023-11-02_17h51.13.734,fluency,2022.2.4,Win32,144.092219,,,,,,,,,,,,,,,,,,,,,,,8,4,img/B04_08.jpg,MF,Press J if the face is FEMALE and K if the face is MALE, ,KJ,,,,,,,,,,,,,,,,,,,,,,,,,,,,,,,,5,0.866,,,,,,,,,,,,,,0,56,56,41,1,,,,,,,,,,,,,space,0.34,,,,,,,,,,,,,,,,,,,,,,,,,,,,,,,,,,,,,,,,,,,,,,,,,,,,,,,,,,,,,,,,,,,
,,,,006293,001,2023-11-02_17h51.13.734,fluency,2022.2.4,Win32,144.092219,,,,,,,,,,,,,,,,,,,,,,,5,6,img/B06_05.jpg,MF,Press J if the face is FEMALE and K if the face is MALE, ,KJ,,,,,,,,,,,,,,,,,,,,,,,,,,,,,,,,,,,,,,,,,,,,,,452.91,0,57,57,60,1,109,0,0,0,0,1,98,,,,,,,,,,,,,,,,,,,,,,,,,,,,,,,,,,,,,,,,,,,,,,,,,,,,,,,,,,,,,,,,,,,,,,,,,,
,,,,006293,001,2023-11-02_17h51.13.734,fluency,2022.2.4,Win32,144.092219,,,,,,,,,,,,,,,,,,,,,,,,,,,,,,,,,,,,,,,,,,,,,,,,,,,,,,,,,,,,,,,,,,,,,,,,,,,,,,,,,,0,0,0,0,1,,"[""k""]",[1.1040000000000418],3,"[""k""]",[1.1050000000000182],,,,,,,,,,,,,,,,,,,,,,,,,,,,,,,,,,,,,,,,,,,,,,,,,,,,,,,,,,,,,,,,,,,,,
,,,,006293,001,2023-11-02_17h51.13.734,fluency,2022.2.4,Win32,144.092219,,,,,,,,,,,,,,,,,,,,,,,5,6,img/B06_05.jpg,MF,Press J if the face is FEMALE and K if the face is MALE, ,KJ,,,,,,,,,,,,,,,,,,,,,,,,,,,,,,,,6,0.429,,,,,,,,,,,,,,0,57,57,60,1,,,,,,,,,,,,,space,0.271,,,,,,,,,,,,,,,,,,,,,,,,,,,,,,,,,,,,,,,,,,,,,,,,,,,,,,,,,,,,,,,,,,,
,,,,006293,001,2023-11-02_17h51.13.734,fluency,2022.2.4,Win32,144.092219,,,,,,,,,,,,,,,,,,,,,,,10,8,img/B08_10.jpg,MF,Press J if the face is FEMALE and K if the face is MALE, ,KJ,,,,,,,,,,,,,,,,,,,,,,,,,,,,,,,,,,,,,,,,,,,,,,458.64,0,58,58,87,1,109,0,0,0,0,1,98,,,,,,,,,,,,,,,,,,,,,,,,,,,,,,,,,,,,,,,,,,,,,,,,,,,,,,,,,,,,,,,,,,,,,,,,,,
,,,,006293,001,2023-11-02_17h51.13.734,fluency,2022.2.4,Win32,144.092219,,,,,,,,,,,,,,,,,,,,,,,,,,,,,,,,,,,,,,,,,,,,,,,,,,,,,,,,,,,,,,,,,,,,,,,,,,,,,,,,,,0,0,0,0,1,,"[""k""]",[1.08299999999997],3,"[""k"",""7""]","[1.08299999999997,2.95799999999997]",,,,,,,,,,,,,,,,,,,,,,,,,,,,,,,,,,,,,,,,,,,,,,,,,,,,,,,,,,,,,,,,,,,,,
,,,,006293,001,2023-11-02_17h51.13.734,fluency,2022.2.4,Win32,144.092219,,,,,,,,,,,,,,,,,,,,,,,10,8,img/B08_10.jpg,MF,Press J if the face is FEMALE and K if the face is MALE, ,KJ,,,,,,,,,,,,,,,,,,,,,,,,,,,,,,,,8,0.714,,,,,,,,,,,,,,0,58,58,87,1,,,,,,,,,,,,,space,0.416,,,,,,,,,,,,,,,,,,,,,,,,,,,,,,,,,,,,,,,,,,,,,,,,,,,,,,,,,,,,,,,,,,,
,,,,006293,001,2023-11-02_17h51.13.734,fluency,2022.2.4,Win32,144.092219,,,,,,,,,,,,,,,,,,,,,,,0,4,img/B04_00.jpg,MF,Press J if the face is FEMALE and K if the face is MALE, ,KJ,,,,,,,,,,,,,,,,,,,,,,,,,,,,,,,,,,,,,,,,,,,,,,464.799,0,59,59,33,1,109,0,0,0,0,1,98,,,,,,,,,,,,,,,,,,,,,,,,,,,,,,,,,,,,,,,,,,,,,,,,,,,,,,,,,,,,,,,,,,,,,,,,,,
,,,,006293,001,2023-11-02_17h51.13.734,fluency,2022.2.4,Win32,144.092219,,,,,,,,,,,,,,,,,,,,,,,,,,,,,,,,,,,,,,,,,,,,,,,,,,,,,,,,,,,,,,,,,,,,,,,,,,,,,,,,,,0,0,0,0,1,,"[""k""]",[0.617999999999995],3,"[""k"",""7""]","[0.617999999999995,2.882000000000005]",,,,,,,,,,,,,,,,,,,,,,,,,,,,,,,,,,,,,,,,,,,,,,,,,,,,,,,,,,,,,,,,,,,,,
,,,,006293,001,2023-11-02_17h51.13.734,fluency,2022.2.4,Win32,144.092219,,,,,,,,,,,,,,,,,,,,,,,0,4,img/B04_00.jpg,MF,Press J if the face is FEMALE and K if the face is MALE, ,KJ,,,,,,,,,,,,,,,,,,,,,,,,,,,,,,,,7,0.558,,,,,,,,,,,,,,0,59,59,33,1,,,,,,,,,,,,,space,0.589,,,,,,,,,,,,,,,,,,,,,,,,,,,,,,,,,,,,,,,,,,,,,,,,,,,,,,,,,,,,,,,,,,,
,,,,006293,001,2023-11-02_17h51.13.734,fluency,2022.2.4,Win32,144.092219,,,,,,,,,,,,,,,,,,,,,,,9,4,img/B04_09.jpg,MF,Press J if the face is FEMALE and K if the face is MALE, ,KJ,,,,,,,,,,,,,,,,,,,,,,,,,,,,,,,,,,,,,,,,,,,,,,470.981,0,60,60,42,1,109,0,0,0,0,1,98,,,,,,,,,,,,,,,,,,,,,,,,,,,,,,,,,,,,,,,,,,,,,,,,,,,,,,,,,,,,,,,,,,,,,,,,,,
,,,,006293,001,2023-11-02_17h51.13.734,fluency,2022.2.4,Win32,144.092219,,,,,,,,,,,,,,,,,,,,,,,,,,,,,,,,,,,,,,,,,,,,,,,,,,,,,,,,,,,,,,,,,,,,,,,,,,,,,,,,,,0,0,0,0,1,,"[""j""]",[1.6520000000000437],3,"[""j""]",[1.6520000000000437],,,,,,,,,,,,,,,,,,,,,,,,,,,,,,,,,,,,,,,,,,,,,,,,,,,,,,,,,,,,,,,,,,,,,
,,,,006293,001,2023-11-02_17h51.13.734,fluency,2022.2.4,Win32,144.092219,,,,,,,,,,,,,,,,,,,,,,,9,4,img/B04_09.jpg,MF,Press J if the face is FEMALE and K if the face is MALE, ,KJ,,,,,,,,,,,,,,,,,,,,,,,,,,,,,,,,5,0.29,,,,,,,,,,,,,,0,60,60,42,1,,,,,,,,,,,,,space,0.278,,,,,,,,,,,,,,,,,,,,,,,,,,,,,,,,,,,,,,,,,,,,,,,,,,,,,,,,,,,,,,,,,,,
,,,,006293,001,2023-11-02_17h51.13.734,fluency,2022.2.4,Win32,144.092219,,,,,,,,,,,,,,,,,,,,,,,2,9,img/B09_02.jpg,MF,Press J if the face is FEMALE and K if the face is MALE, ,KJ,,,,,,,,,,,,,,,,,,,,,,,,,,,,,,,,,,,,,,,,,,,,,,476.577,0,61,61,90,1,109,0,0,0,0,1,98,,,,,,,,,,,,,,,,,,,,,,,,,,,,,,,,,,,,,,,,,,,,,,,,,,,,,,,,,,,,,,,,,,,,,,,,,,
,,,,006293,001,2023-11-02_17h51.13.734,fluency,2022.2.4,Win32,144.092219,,,,,,,,,,,,,,,,,,,,,,,,,,,,,,,,,,,,,,,,,,,,,,,,,,,,,,,,,,,,,,,,,,,,,,,,,,,,,,,,,,0,0,0,0,1,,"[""k""]",[1.492999999999995],3,"[""k""]",[1.492999999999995],,,,,,,,,,,,,,,,,,,,,,,,,,,,,,,,,,,,,,,,,,,,,,,,,,,,,,,,,,,,,,,,,,,,,
,,,,006293,001,2023-11-02_17h51.13.734,fluency,2022.2.4,Win32,144.092219,,,,,,,,,,,,,,,,,,,,,,,2,9,img/B09_02.jpg,MF,Press J if the face is FEMALE and K if the face is MALE, ,KJ,,,,,,,,,,,,,,,,,,,,,,,,,,,,,,,,7,0.998,,,,,,,,,,,,,,0,61,61,90,1,,,,,,,,,,,,,space,0.648,,,,,,,,,,,,,,,,,,,,,,,,,,,,,,,,,,,,,,,,,,,,,,,,,,,,,,,,,,,,,,,,,,,
,,,,006293,001,2023-11-02_17h51.13.734,fluency,2022.2.4,Win32,144.092219,,,,,,,,,,,,,,,,,,,,,,,1,9,img/B09_01.jpg,MF,Press J if the face is FEMALE and K if the face is MALE, ,KJ,,,,,,,,,,,,,,,,,,,,,,,,,,,,,,,,,,,,,,,,,,,,,,482.251,0,62,62,89,1,109,0,0,0,0,1,98,,,,,,,,,,,,,,,,,,,,,,,,,,,,,,,,,,,,,,,,,,,,,,,,,,,,,,,,,,,,,,,,,,,,,,,,,,
,,,,006293,001,2023-11-02_17h51.13.734,fluency,2022.2.4,Win32,144.092219,,,,,,,,,,,,,,,,,,,,,,,,,,,,,,,,,,,,,,,,,,,,,,,,,,,,,,,,,,,,,,,,,,,,,,,,,,,,,,,,,,0,0,0,0,1,,"[""k"",""k""]","[1.0710000000000264,1.2490000000000236]",3,"[""k"",""k""]","[1.0710000000000264,1.2490000000000236]",,,,,,,,,,,,,,,,,,,,,,,,,,,,,,,,,,,,,,,,,,,,,,,,,,,,,,,,,,,,,,,,,,,,,
,,,,006293,001,2023-11-02_17h51.13.734,fluency,2022.2.4,Win32,144.092219,,,,,,,,,,,,,,,,,,,,,,,1,9,img/B09_01.jpg,MF,Press J if the face is FEMALE and K if the face is MALE, ,KJ,,,,,,,,,,,,,,,,,,,,,,,,,,,,,,,,7,0.781,,,,,,,,,,,,,,0,62,62,89,1,,,,,,,,,,,,,space,0.537,,,,,,,,,,,,,,,,,,,,,,,,,,,,,,,,,,,,,,,,,,,,,,,,,,,,,,,,,,,,,,,,,,,
,,,,006293,001,2023-11-02_17h51.13.734,fluency,2022.2.4,Win32,144.092219,,,,,,,,,,,,,,,,,,,,,,,8,9,img/B09_08.jpg,MF,Press J if the face is FEMALE and K if the face is MALE, ,KJ,,,,,,,,,,,,,,,,,,,,,,,,,,,,,,,,,,,,,,,,,,,,,,488.59,0,63,63,96,1,109,0,0,0,0,1,98,,,,,,,,,,,,,,,,,,,,,,,,,,,,,,,,,,,,,,,,,,,,,,,,,,,,,,,,,,,,,,,,,,,,,,,,,,
,,,,006293,001,2023-11-02_17h51.13.734,fluency,2022.2.4,Win32,144.092219,,,,,,,,,,,,,,,,,,,,,,,,,,,,,,,,,,,,,,,,,,,,,,,,,,,,,,,,,,,,,,,,,,,,,,,,,,,,,,,,,,0,0,0,0,1,,"[""j""]",[0.7239999999999895],3,"[""j""]",[0.7239999999999895],,,,,,,,,,,,,,,,,,,,,,,,,,,,,,,,,,,,,,,,,,,,,,,,,,,,,,,,,,,,,,,,,,,,,
,,,,006293,001,2023-11-02_17h51.13.734,fluency,2022.2.4,Win32,144.092219,,,,,,,,,,,,,,,,,,,,,,,8,9,img/B09_08.jpg,MF,Press J if the face is FEMALE and K if the face is MALE, ,KJ,,,,,,,,,,,,,,,,,,,,,,,,,,,,,,,,8,0.087,,,,,,,,,,,,,,0,63,63,96,1,,,,,,,,,,,,,space,0.342,,,,,,,,,,,,,,,,,,,,,,,,,,,,,,,,,,,,,,,,,,,,,,,,,,,,,,,,,,,,,,,,,,,
,,,,006293,001,2023-11-02_17h51.13.734,fluency,2022.2.4,Win32,144.092219,,,,,,,,,,,,,,,,,,,,,,,5,9,img/B09_05.jpg,MF,Press J if the face is FEMALE and K if the face is MALE, ,KJ,,,,,,,,,,,,,,,,,,,,,,,,,,,,,,,,,,,,,,,,,,,,,,494.052,0,64,64,93,1,109,0,0,0,0,1,98,,,,,,,,,,,,,,,,,,,,,,,,,,,,,,,,,,,,,,,,,,,,,,,,,,,,,,,,,,,,,,,,,,,,,,,,,,
,,,,006293,001,2023-11-02_17h51.13.734,fluency,2022.2.4,Win32,144.092219,,,,,,,,,,,,,,,,,,,,,,,,,,,,,,,,,,,,,,,,,,,,,,,,,,,,,,,,,,,,,,,,,,,,,,,,,,,,,,,,,,0,0,0,0,1,,"[""j""]",[1.8110000000000355],3,"[""j""]",[1.8110000000000355],,,,,,,,,,,,,,,,,,,,,,,,,,,,,,,,,,,,,,,,,,,,,,,,,,,,,,,,,,,,,,,,,,,,,
,,,,006293,001,2023-11-02_17h51.13.734,fluency,2022.2.4,Win32,144.092219,,,,,,,,,,,,,,,,,,,,,,,5,9,img/B09_05.jpg,MF,Press J if the face is FEMALE and K if the face is MALE, ,KJ,,,,,,,,,,,,,,,,,,,,,,,,,,,,,,,,5,0.475,,,,,,,,,,,,,,0,64,64,93,1,,,,,,,,,,,,,space,3.034,,,,,,,,,,,,,,,,,,,,,,,,,,,,,,,,,,,,,,,,,,,,,,,,,,,,,,,,,,,,,,,,,,,
,,,,006293,001,2023-11-02_17h51.13.734,fluency,2022.2.4,Win32,144.092219,,,,,,,,,,,,,,,,,,,,,,,1,3,img/B03_01.jpg,MF,Press J if the face is FEMALE and K if the face is MALE, ,KJ,,,,,,,,,,,,,,,,,,,,,,,,,,,,,,,,,,,,,,,,,,,,,,502.59,0,65,65,23,1,109,0,0,0,0,1,98,,,,,,,,,,,,,,,,,,,,,,,,,,,,,,,,,,,,,,,,,,,,,,,,,,,,,,,,,,,,,,,,,,,,,,,,,,
,,,,006293,001,2023-11-02_17h51.13.734,fluency,2022.2.4,Win32,144.092219,,,,,,,,,,,,,,,,,,,,,,,,,,,,,,,,,,,,,,,,,,,,,,,,,,,,,,,,,,,,,,,,,,,,,,,,,,,,,,,,,,0,0,0,0,1,,"[""k""]",[0.6870000000000118],3,"[""k"",""5""]","[0.6870000000000118,1.8670000000000186]",,,,,,,,,,,,,,,,,,,,,,,,,,,,,,,,,,,,,,,,,,,,,,,,,,,,,,,,,,,,,,,,,,,,,
,,,,006293,001,2023-11-02_17h51.13.734,fluency,2022.2.4,Win32,144.092219,,,,,,,,,,,,,,,,,,,,,,,1,3,img/B03_01.jpg,MF,Press J if the face is FEMALE and K if the face is MALE, ,KJ,,,,,,,,,,,,,,,,,,,,,,,,,,,,,,,,5,0.101,,,,,,,,,,,,,,0,65,65,23,1,,,,,,,,,,,,,space,0.584,,,,,,,,,,,,,,,,,,,,,,,,,,,,,,,,,,,,,,,,,,,,,,,,,,,,,,,,,,,,,,,,,,,
,,,,006293,001,2023-11-02_17h51.13.734,fluency,2022.2.4,Win32,144.092219,,,,,,,,,,,,,,,,,,,,,,,4,1,img/B01_04.jpg,MF,Press J if the face is FEMALE and K if the face is MALE, ,KJ,,,,,,,,,,,,,,,,,,,,,,,,,,,,,,,,,,,,,,,,,,,,,,508.306,0,66,66,4,1,109,0,0,0,0,1,98,,,,,,,,,,,,,,,,,,,,,,,,,,,,,,,,,,,,,,,,,,,,,,,,,,,,,,,,,,,,,,,,,,,,,,,,,,
,,,,006293,001,2023-11-02_17h51.13.734,fluency,2022.2.4,Win32,144.092219,,,,,,,,,,,,,,,,,,,,,,,,,,,,,,,,,,,,,,,,,,,,,,,,,,,,,,,,,,,,,,,,,,,,,,,,,,,,,,,,,,0,0,0,0,1,,"[""k""]",[1.4590000000001169],3,"[""k"",""6""]","[1.4590000000001169,2.944000000000017]",,,,,,,,,,,,,,,,,,,,,,,,,,,,,,,,,,,,,,,,,,,,,,,,,,,,,,,,,,,,,,,,,,,,,
,,,,006293,001,2023-11-02_17h51.13.734,fluency,2022.2.4,Win32,144.092219,,,,,,,,,,,,,,,,,,,,,,,4,1,img/B01_04.jpg,MF,Press J if the face is FEMALE and K if the face is MALE, ,KJ,,,,,,,,,,,,,,,,,,,,,,,,,,,,,,,,6,0.164,,,,,,,,,,,,,,0,66,66,4,1,,,,,,,,,,,,,space,0.508,,,,,,,,,,,,,,,,,,,,,,,,,,,,,,,,,,,,,,,,,,,,,,,,,,,,,,,,,,,,,,,,,,,
,,,,006293,001,2023-11-02_17h51.13.734,fluency,2022.2.4,Win32,144.092219,,,,,,,,,,,,,,,,,,,,,,,9,3,img/B03_09.jpg,MF,Press J if the face is FEMALE and K if the face is MALE, ,KJ,,,,,,,,,,,,,,,,,,,,,,,,,,,,,,,,,,,,,,,,,,,,,,514.006,0,67,67,31,1,109,0,0,0,0,1,98,,,,,,,,,,,,,,,,,,,,,,,,,,,,,,,,,,,,,,,,,,,,,,,,,,,,,,,,,,,,,,,,,,,,,,,,,,
,,,,006293,001,2023-11-02_17h51.13.734,fluency,2022.2.4,Win32,144.092219,,,,,,,,,,,,,,,,,,,,,,,,,,,,,,,,,,,,,,,,,,,,,,,,,,,,,,,,,,,,,,,,,,,,,,,,,,,,,,,,,,0,0,0,0,1,,"[""j""]",[0.7569999999999482],3,"[""j""]",[0.7569999999999482],,,,,,,,,,,,,,,,,,,,,,,,,,,,,,,,,,,,,,,,,,,,,,,,,,,,,,,,,,,,,,,,,,,,,
,,,,006293,001,2023-11-02_17h51.13.734,fluency,2022.2.4,Win32,144.092219,,,,,,,,,,,,,,,,,,,,,,,9,3,img/B03_09.jpg,MF,Press J if the face is FEMALE and K if the face is MALE, ,KJ,,,,,,,,,,,,,,,,,,,,,,,,,,,,,,,,6,0.623,,,,,,,,,,,,,,0,67,67,31,1,,,,,,,,,,,,,space,0.758,,,,,,,,,,,,,,,,,,,,,,,,,,,,,,,,,,,,,,,,,,,,,,,,,,,,,,,,,,,,,,,,,,,
,,,,006293,001,2023-11-02_17h51.13.734,fluency,2022.2.4,Win32,144.092219,,,,,,,,,,,,,,,,,,,,,,,9,1,img/B01_09.jpg,MF,Press J if the face is FEMALE and K if the face is MALE, ,KJ,,,,,,,,,,,,,,,,,,,,,,,,,,,,,,,,,,,,,,,,,,,,,,520.416,0,68,68,9,1,109,0,0,0,0,1,98,,,,,,,,,,,,,,,,,,,,,,,,,,,,,,,,,,,,,,,,,,,,,,,,,,,,,,,,,,,,,,,,,,,,,,,,,,
,,,,006293,001,2023-11-02_17h51.13.734,fluency,2022.2.4,Win32,144.092219,,,,,,,,,,,,,,,,,,,,,,,,,,,,,,,,,,,,,,,,,,,,,,,,,,,,,,,,,,,,,,,,,,,,,,,,,,,,,,,,,,0,0,0,0,1,,"[""j""]",[1.0900000000000318],3,"[""j""]",[1.0900000000000318],,,,,,,,,,,,,,,,,,,,,,,,,,,,,,,,,,,,,,,,,,,,,,,,,,,,,,,,,,,,,,,,,,,,,
,,,,006293,001,2023-11-02_17h51.13.734,fluency,2022.2.4,Win32,144.092219,,,,,,,,,,,,,,,,,,,,,,,9,1,img/B01_09.jpg,MF,Press J if the face is FEMALE and K if the face is MALE, ,KJ,,,,,,,,,,,,,,,,,,,,,,,,,,,,,,,,5,0.659,,,,,,,,,,,,,,0,68,68,9,1,,,,,,,,,,,,,space,0.493,,,,,,,,,,,,,,,,,,,,,,,,,,,,,,,,,,,,,,,,,,,,,,,,,,,,,,,,,,,,,,,,,,,
,,,,006293,001,2023-11-02_17h51.13.734,fluency,2022.2.4,Win32,144.092219,,,,,,,,,,,,,,,,,,,,,,,10,3,img/B03_10.jpg,MF,Press J if the face is FEMALE and K if the face is MALE, ,KJ,,,,,,,,,,,,,,,,,,,,,,,,,,,,,,,,,,,,,,,,,,,,,,525.597,0,69,69,32,1,109,0,0,0,0,1,98,,,,,,,,,,,,,,,,,,,,,,,,,,,,,,,,,,,,,,,,,,,,,,,,,,,,,,,,,,,,,,,,,,,,,,,,,,
,,,,006293,001,2023-11-02_17h51.13.734,fluency,2022.2.4,Win32,144.092219,,,,,,,,,,,,,,,,,,,,,,,,,,,,,,,,,,,,,,,,,,,,,,,,,,,,,,,,,,,,,,,,,,,,,,,,,,,,,,,,,,0,0,0,0,1,,"[""j""]",[1.7200000000000273],3,"[""j"",""6""]","[1.7200000000000273,2.880999999999972]",,,,,,,,,,,,,,,,,,,,,,,,,,,,,,,,,,,,,,,,,,,,,,,,,,,,,,,,,,,,,,,,,,,,,
,,,,006293,001,2023-11-02_17h51.13.734,fluency,2022.2.4,Win32,144.092219,,,,,,,,,,,,,,,,,,,,,,,10,3,img/B03_10.jpg,MF,Press J if the face is FEMALE and K if the face is MALE, ,KJ,,,,,,,,,,,,,,,,,,,,,,,,,,,,,,,,6,0.114,,,,,,,,,,,,,,0,69,69,32,1,,,,,,,,,,,,,space,0.334,,,,,,,,,,,,,,,,,,,,,,,,,,,,,,,,,,,,,,,,,,,,,,,,,,,,,,,,,,,,,,,,,,,
,,,,006293,001,2023-11-02_17h51.13.734,fluency,2022.2.4,Win32,144.092219,,,,,,,,,,,,,,,,,,,,,,,4,3,img/B03_04.jpg,MF,Press J if the face is FEMALE and K if the face is MALE, ,KJ,,,,,,,,,,,,,,,,,,,,,,,,,,,,,,,,,,,,,,,,,,,,,,531.075,0,70,70,26,1,109,0,0,0,0,1,98,,,,,,,,,,,,,,,,,,,,,,,,,,,,,,,,,,,,,,,,,,,,,,,,,,,,,,,,,,,,,,,,,,,,,,,,,,
,,,,006293,001,2023-11-02_17h51.13.734,fluency,2022.2.4,Win32,144.092219,,,,,,,,,,,,,,,,,,,,,,,,,,,,,,,,,,,,,,,,,,,,,,,,,,,,,,,,,,,,,,,,,,,,,,,,,,,,,,,,,,0,0,0,0,1,,"[""k""]",[0.6790000000000873],3,"[""k"",""7"",""7"",""7""]","[0.6790000000000873,2.132000000000062,2.423000000000002,2.7700000000000955]",,,,,,,,,,,,,,,,,,,,,,,,,,,,,,,,,,,,,,,,,,,,,,,,,,,,,,,,,,,,,,,,,,,,,
,,,,006293,001,2023-11-02_17h51.13.734,fluency,2022.2.4,Win32,144.092219,,,,,,,,,,,,,,,,,,,,,,,4,3,img/B03_04.jpg,MF,Press J if the face is FEMALE and K if the face is MALE, ,KJ,,,,,,,,,,,,,,,,,,,,,,,,,,,,,,,,7,0.081,,,,,,,,,,,,,,0,70,70,26,1,,,,,,,,,,,,,space,0.562,,,,,,,,,,,,,,,,,,,,,,,,,,,,,,,,,,,,,,,,,,,,,,,,,,,,,,,,,,,,,,,,,,,
,,,,006293,001,2023-11-02_17h51.13.734,fluency,2022.2.4,Win32,144.092219,,,,,,,,,,,,,,,,,,,,,,,1,4,img/B04_01.jpg,MF,Press J if the face is FEMALE and K if the face is MALE, ,KJ,,,,,,,,,,,,,,,,,,,,,,,,,,,,,,,,,,,,,,,,,,,,,,536.75,0,71,71,34,1,109,0,0,0,0,1,98,,,,,,,,,,,,,,,,,,,,,,,,,,,,,,,,,,,,,,,,,,,,,,,,,,,,,,,,,,,,,,,,,,,,,,,,,,
,,,,006293,001,2023-11-02_17h51.13.734,fluency,2022.2.4,Win32,144.092219,,,,,,,,,,,,,,,,,,,,,,,,,,,,,,,,,,,,,,,,,,,,,,,,,,,,,,,,,,,,,,,,,,,,,,,,,,,,,,,,,,0,0,0,0,1,,"[""k"",""k""]","[1.2570000000000618,1.8320000000001073]",3,"[""k"",""8"",""k"",""8"",""8"",""8""]","[1.2570000000000618,1.5130000000000337,1.8320000000001073,2.1240000000000236,2.4440000000000737,2.76400000000001]",,,,,,,,,,,,,,,,,,,,,,,,,,,,,,,,,,,,,,,,,,,,,,,,,,,,,,,,,,,,,,,,,,,,,
,,,,006293,001,2023-11-02_17h51.13.734,fluency,2022.2.4,Win32,144.092219,,,,,,,,,,,,,,,,,,,,,,,1,4,img/B04_01.jpg,MF,Press J if the face is FEMALE and K if the face is MALE, ,KJ,,,,,,,,,,,,,,,,,,,,,,,,,,,,,,,,8,0.06,,,,,,,,,,,,,,0,71,71,34,1,,,,,,,,,,,,,space,0.676,,,,,,,,,,,,,,,,,,,,,,,,,,,,,,,,,,,,,,,,,,,,,,,,,,,,,,,,,,,,,,,,,,,
,,,,006293,001,2023-11-02_17h51.13.734,fluency,2022.2.4,Win32,144.092219,,,,,,,,,,,,,,,,,,,,,,,7,1,img/B01_07.jpg,MF,Press J if the face is FEMALE and K if the face is MALE, ,KJ,,,,,,,,,,,,,,,,,,,,,,,,,,,,,,,,,,,,,,,,,,,,,,542.506,0,72,72,7,1,109,0,0,0,0,1,98,,,,,,,,,,,,,,,,,,,,,,,,,,,,,,,,,,,,,,,,,,,,,,,,,,,,,,,,,,,,,,,,,,,,,,,,,,
,,,,006293,001,2023-11-02_17h51.13.734,fluency,2022.2.4,Win32,144.092219,,,,,,,,,,,,,,,,,,,,,,,,,,,,,,,,,,,,,,,,,,,,,,,,,,,,,,,,,,,,,,,,,,,,,,,,,,,,,,,,,,0,0,0,0,1,,"[""k""]",[1.1609999999999445],3,"[""k"",""6"",""6""]","[1.1609999999999445,2.5419999999999163,2.9729999999999563]",,,,,,,,,,,,,,,,,,,,,,,,,,,,,,,,,,,,,,,,,,,,,,,,,,,,,,,,,,,,,,,,,,,,,
,,,,006293,001,2023-11-02_17h51.13.734,fluency,2022.2.4,Win32,144.092219,,,,,,,,,,,,,,,,,,,,,,,7,1,img/B01_07.jpg,MF,Press J if the face is FEMALE and K if the face is MALE, ,KJ,,,,,,,,,,,,,,,,,,,,,,,,,,,,,,,,6,0.366,,,,,,,,,,,,,,0,72,72,7,1,,,,,,,,,,,,,space,0.862,,,,,,,,,,,,,,,,,,,,,,,,,,,,,,,,,,,,,,,,,,,,,,,,,,,,,,,,,,,,,,,,,,,
,,,,006293,001,2023-11-02_17h51.13.734,fluency,2022.2.4,Win32,144.092219,,,,,,,,,,,,,,,,,,,,,,,8,5,img/B05_08.jpg,MF,Press J if the face is FEMALE and K if the face is MALE, ,KJ,,,,,,,,,,,,,,,,,,,,,,,,,,,,,,,,,,,,,,,,,,,,,,547.762,0,73,73,52,1,109,0,0,0,0,1,98,,,,,,,,,,,,,,,,,,,,,,,,,,,,,,,,,,,,,,,,,,,,,,,,,,,,,,,,,,,,,,,,,,,,,,,,,,
,,,,006293,001,2023-11-02_17h51.13.734,fluency,2022.2.4,Win32,144.092219,,,,,,,,,,,,,,,,,,,,,,,,,,,,,,,,,,,,,,,,,,,,,,,,,,,,,,,,,,,,,,,,,,,,,,,,,,,,,,,,,,0,0,0,0,1,,"[""j""]",[1.0220000000000482],3,"[""j""]",[1.0220000000000482],,,,,,,,,,,,,,,,,,,,,,,,,,,,,,,,,,,,,,,,,,,,,,,,,,,,,,,,,,,,,,,,,,,,,
,,,,006293,001,2023-11-02_17h51.13.734,fluency,2022.2.4,Win32,144.092219,,,,,,,,,,,,,,,,,,,,,,,8,5,img/B05_08.jpg,MF,Press J if the face is FEMALE and K if the face is MALE, ,KJ,,,,,,,,,,,,,,,,,,,,,,,,,,,,,,,,6,0.401,,,,,,,,,,,,,,0,73,73,52,1,,,,,,,,,,,,,space,1.473,,,,,,,,,,,,,,,,,,,,,,,,,,,,,,,,,,,,,,,,,,,,,,,,,,,,,,,,,,,,,,,,,,,
,,,,006293,001,2023-11-02_17h51.13.734,fluency,2022.2.4,Win32,144.092219,,,,,,,,,,,,,,,,,,,,,,,2,2,img/B02_02.jpg,MF,Press J if the face is FEMALE and K if the face is MALE, ,KJ,,,,,,,,,,,,,,,,,,,,,,,,,,,,,,,,,,,,,,,,,,,,,,554.668,0,74,74,13,1,109,0,0,0,0,1,98,,,,,,,,,,,,,,,,,,,,,,,,,,,,,,,,,,,,,,,,,,,,,,,,,,,,,,,,,,,,,,,,,,,,,,,,,,
,,,,006293,001,2023-11-02_17h51.13.734,fluency,2022.2.4,Win32,144.092219,,,,,,,,,,,,,,,,,,,,,,,,,,,,,,,,,,,,,,,,,,,,,,,,,,,,,,,,,,,,,,,,,,,,,,,,,,,,,,,,,,0,0,0,0,1,,"[""k""]",[1.0120000000000573],3,"[""k""]",[1.0120000000000573],,,,,,,,,,,,,,,,,,,,,,,,,,,,,,,,,,,,,,,,,,,,,,,,,,,,,,,,,,,,,,,,,,,,,
,,,,006293,001,2023-11-02_17h51.13.734,fluency,2022.2.4,Win32,144.092219,,,,,,,,,,,,,,,,,,,,,,,2,2,img/B02_02.jpg,MF,Press J if the face is FEMALE and K if the face is MALE, ,KJ,,,,,,,,,,,,,,,,,,,,,,,,,,,,,,,,7,0.849,,,,,,,,,,,,,,0,74,74,13,1,,,,,,,,,,,,,space,0.861,,,,,,,,,,,,,,,,,,,,,,,,,,,,,,,,,,,,,,,,,,,,,,,,,,,,,,,,,,,,,,,,,,,
,,,,006293,001,2023-11-02_17h51.13.734,fluency,2022.2.4,Win32,144.092219,,,,,,,,,,,,,,,,,,,,,,,3,1,img/B01_03.jpg,MF,Press J if the face is FEMALE and K if the face is MALE, ,KJ,,,,,,,,,,,,,,,,,,,,,,,,,,,,,,,,,,,,,,,,,,,,,,560.408,0,75,75,3,1,109,0,0,0,0,1,98,,,,,,,,,,,,,,,,,,,,,,,,,,,,,,,,,,,,,,,,,,,,,,,,,,,,,,,,,,,,,,,,,,,,,,,,,,
,,,,006293,001,2023-11-02_17h51.13.734,fluency,2022.2.4,Win32,144.092219,,,,,,,,,,,,,,,,,,,,,,,,,,,,,,,,,,,,,,,,,,,,,,,,,,,,,,,,,,,,,,,,,,,,,,,,,,,,,,,,,,0,0,0,0,1,,"[""k""]",[1.61099999999999],3,"[""k"",""5""]","[1.61099999999999,2.853999999999928]",,,,,,,,,,,,,,,,,,,,,,,,,,,,,,,,,,,,,,,,,,,,,,,,,,,,,,,,,,,,,,,,,,,,,
,,,,006293,001,2023-11-02_17h51.13.734,fluency,2022.2.4,Win32,144.092219,,,,,,,,,,,,,,,,,,,,,,,3,1,img/B01_03.jpg,MF,Press J if the face is FEMALE and K if the face is MALE, ,KJ,,,,,,,,,,,,,,,,,,,,,,,,,,,,,,,,5,0.108,,,,,,,,,,,,,,0,75,75,3,1,,,,,,,,,,,,,space,0.632,,,,,,,,,,,,,,,,,,,,,,,,,,,,,,,,,,,,,,,,,,,,,,,,,,,,,,,,,,,,,,,,,,,
,,,,006293,001,2023-11-02_17h51.13.734,fluency,2022.2.4,Win32,144.092219,,,,,,,,,,,,,,,,,,,,,,,2,6,img/B06_02.jpg,MF,Press J if the face is FEMALE and K if the face is MALE, ,KJ,,,,,,,,,,,,,,,,,,,,,,,,,,,,,,,,,,,,,,,,,,,,,,565.179,0,76,76,57,1,109,0,0,0,0,1,98,,,,,,,,,,,,,,,,,,,,,,,,,,,,,,,,,,,,,,,,,,,,,,,,,,,,,,,,,,,,,,,,,,,,,,,,,,
,,,,006293,001,2023-11-02_17h51.13.734,fluency,2022.2.4,Win32,144.092219,,,,,,,,,,,,,,,,,,,,,,,,,,,,,,,,,,,,,,,,,,,,,,,,,,,,,,,,,,,,,,,,,,,,,,,,,,,,,,,,,,0,0,0,0,1,,"[""k""]",[0.88900000000001],3,"[""k""]",[0.88900000000001],,,,,,,,,,,,,,,,,,,,,,,,,,,,,,,,,,,,,,,,,,,,,,,,,,,,,,,,,,,,,,,,,,,,,
,,,,006293,001,2023-11-02_17h51.13.734,fluency,2022.2.4,Win32,144.092219,,,,,,,,,,,,,,,,,,,,,,,2,6,img/B06_02.jpg,MF,Press J if the face is FEMALE and K if the face is MALE, ,KJ,,,,,,,,,,,,,,,,,,,,,,,,,,,,,,,,7,1.156,,,,,,,,,,,,,,0,76,76,57,1,,,,,,,,,,,,,space,0.661,,,,,,,,,,,,,,,,,,,,,,,,,,,,,,,,,,,,,,,,,,,,,,,,,,,,,,,,,,,,,,,,,,,
,,,,006293,001,2023-11-02_17h51.13.734,fluency,2022.2.4,Win32,144.092219,,,,,,,,,,,,,,,,,,,,,,,0,9,img/B09_00.jpg,MF,Press J if the face is FEMALE and K if the face is MALE, ,KJ,,,,,,,,,,,,,,,,,,,,,,,,,,,,,,,,,,,,,,,,,,,,,,572.026,0,77,77,88,1,109,0,0,0,0,1,98,,,,,,,,,,,,,,,,,,,,,,,,,,,,,,,,,,,,,,,,,,,,,,,,,,,,,,,,,,,,,,,,,,,,,,,,,,
,,,,006293,001,2023-11-02_17h51.13.734,fluency,2022.2.4,Win32,144.092219,,,,,,,,,,,,,,,,,,,,,,,,,,,,,,,,,,,,,,,,,,,,,,,,,,,,,,,,,,,,,,,,,,,,,,,,,,,,,,,,,,0,0,0,0,1,,"[""k""]",[1.3540000000000418],3,"[""k""]",[1.3540000000000418],,,,,,,,,,,,,,,,,,,,,,,,,,,,,,,,,,,,,,,,,,,,,,,,,,,,,,,,,,,,,,,,,,,,,
,,,,006293,001,2023-11-02_17h51.13.734,fluency,2022.2.4,Win32,144.092219,,,,,,,,,,,,,,,,,,,,,,,0,9,img/B09_00.jpg,MF,Press J if the face is FEMALE and K if the face is MALE, ,KJ,,,,,,,,,,,,,,,,,,,,,,,,,,,,,,,,8,0.344,,,,,,,,,,,,,,0,77,77,88,1,,,,,,,,,,,,,space,0.474,,,,,,,,,,,,,,,,,,,,,,,,,,,,,,,,,,,,,,,,,,,,,,,,,,,,,,,,,,,,,,,,,,,
,,,,006293,001,2023-11-02_17h51.13.734,fluency,2022.2.4,Win32,144.092219,,,,,,,,,,,,,,,,,,,,,,,0,6,img/B06_00.jpg,MF,Press J if the face is FEMALE and K if the face is MALE, ,KJ,,,,,,,,,,,,,,,,,,,,,,,,,,,,,,,,,,,,,,,,,,,,,,576.866,0,78,78,55,1,109,0,0,0,0,1,98,,,,,,,,,,,,,,,,,,,,,,,,,,,,,,,,,,,,,,,,,,,,,,,,,,,,,,,,,,,,,,,,,,,,,,,,,,
,,,,006293,001,2023-11-02_17h51.13.734,fluency,2022.2.4,Win32,144.092219,,,,,,,,,,,,,,,,,,,,,,,,,,,,,,,,,,,,,,,,,,,,,,,,,,,,,,,,,,,,,,,,,,,,,,,,,,,,,,,,,,0,0,0,0,1,,"[""k""]",[0.8410000000000082],3,"[""k""]",[0.8419999999999845],,,,,,,,,,,,,,,,,,,,,,,,,,,,,,,,,,,,,,,,,,,,,,,,,,,,,,,,,,,,,,,,,,,,,
,,,,006293,001,2023-11-02_17h51.13.734,fluency,2022.2.4,Win32,144.092219,,,,,,,,,,,,,,,,,,,,,,,0,6,img/B06_00.jpg,MF,Press J if the face is FEMALE and K if the face is MALE, ,KJ,,,,,,,,,,,,,,,,,,,,,,,,,,,,,,,,8,0.345,,,,,,,,,,,,,,0,78,78,55,1,,,,,,,,,,,,,space,0.494,,,,,,,,,,,,,,,,,,,,,,,,,,,,,,,,,,,,,,,,,,,,,,,,,,,,,,,,,,,,,,,,,,,
,,,,006293,001,2023-11-02_17h51.13.734,fluency,2022.2.4,Win32,144.092219,,,,,,,,,,,,,,,,,,,,,,,0,2,img/B02_00.jpg,MF,Press J if the face is FEMALE and K if the face is MALE, ,KJ,,,,,,,,,,,,,,,,,,,,,,,,,,,,,,,,,,,,,,,,,,,,,,582.734,0,79,79,11,1,109,0,0,0,0,1,98,,,,,,,,,,,,,,,,,,,,,,,,,,,,,,,,,,,,,,,,,,,,,,,,,,,,,,,,,,,,,,,,,,,,,,,,,,
,,,,006293,001,2023-11-02_17h51.13.734,fluency,2022.2.4,Win32,144.092219,,,,,,,,,,,,,,,,,,,,,,,,,,,,,,,,,,,,,,,,,,,,,,,,,,,,,,,,,,,,,,,,,,,,,,,,,,,,,,,,,,0,0,0,0,1,,"[""k""]",[0.6719999999999118],3,"[""k""]",[0.6719999999999118],,,,,,,,,,,,,,,,,,,,,,,,,,,,,,,,,,,,,,,,,,,,,,,,,,,,,,,,,,,,,,,,,,,,,
,,,,006293,001,2023-11-02_17h51.13.734,fluency,2022.2.4,Win32,144.092219,,,,,,,,,,,,,,,,,,,,,,,0,2,img/B02_00.jpg,MF,Press J if the face is FEMALE and K if the face is MALE, ,KJ,,,,,,,,,,,,,,,,,,,,,,,,,,,,,,,,7,0.536,,,,,,,,,,,,,,0,79,79,11,1,,,,,,,,,,,,,space,0.126,,,,,,,,,,,,,,,,,,,,,,,,,,,,,,,,,,,,,,,,,,,,,,,,,,,,,,,,,,,,,,,,,,,
,,,,006293,001,2023-11-02_17h51.13.734,fluency,2022.2.4,Win32,144.092219,,,,,,,,,,,,,,,,,,,,,,,1,7,img/B07_01.jpg,MF,Press J if the face is FEMALE and K if the face is MALE, ,KJ,,,,,,,,,,,,,,,,,,,,,,,,,,,,,,,,,,,,,,,,,,,,,,588.428,0,80,80,67,1,109,0,0,0,0,1,98,,,,,,,,,,,,,,,,,,,,,,,,,,,,,,,,,,,,,,,,,,,,,,,,,,,,,,,,,,,,,,,,,,,,,,,,,,
,,,,006293,001,2023-11-02_17h51.13.734,fluency,2022.2.4,Win32,144.092219,,,,,,,,,,,,,,,,,,,,,,,,,,,,,,,,,,,,,,,,,,,,,,,,,,,,,,,,,,,,,,,,,,,,,,,,,,,,,,,,,,0,0,0,0,1,,"[""k""]",[1.3539999999999281],3,"[""8"",""k"",""8""]","[1.0839999999999463,1.3539999999999281,1.5339999999999918]",,,,,,,,,,,,,,,,,,,,,,,,,,,,,,,,,,,,,,,,,,,,,,,,,,,,,,,,,,,,,,,,,,,,,
,,,,006293,001,2023-11-02_17h51.13.734,fluency,2022.2.4,Win32,144.092219,,,,,,,,,,,,,,,,,,,,,,,1,7,img/B07_01.jpg,MF,Press J if the face is FEMALE and K if the face is MALE, ,KJ,,,,,,,,,,,,,,,,,,,,,,,,,,,,,,,,8,0.476,,,,,,,,,,,,,,0,80,80,67,1,,,,,,,,,,,,,space,1.16,,,,,,,,,,,,,,,,,,,,,,,,,,,,,,,,,,,,,,,,,,,,,,,,,,,,,,,,,,,,,,,,,,,
,,,,006293,001,2023-11-02_17h51.13.734,fluency,2022.2.4,Win32,144.092219,,,,,,,,,,,,,,,,,,,,,,,10,6,img/B06_10.jpg,MF,Press J if the face is FEMALE and K if the face is MALE, ,KJ,,,,,,,,,,,,,,,,,,,,,,,,,,,,,,,,,,,,,,,,,,,,,,595.095,0,81,81,65,1,109,0,0,0,0,1,98,,,,,,,,,,,,,,,,,,,,,,,,,,,,,,,,,,,,,,,,,,,,,,,,,,,,,,,,,,,,,,,,,,,,,,,,,,
,,,,006293,001,2023-11-02_17h51.13.734,fluency,2022.2.4,Win32,144.092219,,,,,,,,,,,,,,,,,,,,,,,,,,,,,,,,,,,,,,,,,,,,,,,,,,,,,,,,,,,,,,,,,,,,,,,,,,,,,,,,,,0,0,0,0,1,,"[""j""]",[1.4150000000000773],3,"[""j""]",[1.4150000000000773],,,,,,,,,,,,,,,,,,,,,,,,,,,,,,,,,,,,,,,,,,,,,,,,,,,,,,,,,,,,,,,,,,,,,
,,,,006293,001,2023-11-02_17h51.13.734,fluency,2022.2.4,Win32,144.092219,,,,,,,,,,,,,,,,,,,,,,,10,6,img/B06_10.jpg,MF,Press J if the face is FEMALE and K if the face is MALE, ,KJ,,,,,,,,,,,,,,,,,,,,,,,,,,,,,,,,8,0.77,,,,,,,,,,,,,,0,81,81,65,1,,,,,,,,,,,,,space,1.57,,,,,,,,,,,,,,,,,,,,,,,,,,,,,,,,,,,,,,,,,,,,,,,,,,,,,,,,,,,,,,,,,,,
,,,,006293,001,2023-11-02_17h51.13.734,fluency,2022.2.4,Win32,144.092219,,,,,,,,,,,,,,,,,,,,,,,1,2,img/B02_01.jpg,MF,Press J if the face is FEMALE and K if the face is MALE, ,KJ,,,,,,,,,,,,,,,,,,,,,,,,,,,,,,,,,,,,,,,,,,,,,,602.463,0,82,82,12,1,109,0,0,0,0,1,98,,,,,,,,,,,,,,,,,,,,,,,,,,,,,,,,,,,,,,,,,,,,,,,,,,,,,,,,,,,,,,,,,,,,,,,,,,
,,,,006293,001,2023-11-02_17h51.13.734,fluency,2022.2.4,Win32,144.092219,,,,,,,,,,,,,,,,,,,,,,,,,,,,,,,,,,,,,,,,,,,,,,,,,,,,,,,,,,,,,,,,,,,,,,,,,,,,,,,,,,0,0,0,0,1,,"[""k""]",[0.9589999999999463],3,"[""k""]",[0.9589999999999463],,,,,,,,,,,,,,,,,,,,,,,,,,,,,,,,,,,,,,,,,,,,,,,,,,,,,,,,,,,,,,,,,,,,,
,,,,006293,001,2023-11-02_17h51.13.734,fluency,2022.2.4,Win32,144.092219,,,,,,,,,,,,,,,,,,,,,,,1,2,img/B02_01.jpg,MF,Press J if the face is FEMALE and K if the face is MALE, ,KJ,,,,,,,,,,,,,,,,,,,,,,,,,,,,,,,,7,1.644,,,,,,,,,,,,,,0,82,82,12,1,,,,,,,,,,,,,space,0.836,,,,,,,,,,,,,,,,,,,,,,,,,,,,,,,,,,,,,,,,,,,,,,,,,,,,,,,,,,,,,,,,,,,
,,,,006293,001,2023-11-02_17h51.13.734,fluency,2022.2.4,Win32,144.092219,,,,,,,,,,,,,,,,,,,,,,,7,10,img/B10_07.jpg,MF,Press J if the face is FEMALE and K if the face is MALE, ,KJ,,,,,,,,,,,,,,,,,,,,,,,,,,,,,,,,,,,,,,,,,,,,,,608.97,0,83,83,106,1,109,0,0,0,0,1,98,,,,,,,,,,,,,,,,,,,,,,,,,,,,,,,,,,,,,,,,,,,,,,,,,,,,,,,,,,,,,,,,,,,,,,,,,,
,,,,006293,001,2023-11-02_17h51.13.734,fluency,2022.2.4,Win32,144.092219,,,,,,,,,,,,,,,,,,,,,,,,,,,,,,,,,,,,,,,,,,,,,,,,,,,,,,,,,,,,,,,,,,,,,,,,,,,,,,,,,,0,0,0,0,1,,"[""k""]",[1.4950000000000045],3,"[""k""]",[1.4950000000000045],,,,,,,,,,,,,,,,,,,,,,,,,,,,,,,,,,,,,,,,,,,,,,,,,,,,,,,,,,,,,,,,,,,,,
,,,,006293,001,2023-11-02_17h51.13.734,fluency,2022.2.4,Win32,144.092219,,,,,,,,,,,,,,,,,,,,,,,7,10,img/B10_07.jpg,MF,Press J if the face is FEMALE and K if the face is MALE, ,KJ,,,,,,,,,,,,,,,,,,,,,,,,,,,,,,,,6,1.045,,,,,,,,,,,,,,0,83,83,106,1,,,,,,,,,,,,,space,0.383,,,,,,,,,,,,,,,,,,,,,,,,,,,,,,,,,,,,,,,,,,,,,,,,,,,,,,,,,,,,,,,,,,,
,,,,006293,001,2023-11-02_17h51.13.734,fluency,2022.2.4,Win32,144.092219,,,,,,,,,,,,,,,,,,,,,,,3,10,img/B10_03.jpg,MF,Press J if the face is FEMALE and K if the face is MALE, ,KJ,,,,,,,,,,,,,,,,,,,,,,,,,,,,,,,,,,,,,,,,,,,,,,614.427,0,84,84,102,1,109,0,0,0,0,1,98,,,,,,,,,,,,,,,,,,,,,,,,,,,,,,,,,,,,,,,,,,,,,,,,,,,,,,,,,,,,,,,,,,,,,,,,,,
,,,,006293,001,2023-11-02_17h51.13.734,fluency,2022.2.4,Win32,144.092219,,,,,,,,,,,,,,,,,,,,,,,,,,,,,,,,,,,,,,,,,,,,,,,,,,,,,,,,,,,,,,,,,,,,,,,,,,,,,,,,,,0,0,0,0,1,,"[""k""]",[1.5640000000000782],3,"[""k""]",[1.5640000000000782],,,,,,,,,,,,,,,,,,,,,,,,,,,,,,,,,,,,,,,,,,,,,,,,,,,,,,,,,,,,,,,,,,,,,
,,,,006293,001,2023-11-02_17h51.13.734,fluency,2022.2.4,Win32,144.092219,,,,,,,,,,,,,,,,,,,,,,,3,10,img/B10_03.jpg,MF,Press J if the face is FEMALE and K if the face is MALE, ,KJ,,,,,,,,,,,,,,,,,,,,,,,,,,,,,,,,7,1.168,,,,,,,,,,,,,,0,84,84,102,1,,,,,,,,,,,,,space,0.973,,,,,,,,,,,,,,,,,,,,,,,,,,,,,,,,,,,,,,,,,,,,,,,,,,,,,,,,,,,,,,,,,,,
,,,,006293,001,2023-11-02_17h51.13.734,fluency,2022.2.4,Win32,144.092219,,,,,,,,,,,,,,,,,,,,,,,4,10,img/B10_04.jpg,MF,Press J if the face is FEMALE and K if the face is MALE, ,KJ,,,,,,,,,,,,,,,,,,,,,,,,,,,,,,,,,,,,,,,,,,,,,,621.602,0,85,85,103,1,109,0,0,0,0,1,98,,,,,,,,,,,,,,,,,,,,,,,,,,,,,,,,,,,,,,,,,,,,,,,,,,,,,,,,,,,,,,,,,,,,,,,,,,
,,,,006293,001,2023-11-02_17h51.13.734,fluency,2022.2.4,Win32,144.092219,,,,,,,,,,,,,,,,,,,,,,,,,,,,,,,,,,,,,,,,,,,,,,,,,,,,,,,,,,,,,,,,,,,,,,,,,,,,,,,,,,0,0,0,0,1,,"[""k""]",[0.7429999999999382],3,"[""k""]",[0.7429999999999382],,,,,,,,,,,,,,,,,,,,,,,,,,,,,,,,,,,,,,,,,,,,,,,,,,,,,,,,,,,,,,,,,,,,,
,,,,006293,001,2023-11-02_17h51.13.734,fluency,2022.2.4,Win32,144.092219,,,,,,,,,,,,,,,,,,,,,,,4,10,img/B10_04.jpg,MF,Press J if the face is FEMALE and K if the face is MALE, ,KJ,,,,,,,,,,,,,,,,,,,,,,,,,,,,,,,,6,0.315,,,,,,,,,,,,,,0,85,85,103,1,,,,,,,,,,,,,space,0.918,,,,,,,,,,,,,,,,,,,,,,,,,,,,,,,,,,,,,,,,,,,,,,,,,,,,,,,,,,,,,,,,,,,
,,,,006293,001,2023-11-02_17h51.13.734,fluency,2022.2.4,Win32,144.092219,,,,,,,,,,,,,,,,,,,,,,,0,7,img/B07_00.jpg,MF,Press J if the face is FEMALE and K if the face is MALE, ,KJ,,,,,,,,,,,,,,,,,,,,,,,,,,,,,,,,,,,,,,,,,,,,,,627.865,0,86,86,66,1,109,0,0,0,0,1,98,,,,,,,,,,,,,,,,,,,,,,,,,,,,,,,,,,,,,,,,,,,,,,,,,,,,,,,,,,,,,,,,,,,,,,,,,,
,,,,006293,001,2023-11-02_17h51.13.734,fluency,2022.2.4,Win32,144.092219,,,,,,,,,,,,,,,,,,,,,,,,,,,,,,,,,,,,,,,,,,,,,,,,,,,,,,,,,,,,,,,,,,,,,,,,,,,,,,,,,,0,0,0,0,1,,"[""k""]",[1.5480000000000018],3,"[""k""]",[1.5480000000000018],,,,,,,,,,,,,,,,,,,,,,,,,,,,,,,,,,,,,,,,,,,,,,,,,,,,,,,,,,,,,,,,,,,,,
,,,,006293,001,2023-11-02_17h51.13.734,fluency,2022.2.4,Win32,144.092219,,,,,,,,,,,,,,,,,,,,,,,0,7,img/B07_00.jpg,MF,Press J if the face is FEMALE and K if the face is MALE, ,KJ,,,,,,,,,,,,,,,,,,,,,,,,,,,,,,,,8,1.178,,,,,,,,,,,,,,0,86,86,66,1,,,,,,,,,,,,,space,0.583,,,,,,,,,,,,,,,,,,,,,,,,,,,,,,,,,,,,,,,,,,,,,,,,,,,,,,,,,,,,,,,,,,,
,,,,006293,001,2023-11-02_17h51.13.734,fluency,2022.2.4,Win32,144.092219,,,,,,,,,,,,,,,,,,,,,,,5,5,img/B05_05.jpg,MF,Press J if the face is FEMALE and K if the face is MALE, ,KJ,,,,,,,,,,,,,,,,,,,,,,,,,,,,,,,,,,,,,,,,,,,,,,633.657,0,87,87,49,1,109,0,0,0,0,1,98,,,,,,,,,,,,,,,,,,,,,,,,,,,,,,,,,,,,,,,,,,,,,,,,,,,,,,,,,,,,,,,,,,,,,,,,,,
,,,,006293,001,2023-11-02_17h51.13.734,fluency,2022.2.4,Win32,144.092219,,,,,,,,,,,,,,,,,,,,,,,,,,,,,,,,,,,,,,,,,,,,,,,,,,,,,,,,,,,,,,,,,,,,,,,,,,,,,,,,,,0,0,0,0,1,,"[""j""]",[0.9720000000000937],3,"[""j""]",[0.9720000000000937],,,,,,,,,,,,,,,,,,,,,,,,,,,,,,,,,,,,,,,,,,,,,,,,,,,,,,,,,,,,,,,,,,,,,
,,,,006293,001,2023-11-02_17h51.13.734,fluency,2022.2.4,Win32,144.092219,,,,,,,,,,,,,,,,,,,,,,,5,5,img/B05_05.jpg,MF,Press J if the face is FEMALE and K if the face is MALE, ,KJ,,,,,,,,,,,,,,,,,,,,,,,,,,,,,,,,6,0.338,,,,,,,,,,,,,,0,87,87,49,1,,,,,,,,,,,,,space,1.633,,,,,,,,,,,,,,,,,,,,,,,,,,,,,,,,,,,,,,,,,,,,,,,,,,,,,,,,,,,,,,,,,,,
,,,,006293,001,2023-11-02_17h51.13.734,fluency,2022.2.4,Win32,144.092219,,,,,,,,,,,,,,,,,,,,,,,8,3,img/B03_08.jpg,MF,Press J if the face is FEMALE and K if the face is MALE, ,KJ,,,,,,,,,,,,,,,,,,,,,,,,,,,,,,,,,,,,,,,,,,,,,,639.656,0,88,88,30,1,109,0,0,0,0,1,98,,,,,,,,,,,,,,,,,,,,,,,,,,,,,,,,,,,,,,,,,,,,,,,,,,,,,,,,,,,,,,,,,,,,,,,,,,
,,,,006293,001,2023-11-02_17h51.13.734,fluency,2022.2.4,Win32,144.092219,,,,,,,,,,,,,,,,,,,,,,,,,,,,,,,,,,,,,,,,,,,,,,,,,,,,,,,,,,,,,,,,,,,,,,,,,,,,,,,,,,0,0,0,0,1,,"[""j""]",[1.0430000000000064],3,"[""j""]",[1.0430000000000064],,,,,,,,,,,,,,,,,,,,,,,,,,,,,,,,,,,,,,,,,,,,,,,,,,,,,,,,,,,,,,,,,,,,,
,,,,006293,001,2023-11-02_17h51.13.734,fluency,2022.2.4,Win32,144.092219,,,,,,,,,,,,,,,,,,,,,,,8,3,img/B03_08.jpg,MF,Press J if the face is FEMALE and K if the face is MALE, ,KJ,,,,,,,,,,,,,,,,,,,,,,,,,,,,,,,,6,0.586,,,,,,,,,,,,,,0,88,88,30,1,,,,,,,,,,,,,space,1.007,,,,,,,,,,,,,,,,,,,,,,,,,,,,,,,,,,,,,,,,,,,,,,,,,,,,,,,,,,,,,,,,,,,
,,,,006293,001,2023-11-02_17h51.13.734,fluency,2022.2.4,Win32,144.092219,,,,,,,,,,,,,,,,,,,,,,,7,2,img/B02_07.jpg,MF,Press J if the face is FEMALE and K if the face is MALE, ,KJ,,,,,,,,,,,,,,,,,,,,,,,,,,,,,,,,,,,,,,,,,,,,,,646.281,0,89,89,18,1,109,0,0,0,0,1,98,,,,,,,,,,,,,,,,,,,,,,,,,,,,,,,,,,,,,,,,,,,,,,,,,,,,,,,,,,,,,,,,,,,,,,,,,,
,,,,006293,001,2023-11-02_17h51.13.734,fluency,2022.2.4,Win32,144.092219,,,,,,,,,,,,,,,,,,,,,,,,,,,,,,,,,,,,,,,,,,,,,,,,,,,,,,,,,,,,,,,,,,,,,,,,,,,,,,,,,,0,0,0,0,1,,"[""j""]",[1.19399999999996],3,"[""j""]",[1.19399999999996],,,,,,,,,,,,,,,,,,,,,,,,,,,,,,,,,,,,,,,,,,,,,,,,,,,,,,,,,,,,,,,,,,,,,
,,,,006293,001,2023-11-02_17h51.13.734,fluency,2022.2.4,Win32,144.092219,,,,,,,,,,,,,,,,,,,,,,,7,2,img/B02_07.jpg,MF,Press J if the face is FEMALE and K if the face is MALE, ,KJ,,,,,,,,,,,,,,,,,,,,,,,,,,,,,,,,6,0.764,,,,,,,,,,,,,,0,89,89,18,1,,,,,,,,,,,,,space,1.097,,,,,,,,,,,,,,,,,,,,,,,,,,,,,,,,,,,,,,,,,,,,,,,,,,,,,,,,,,,,,,,,,,,
,,,,006293,001,2023-11-02_17h51.13.734,fluency,2022.2.4,Win32,144.092219,,,,,,,,,,,,,,,,,,,,,,,2,10,img/B10_02.jpg,MF,Press J if the face is FEMALE and K if the face is MALE, ,KJ,,,,,,,,,,,,,,,,,,,,,,,,,,,,,,,,,,,,,,,,,,,,,,652.17,0,90,90,101,1,109,0,0,0,0,1,98,,,,,,,,,,,,,,,,,,,,,,,,,,,,,,,,,,,,,,,,,,,,,,,,,,,,,,,,,,,,,,,,,,,,,,,,,,
,,,,006293,001,2023-11-02_17h51.13.734,fluency,2022.2.4,Win32,144.092219,,,,,,,,,,,,,,,,,,,,,,,,,,,,,,,,,,,,,,,,,,,,,,,,,,,,,,,,,,,,,,,,,,,,,,,,,,,,,,,,,,0,0,0,0,1,,"[""k""]",[0.79200000000003],3,"[""k""]",[0.79200000000003],,,,,,,,,,,,,,,,,,,,,,,,,,,,,,,,,,,,,,,,,,,,,,,,,,,,,,,,,,,,,,,,,,,,,
,,,,006293,001,2023-11-02_17h51.13.734,fluency,2022.2.4,Win32,144.092219,,,,,,,,,,,,,,,,,,,,,,,2,10,img/B10_02.jpg,MF,Press J if the face is FEMALE and K if the face is MALE, ,KJ,,,,,,,,,,,,,,,,,,,,,,,,,,,,,,,,7,0.594,,,,,,,,,,,,,,0,90,90,101,1,,,,,,,,,,,,,space,0.551,,,,,,,,,,,,,,,,,,,,,,,,,,,,,,,,,,,,,,,,,,,,,,,,,,,,,,,,,,,,,,,,,,,
