idTextbox.text,welcomeDone.numClicks,welcomeDone.timesOn,welcomeDone.timesOff,participant,session,date,expName,psychopyVersion,OS,frameRate,consent_advance.keys,consent_advance.rt,consent_advance_2.keys,consent_advance_2.rt,consentClick.x,consentClick.y,consentClick.leftButton,consentClick.midButton,consentClick.rightButton,consentClick.time,consentClick.clicked_name,instr_advance_3.keys,instr_advance_3.rt,spec_instr_adv.keys,spec_instr_adv.rt,spec_instr_adv2.keys,spec_instr_adv2.rt,instrLoop.thisRepN,instrLoop.thisTrialN,instrLoop.thisN,instrLoop.thisIndex,instrLoop.ran,steps,fams,face_file,cond,instr,term,key_map,attnKeyResp1.keys,attnKeyResp1.rt,q1.thisRepN,q1.thisTrialN,q1.thisN,q1.thisIndex,q1.ran,attnKeyResp2.keys,attnKeyResp2.rt,q2.thisRepN,q2.thisTrialN,q2.thisN,q2.thisIndex,q2.ran,attnKeyResp3.keys,attnKeyResp3.rt,q3.thisRepN,q3.thisTrialN,q3.thisN,q3.thisIndex,q3.ran,practiceStart.keys,practiceStart.rt,practiceResp.keys,practiceResp.rt,timesRedone,practiceRepeat.thisRepN,practiceRepeat.thisTrialN,practiceRepeat.thisN,practiceRepeat.thisIndex,practiceRepeat.ran,attrRating.keys,attrRating.rt,practiceTrial.thisRepN,practiceTrial.thisTrialN,practiceTrial.thisN,practiceTrial.thisIndex,practiceTrial.ran,key_resp_3.keys,key_resp_3.rt,attnChecker.thisRepN,attnChecker.thisTrialN,attnChecker.thisN,attnChecker.thisIndex,attnChecker.ran,faceOnsetTime,trials.thisRepN,trials.thisTrialN,trials.thisN,trials.thisIndex,trials.ran,trials.order,repeat_loop.thisRepN,repeat_loop.thisTrialN,repeat_loop.thisN,repeat_loop.thisIndex,repeat_loop.ran,repeat_loop.order,catResp.keys,catResp.rt,globalTimesRedone,catAllKeys.keys,catAllKeys.rt,contResp.keys,contResp.rt,redo_keypress.keys,redo_keypress.rt,redo_feedback_loop.thisRepN,redo_feedback_loop.thisTrialN,redo_feedback_loop.thisN,redo_feedback_loop.thisIndex,redo_feedback_loop.ran,contResp_2.keys,contResp_2.rt,respQ1.response,respQ1.rt,respQ2.response,respQ2.rt,respQ3.response,respQ3.rt,respQ4.response,respQ4.rt,surveyContinue1.numClicks,surveyContinue1.timesOn,surveyContinue1.timesOff,respQ5.response,respQ5.rt,respQ6.response,respQ6.rt,respQ7.response,respQ7.rt,respQ8.response,respQ8.rt,surveyContinue2.numClicks,surveyContinue2.timesOn,surveyContinue2.timesOff,respQ9.response,respQ9.rt,respQ10.response,respQ10.rt,respQ11.response,respQ11.rt,respQ12.response,respQ12.rt,surveyContinue3.numClicks,surveyContinue3.timesOn,surveyContinue3.timesOff,respQ13.response,respQ13.rt,respQ14.response,respQ14.rt,respQ15.response,respQ15.rt,surveyContinue4.numClicks,surveyContinue4.timesOn,surveyContinue4.timesOff,respAge.response,respAge.rt,genderResp1.response,genderResp1.rt,genderResp2.text,demogexitClick.numClicks,demogexitClick.timesOn,demogexitClick.timesOff,textbox.text,openAnswerClick.numClicks,openAnswerClick.timesOn,openAnswerClick.timesOff,debriefEnd.keys,debriefEnd.rt,exitKey.keys,exitKey.rt
5ea6e7dff5d217088a20deb0,1,[41.41309999999986],[41.41319999999995],740456,001,2023-10-24_21h57.42.833,fluency,2022.2.5,Win32,59.97720866,,,,,,,,,,,,,,,,,,,,,,,,,,,,,,,,,,,,,,,,,,,,,,,,,,,,,,,,,,,,,,,,,,,,,,,,,,,,,,,,,,,,,,,,,,,,,,,,,,,,,,,,,,,,,,,,,,,,,,,,,,,,,,,,,,,,,,,,,,,,,,,,,,,,,,,,,,,,,,,,,
,,,,740456,001,2023-10-24_21h57.42.833,fluency,2022.2.5,Win32,59.97720866,space,87.9117,,,,,,,,,,,,,,,,,,,,,,,,,,,,,,,,,,,,,,,,,,,,,,,,,,,,,,,,,,,,,,,,,,,,,,,,,,,,,,,,,,,,,,,,,,,,,,,,,,,,,,,,,,,,,,,,,,,,,,,,,,,,,,,,,,,,,,,,,,,,,,,,,,,,,,,,,,,,,,,
,,,,740456,001,2023-10-24_21h57.42.833,fluency,2022.2.5,Win32,59.97720866,,,space,34.344,,,,,,,,,,,,,,,,,,,,,,,,,,,,,,,,,,,,,,,,,,,,,,,,,,,,,,,,,,,,,,,,,,,,,,,,,,,,,,,,,,,,,,,,,,,,,,,,,,,,,,,,,,,,,,,,,,,,,,,,,,,,,,,,,,,,,,,,,,,,,,,,,,,,,,,,,,,,,
,,,,740456,001,2023-10-24_21h57.42.833,fluency,2022.2.5,Win32,59.97720866,,,,,0.280199787,-0.357316594,1,0,0,45.3685,iAgree,,,,,,,,,,,,,,,,,,,,,,,,,,,,,,,,,,,,,,,,,,,,,,,,,,,,,,,,,,,,,,,,,,,,,,,,,,,,,,,,,,,,,,,,,,,,,,,,,,,,,,,,,,,,,,,,,,,,,,,,,,,,,,,,,,,,,,,,,,,,,,,,,,,,,,
,,,,740456,001,2023-10-24_21h57.42.833,fluency,2022.2.5,Win32,59.97720866,,,,,,,,,,,,space,115.8405,,,,,,,,,,,,,,,,,,,,,,,,,,,,,,,,,,,,,,,,,,,,,,,,,,,,,,,,,,,,,,,,,,,,,,,,,,,,,,,,,,,,,,,,,,,,,,,,,,,,,,,,,,,,,,,,,,,,,,,,,,,,,,,,,,,,,,,,,,,,,,,,,,,,
,,,,740456,001,2023-10-24_21h57.42.833,fluency,2022.2.5,Win32,59.97720866,,,,,,,,,,,,,,space,26.7221,space,72.2746,0,0,0,59,1,4,6,img/B06_04.jpg,CONTROL,Press J as soon as you see a face, ,JK,,,,,,,,,,,,,,,,,,,,,,,,,,,,,,,,,,,,,,,,,,,,,,,,,,,,,,,,,,,,,,,,,,,,,,,,,,,,,,,,,,,,,,,,,,,,,,,,,,,,,,,,,,,,,,,,,,,,,,,,,,,,,,,,,,,,
,,,,740456,001,2023-10-24_21h57.42.833,fluency,2022.2.5,Win32,59.97720866,,,,,,,,,,,,,,,,,,,,,,,,,,,,,,c,42.1478,0,0,0,0,1,,,,,,,,,,,,,,,,,,,,,,,,,,,,,,,,,,,,,,,,,,,,,,,,,,,,,,,,,,,,,,,,,,,,,,,,,,,,,,,,,,,,,,,,,,,,,,,,,,,,,,,,,,,,,,,,,,,,,,,,,,,,,
,,,,740456,001,2023-10-24_21h57.42.833,fluency,2022.2.5,Win32,59.97720866,,,,,,,,,,,,,,,,,,,,,,,,,,,,,,,,,,,,,a,56.7134,0,0,0,0,1,,,,,,,,,,,,,,,,,,,,,,,,,,,,,,,,,,,,,,,,,,,,,,,,,,,,,,,,,,,,,,,,,,,,,,,,,,,,,,,,,,,,,,,,,,,,,,,,,,,,,,,,,,,,,,,,,,,,,,
,,,,740456,001,2023-10-24_21h57.42.833,fluency,2022.2.5,Win32,59.97720866,,,,,,,,,,,,,,,,,,,,,,,,,,,,,,,,,,,,,,,,,,,,c,7.9246,0,0,0,0,1,,,,,,,,,,,,,,,,,,,,,,,,,,,,,,,,,,,,,,,,,,,,,,,,,,,,,,,,,,,,,,,,,,,,,,,,,,,,,,,,,,,,,,,,,,,,,,,,,,,,,,,,,,,,,,,
,,,,740456,001,2023-10-24_21h57.42.833,fluency,2022.2.5,Win32,59.97720866,,,,,,,,,,,,,,,,,,,,,,,,,,,,,,,,,,,,,,,,,,,,,,,,,,,space,2.1523,j,1.8687,0,0,0,0,0,1,,,,,,,,,,,,,,,,,,,,,,,,,,,,,,,,,,,,,,,,,,,,,,,,,,,,,,,,,,,,,,,,,,,,,,,,,,,,,,,,,,,,,,,,,,,,,,,,,,,,,
,,,,740456,001,2023-10-24_21h57.42.833,fluency,2022.2.5,Win32,59.97720866,,,,,,,,,,,,,,,,,,,,,,,,,,,,,,,,,,,,,,,,,,,,,,,,,,,,,,,,,,,,,6,27.4135,0,0,0,0,1,,,,,,,,,,,,,,,,,,,,,,,,,,,,,,,,,,,,,,,,,,,,,,,,,,,,,,,,,,,,,,,,,,,,,,,,,,,,,,,,,,,,,,,,,,,,,,
,,,,740456,001,2023-10-24_21h57.42.833,fluency,2022.2.5,Win32,59.97720866,,,,,,,,,,,,,,,,,,,,,,,,,,,,,,,,,,,,,,,,,,,,,,,,,,,,,,,,,,,,,,,,,,,,space,121.8608,0,0,0,0,1,,,,,,,,,,,,,,,,,,,,,,,,,,,,,,,,,,,,,,,,,,,,,,,,,,,,,,,,,,,,,,,,,,,,,,,,,,,,,,,,,,,,,,,
,,,,740456,001,2023-10-24_21h57.42.833,fluency,2022.2.5,Win32,59.97720866,,,,,,,,,,,,,,,,,,,,,,,5,4,img/B04_05.jpg,CONTROL,Press J as soon as you see a face, ,JK,,,,,,,,,,,,,,,,,,,,,,,,,,,,,,,,,,,,,,,,,,,,,,705.8975,0,0,0,38,1,109,0,0,0,0,1,98,,,,,,,,,,,,,,,,,,,,,,,,,,,,,,,,,,,,,,,,,,,,,,,,,,,,,,,,,,,,,,,,,,,,,,,,,,
,,,,740456,001,2023-10-24_21h57.42.833,fluency,2022.2.5,Win32,59.97720866,,,,,,,,,,,,,,,,,,,,,,,,,,,,,,,,,,,,,,,,,,,,,,,,,,,,,,,,,,,,,,,,,,,,,,,,,,,,,,,,,,0,0,0,0,1,,"[""j""]",[2.0924999999999727],0,"[""j""]",[2.092399999999884],,,,,,,,,,,,,,,,,,,,,,,,,,,,,,,,,,,,,,,,,,,,,,,,,,,,,,,,,,,,,,,,,,,,,
,,,,740456,001,2023-10-24_21h57.42.833,fluency,2022.2.5,Win32,59.97720866,,,,,,,,,,,,,,,,,,,,,,,5,4,img/B04_05.jpg,CONTROL,Press J as soon as you see a face, ,JK,,,,,,,,,,,,,,,,,,,,,,,,,,,,,,,,7,5.0321,,,,,,,,,,,,,,0,0,0,38,1,,,,,,,,,,,,,space,9.9403,,,,,,,,,,,,,,,,,,,,,,,,,,,,,,,,,,,,,,,,,,,,,,,,,,,,,,,,,,,,,,,,,,,
,,,,740456,001,2023-10-24_21h57.42.833,fluency,2022.2.5,Win32,59.97720866,,,,,,,,,,,,,,,,,,,,,,,9,8,img/B08_09.jpg,CONTROL,Press J as soon as you see a face, ,JK,,,,,,,,,,,,,,,,,,,,,,,,,,,,,,,,,,,,,,,,,,,,,,724.9966,0,1,1,86,1,109,0,0,0,0,1,98,,,,,,,,,,,,,,,,,,,,,,,,,,,,,,,,,,,,,,,,,,,,,,,,,,,,,,,,,,,,,,,,,,,,,,,,,,
,,,,740456,001,2023-10-24_21h57.42.833,fluency,2022.2.5,Win32,59.97720866,,,,,,,,,,,,,,,,,,,,,,,,,,,,,,,,,,,,,,,,,,,,,,,,,,,,,,,,,,,,,,,,,,,,,,,,,,,,,,,,,,0,0,0,0,1,,"[""j""]",[0.3951000000001841],0,"[""j""]",[0.3951000000001841],,,,,,,,,,,,,,,,,,,,,,,,,,,,,,,,,,,,,,,,,,,,,,,,,,,,,,,,,,,,,,,,,,,,,
,,,,740456,001,2023-10-24_21h57.42.833,fluency,2022.2.5,Win32,59.97720866,,,,,,,,,,,,,,,,,,,,,,,9,8,img/B08_09.jpg,CONTROL,Press J as soon as you see a face, ,JK,,,,,,,,,,,,,,,,,,,,,,,,,,,,,,,,6,3.0266,,,,,,,,,,,,,,0,1,1,86,1,,,,,,,,,,,,,space,3.1726,,,,,,,,,,,,,,,,,,,,,,,,,,,,,,,,,,,,,,,,,,,,,,,,,,,,,,,,,,,,,,,,,,,
,,,,740456,001,2023-10-24_21h57.42.833,fluency,2022.2.5,Win32,59.97720866,,,,,,,,,,,,,,,,,,,,,,,5,2,img/B02_05.jpg,CONTROL,Press J as soon as you see a face, ,JK,,,,,,,,,,,,,,,,,,,,,,,,,,,,,,,,,,,,,,,,,,,,,,736.2728,0,2,2,16,1,109,0,0,0,0,1,98,,,,,,,,,,,,,,,,,,,,,,,,,,,,,,,,,,,,,,,,,,,,,,,,,,,,,,,,,,,,,,,,,,,,,,,,,,
,,,,740456,001,2023-10-24_21h57.42.833,fluency,2022.2.5,Win32,59.97720866,,,,,,,,,,,,,,,,,,,,,,,,,,,,,,,,,,,,,,,,,,,,,,,,,,,,,,,,,,,,,,,,,,,,,,,,,,,,,,,,,,0,0,0,0,1,,"[""j""]",[1.031699999999887],0,"[""j""]",[1.0315999999997985],,,,,,,,,,,,,,,,,,,,,,,,,,,,,,,,,,,,,,,,,,,,,,,,,,,,,,,,,,,,,,,,,,,,,
,,,,740456,001,2023-10-24_21h57.42.833,fluency,2022.2.5,Win32,59.97720866,,,,,,,,,,,,,,,,,,,,,,,5,2,img/B02_05.jpg,CONTROL,Press J as soon as you see a face, ,JK,,,,,,,,,,,,,,,,,,,,,,,,,,,,,,,,4,2.8854,,,,,,,,,,,,,,0,2,2,16,1,,,,,,,,,,,,,space,1.5245,,,,,,,,,,,,,,,,,,,,,,,,,,,,,,,,,,,,,,,,,,,,,,,,,,,,,,,,,,,,,,,,,,,
,,,,740456,001,2023-10-24_21h57.42.833,fluency,2022.2.5,Win32,59.97720866,,,,,,,,,,,,,,,,,,,,,,,5,1,img/B01_05.jpg,CONTROL,Press J as soon as you see a face, ,JK,,,,,,,,,,,,,,,,,,,,,,,,,,,,,,,,,,,,,,,,,,,,,,745.7642,0,3,3,5,1,109,0,0,0,0,1,98,,,,,,,,,,,,,,,,,,,,,,,,,,,,,,,,,,,,,,,,,,,,,,,,,,,,,,,,,,,,,,,,,,,,,,,,,,
,,,,740456,001,2023-10-24_21h57.42.833,fluency,2022.2.5,Win32,59.97720866,,,,,,,,,,,,,,,,,,,,,,,,,,,,,,,,,,,,,,,,,,,,,,,,,,,,,,,,,,,,,,,,,,,,,,,,,,,,,,,,,,,,,,,,,,1,,,,,space,4.1322,0,0,0,0,1,,,,,,,,,,,,,,,,,,,,,,,,,,,,,,,,,,,,,,,,,,,,,,,,,,,,,,,,,,,,
,,,,740456,001,2023-10-24_21h57.42.833,fluency,2022.2.5,Win32,59.97720866,,,,,,,,,,,,,,,,,,,,,,,,,,,,,,,,,,,,,,,,,,,,,,,,,,,,,,,,,,,,,,,,,,,,,,,,,,,,,,,,,,0,0,0,0,1,,,,,,,,,,,,,,,,,,,,,,,,,,,,,,,,,,,,,,,,,,,,,,,,,,,,,,,,,,,,,,,,,,,,,,,,,,,
,,,,740456,001,2023-10-24_21h57.42.833,fluency,2022.2.5,Win32,59.97720866,,,,,,,,,,,,,,,,,,,,,,,5,1,img/B01_05.jpg,CONTROL,Press J as soon as you see a face, ,JK,,,,,,,,,,,,,,,,,,,,,,,,,,,,,,,,,,,,,,,,,,,,,,754.9562,0,3,3,5,1,109,1,0,1,0,1,98,,,,,,,,,,,,,,,,,,,,,,,,,,,,,,,,,,,,,,,,,,,,,,,,,,,,,,,,,,,,,,,,,,,,,,,,,,
,,,,740456,001,2023-10-24_21h57.42.833,fluency,2022.2.5,Win32,59.97720866,,,,,,,,,,,,,,,,,,,,,,,,,,,,,,,,,,,,,,,,,,,,,,,,,,,,,,,,,,,,,,,,,,,,,,,,,,,,,,,,,,1,0,1,0,1,,"[""j""]",[0.6812999999997373],1,"[""j""]",[0.6812999999997373],,,,,,,,,,,,,,,,,,,,,,,,,,,,,,,,,,,,,,,,,,,,,,,,,,,,,,,,,,,,,,,,,,,,,
,,,,740456,001,2023-10-24_21h57.42.833,fluency,2022.2.5,Win32,59.97720866,,,,,,,,,,,,,,,,,,,,,,,5,1,img/B01_05.jpg,CONTROL,Press J as soon as you see a face, ,JK,,,,,,,,,,,,,,,,,,,,,,,,,,,,,,,,7,2.814,,,,,,,,,,,,,,0,3,3,5,1,,,,,,,,,,,,,space,1.0382,,,,,,,,,,,,,,,,,,,,,,,,,,,,,,,,,,,,,,,,,,,,,,,,,,,,,,,,,,,,,,,,,,,
,,,,740456,001,2023-10-24_21h57.42.833,fluency,2022.2.5,Win32,59.97720866,,,,,,,,,,,,,,,,,,,,,,,9,7,img/B07_09.jpg,CONTROL,Press J as soon as you see a face, ,JK,,,,,,,,,,,,,,,,,,,,,,,,,,,,,,,,,,,,,,,,,,,,,,762.88,0,4,4,75,1,109,0,0,0,0,1,98,,,,,,,,,,,,,,,,,,,,,,,,,,,,,,,,,,,,,,,,,,,,,,,,,,,,,,,,,,,,,,,,,,,,,,,,,,
,,,,740456,001,2023-10-24_21h57.42.833,fluency,2022.2.5,Win32,59.97720866,,,,,,,,,,,,,,,,,,,,,,,,,,,,,,,,,,,,,,,,,,,,,,,,,,,,,,,,,,,,,,,,,,,,,,,,,,,,,,,,,,0,0,0,0,1,,"[""j""]",[1.491699999999696],1,"[""j""]",[1.4915999999996075],,,,,,,,,,,,,,,,,,,,,,,,,,,,,,,,,,,,,,,,,,,,,,,,,,,,,,,,,,,,,,,,,,,,,
,,,,740456,001,2023-10-24_21h57.42.833,fluency,2022.2.5,Win32,59.97720866,,,,,,,,,,,,,,,,,,,,,,,9,7,img/B07_09.jpg,CONTROL,Press J as soon as you see a face, ,JK,,,,,,,,,,,,,,,,,,,,,,,,,,,,,,,,6,3.1781,,,,,,,,,,,,,,0,4,4,75,1,,,,,,,,,,,,,space,1.7846,,,,,,,,,,,,,,,,,,,,,,,,,,,,,,,,,,,,,,,,,,,,,,,,,,,,,,,,,,,,,,,,,,,
,,,,740456,001,2023-10-24_21h57.42.833,fluency,2022.2.5,Win32,59.97720866,,,,,,,,,,,,,,,,,,,,,,,2,5,img/B05_02.jpg,CONTROL,Press J as soon as you see a face, ,JK,,,,,,,,,,,,,,,,,,,,,,,,,,,,,,,,,,,,,,,,,,,,,,771.9205,0,5,5,46,1,109,0,0,0,0,1,98,,,,,,,,,,,,,,,,,,,,,,,,,,,,,,,,,,,,,,,,,,,,,,,,,,,,,,,,,,,,,,,,,,,,,,,,,,
,,,,740456,001,2023-10-24_21h57.42.833,fluency,2022.2.5,Win32,59.97720866,,,,,,,,,,,,,,,,,,,,,,,,,,,,,,,,,,,,,,,,,,,,,,,,,,,,,,,,,,,,,,,,,,,,,,,,,,,,,,,,,,0,0,0,0,1,,"[""j""]",[1.7717000000002372],1,"[""j""]",[1.771799999999871],,,,,,,,,,,,,,,,,,,,,,,,,,,,,,,,,,,,,,,,,,,,,,,,,,,,,,,,,,,,,,,,,,,,,
,,,,740456,001,2023-10-24_21h57.42.833,fluency,2022.2.5,Win32,59.97720866,,,,,,,,,,,,,,,,,,,,,,,2,5,img/B05_02.jpg,CONTROL,Press J as soon as you see a face, ,JK,,,,,,,,,,,,,,,,,,,,,,,,,,,,,,,,3,2.0738,,,,,,,,,,,,,,0,5,5,46,1,,,,,,,,,,,,,space,0.9404,,,,,,,,,,,,,,,,,,,,,,,,,,,,,,,,,,,,,,,,,,,,,,,,,,,,,,,,,,,,,,,,,,,
,,,,740456,001,2023-10-24_21h57.42.833,fluency,2022.2.5,Win32,59.97720866,,,,,,,,,,,,,,,,,,,,,,,5,9,img/B09_05.jpg,CONTROL,Press J as soon as you see a face, ,JK,,,,,,,,,,,,,,,,,,,,,,,,,,,,,,,,,,,,,,,,,,,,,,778.9944,0,6,6,93,1,109,0,0,0,0,1,98,,,,,,,,,,,,,,,,,,,,,,,,,,,,,,,,,,,,,,,,,,,,,,,,,,,,,,,,,,,,,,,,,,,,,,,,,,
,,,,740456,001,2023-10-24_21h57.42.833,fluency,2022.2.5,Win32,59.97720866,,,,,,,,,,,,,,,,,,,,,,,,,,,,,,,,,,,,,,,,,,,,,,,,,,,,,,,,,,,,,,,,,,,,,,,,,,,,,,,,,,0,0,0,0,1,,"[""j""]",[0.462800000000243],1,"[""j""]",[0.46270000000015443],,,,,,,,,,,,,,,,,,,,,,,,,,,,,,,,,,,,,,,,,,,,,,,,,,,,,,,,,,,,,,,,,,,,,
,,,,740456,001,2023-10-24_21h57.42.833,fluency,2022.2.5,Win32,59.97720866,,,,,,,,,,,,,,,,,,,,,,,5,9,img/B09_05.jpg,CONTROL,Press J as soon as you see a face, ,JK,,,,,,,,,,,,,,,,,,,,,,,,,,,,,,,,6,0.6195,,,,,,,,,,,,,,0,6,6,93,1,,,,,,,,,,,,,space,2.6556,,,,,,,,,,,,,,,,,,,,,,,,,,,,,,,,,,,,,,,,,,,,,,,,,,,,,,,,,,,,,,,,,,,
,,,,740456,001,2023-10-24_21h57.42.833,fluency,2022.2.5,Win32,59.97720866,,,,,,,,,,,,,,,,,,,,,,,3,7,img/B07_03.jpg,CONTROL,Press J as soon as you see a face, ,JK,,,,,,,,,,,,,,,,,,,,,,,,,,,,,,,,,,,,,,,,,,,,,,787.3185,0,7,7,69,1,109,0,0,0,0,1,98,,,,,,,,,,,,,,,,,,,,,,,,,,,,,,,,,,,,,,,,,,,,,,,,,,,,,,,,,,,,,,,,,,,,,,,,,,
,,,,740456,001,2023-10-24_21h57.42.833,fluency,2022.2.5,Win32,59.97720866,,,,,,,,,,,,,,,,,,,,,,,,,,,,,,,,,,,,,,,,,,,,,,,,,,,,,,,,,,,,,,,,,,,,,,,,,,,,,,,,,,0,0,0,0,1,,"[""j""]",[1.218200000000138],1,"[""j""]",[1.218299999999772],,,,,,,,,,,,,,,,,,,,,,,,,,,,,,,,,,,,,,,,,,,,,,,,,,,,,,,,,,,,,,,,,,,,,
,,,,740456,001,2023-10-24_21h57.42.833,fluency,2022.2.5,Win32,59.97720866,,,,,,,,,,,,,,,,,,,,,,,3,7,img/B07_03.jpg,CONTROL,Press J as soon as you see a face, ,JK,,,,,,,,,,,,,,,,,,,,,,,,,,,,,,,,5,0.0929,,,,,,,,,,,,,,0,7,7,69,1,,,,,,,,,,,,,space,1.0177,,,,,,,,,,,,,,,,,,,,,,,,,,,,,,,,,,,,,,,,,,,,,,,,,,,,,,,,,,,,,,,,,,,
,,,,740456,001,2023-10-24_21h57.42.833,fluency,2022.2.5,Win32,59.97720866,,,,,,,,,,,,,,,,,,,,,,,9,10,img/B10_09.jpg,CONTROL,Press J as soon as you see a face, ,JK,,,,,,,,,,,,,,,,,,,,,,,,,,,,,,,,,,,,,,,,,,,,,,792.4888,0,8,8,108,1,109,0,0,0,0,1,98,,,,,,,,,,,,,,,,,,,,,,,,,,,,,,,,,,,,,,,,,,,,,,,,,,,,,,,,,,,,,,,,,,,,,,,,,,
,,,,740456,001,2023-10-24_21h57.42.833,fluency,2022.2.5,Win32,59.97720866,,,,,,,,,,,,,,,,,,,,,,,,,,,,,,,,,,,,,,,,,,,,,,,,,,,,,,,,,,,,,,,,,,,,,,,,,,,,,,,,,,0,0,0,0,1,,"[""j""]",[0.7869999999999209],1,"[""j""]",[0.7870999999995547],,,,,,,,,,,,,,,,,,,,,,,,,,,,,,,,,,,,,,,,,,,,,,,,,,,,,,,,,,,,,,,,,,,,,
,,,,740456,001,2023-10-24_21h57.42.833,fluency,2022.2.5,Win32,59.97720866,,,,,,,,,,,,,,,,,,,,,,,9,10,img/B10_09.jpg,CONTROL,Press J as soon as you see a face, ,JK,,,,,,,,,,,,,,,,,,,,,,,,,,,,,,,,4,0.3654,,,,,,,,,,,,,,0,8,8,108,1,,,,,,,,,,,,,space,1.235,,,,,,,,,,,,,,,,,,,,,,,,,,,,,,,,,,,,,,,,,,,,,,,,,,,,,,,,,,,,,,,,,,,
,,,,740456,001,2023-10-24_21h57.42.833,fluency,2022.2.5,Win32,59.97720866,,,,,,,,,,,,,,,,,,,,,,,4,10,img/B10_04.jpg,CONTROL,Press J as soon as you see a face, ,JK,,,,,,,,,,,,,,,,,,,,,,,,,,,,,,,,,,,,,,,,,,,,,,799.1697,0,9,9,103,1,109,0,0,0,0,1,98,,,,,,,,,,,,,,,,,,,,,,,,,,,,,,,,,,,,,,,,,,,,,,,,,,,,,,,,,,,,,,,,,,,,,,,,,,
,,,,740456,001,2023-10-24_21h57.42.833,fluency,2022.2.5,Win32,59.97720866,,,,,,,,,,,,,,,,,,,,,,,,,,,,,,,,,,,,,,,,,,,,,,,,,,,,,,,,,,,,,,,,,,,,,,,,,,,,,,,,,,0,0,0,0,1,,"[""j""]",[1.3880999999996675],1,"[""j""]",[1.388199999999756],,,,,,,,,,,,,,,,,,,,,,,,,,,,,,,,,,,,,,,,,,,,,,,,,,,,,,,,,,,,,,,,,,,,,
,,,,740456,001,2023-10-24_21h57.42.833,fluency,2022.2.5,Win32,59.97720866,,,,,,,,,,,,,,,,,,,,,,,4,10,img/B10_04.jpg,CONTROL,Press J as soon as you see a face, ,JK,,,,,,,,,,,,,,,,,,,,,,,,,,,,,,,,5,0.5214,,,,,,,,,,,,,,0,9,9,103,1,,,,,,,,,,,,,space,0.8846,,,,,,,,,,,,,,,,,,,,,,,,,,,,,,,,,,,,,,,,,,,,,,,,,,,,,,,,,,,,,,,,,,,
,,,,740456,001,2023-10-24_21h57.42.833,fluency,2022.2.5,Win32,59.97720866,,,,,,,,,,,,,,,,,,,,,,,8,9,img/B09_08.jpg,CONTROL,Press J as soon as you see a face, ,JK,,,,,,,,,,,,,,,,,,,,,,,,,,,,,,,,,,,,,,,,,,,,,,805.6512,0,10,10,96,1,109,0,0,0,0,1,98,,,,,,,,,,,,,,,,,,,,,,,,,,,,,,,,,,,,,,,,,,,,,,,,,,,,,,,,,,,,,,,,,,,,,,,,,,
,,,,740456,001,2023-10-24_21h57.42.833,fluency,2022.2.5,Win32,59.97720866,,,,,,,,,,,,,,,,,,,,,,,,,,,,,,,,,,,,,,,,,,,,,,,,,,,,,,,,,,,,,,,,,,,,,,,,,,,,,,,,,,0,0,0,0,1,,"[""j""]",[0.5907000000000835],1,"[""j"",""6""]","[0.5905999999999949,1.9828999999998587]",,,,,,,,,,,,,,,,,,,,,,,,,,,,,,,,,,,,,,,,,,,,,,,,,,,,,,,,,,,,,,,,,,,,,
,,,,740456,001,2023-10-24_21h57.42.833,fluency,2022.2.5,Win32,59.97720866,,,,,,,,,,,,,,,,,,,,,,,8,9,img/B09_08.jpg,CONTROL,Press J as soon as you see a face, ,JK,,,,,,,,,,,,,,,,,,,,,,,,,,,,,,,,6,1.6002,,,,,,,,,,,,,,0,10,10,96,1,,,,,,,,,,,,,space,1.198,,,,,,,,,,,,,,,,,,,,,,,,,,,,,,,,,,,,,,,,,,,,,,,,,,,,,,,,,,,,,,,,,,,
,,,,740456,001,2023-10-24_21h57.42.833,fluency,2022.2.5,Win32,59.97720866,,,,,,,,,,,,,,,,,,,,,,,1,7,img/B07_01.jpg,CONTROL,Press J as soon as you see a face, ,JK,,,,,,,,,,,,,,,,,,,,,,,,,,,,,,,,,,,,,,,,,,,,,,812.5232,0,11,11,67,1,109,0,0,0,0,1,98,,,,,,,,,,,,,,,,,,,,,,,,,,,,,,,,,,,,,,,,,,,,,,,,,,,,,,,,,,,,,,,,,,,,,,,,,,
,,,,740456,001,2023-10-24_21h57.42.833,fluency,2022.2.5,Win32,59.97720866,,,,,,,,,,,,,,,,,,,,,,,,,,,,,,,,,,,,,,,,,,,,,,,,,,,,,,,,,,,,,,,,,,,,,,,,,,,,,,,,,,0,0,0,0,1,,"[""j""]",[1.024499999999989],1,"[""j""]",[1.024499999999989],,,,,,,,,,,,,,,,,,,,,,,,,,,,,,,,,,,,,,,,,,,,,,,,,,,,,,,,,,,,,,,,,,,,,
,,,,740456,001,2023-10-24_21h57.42.833,fluency,2022.2.5,Win32,59.97720866,,,,,,,,,,,,,,,,,,,,,,,1,7,img/B07_01.jpg,CONTROL,Press J as soon as you see a face, ,JK,,,,,,,,,,,,,,,,,,,,,,,,,,,,,,,,5,0.852,,,,,,,,,,,,,,0,11,11,67,1,,,,,,,,,,,,,space,1.0913,,,,,,,,,,,,,,,,,,,,,,,,,,,,,,,,,,,,,,,,,,,,,,,,,,,,,,,,,,,,,,,,,,,
,,,,740456,001,2023-10-24_21h57.42.833,fluency,2022.2.5,Win32,59.97720866,,,,,,,,,,,,,,,,,,,,,,,7,1,img/B01_07.jpg,CONTROL,Press J as soon as you see a face, ,JK,,,,,,,,,,,,,,,,,,,,,,,,,,,,,,,,,,,,,,,,,,,,,,819.5632,0,12,12,7,1,109,0,0,0,0,1,98,,,,,,,,,,,,,,,,,,,,,,,,,,,,,,,,,,,,,,,,,,,,,,,,,,,,,,,,,,,,,,,,,,,,,,,,,,
,,,,740456,001,2023-10-24_21h57.42.833,fluency,2022.2.5,Win32,59.97720866,,,,,,,,,,,,,,,,,,,,,,,,,,,,,,,,,,,,,,,,,,,,,,,,,,,,,,,,,,,,,,,,,,,,,,,,,,,,,,,,,,0,0,0,0,1,,"[""j""]",[1.079200000000128],1,"[""j""]",[1.0791000000000395],,,,,,,,,,,,,,,,,,,,,,,,,,,,,,,,,,,,,,,,,,,,,,,,,,,,,,,,,,,,,,,,,,,,,
,,,,740456,001,2023-10-24_21h57.42.833,fluency,2022.2.5,Win32,59.97720866,,,,,,,,,,,,,,,,,,,,,,,7,1,img/B01_07.jpg,CONTROL,Press J as soon as you see a face, ,JK,,,,,,,,,,,,,,,,,,,,,,,,,,,,,,,,6,0.4653,,,,,,,,,,,,,,0,12,12,7,1,,,,,,,,,,,,,space,0.9329,,,,,,,,,,,,,,,,,,,,,,,,,,,,,,,,,,,,,,,,,,,,,,,,,,,,,,,,,,,,,,,,,,,
,,,,740456,001,2023-10-24_21h57.42.833,fluency,2022.2.5,Win32,59.97720866,,,,,,,,,,,,,,,,,,,,,,,8,5,img/B05_08.jpg,CONTROL,Press J as soon as you see a face, ,JK,,,,,,,,,,,,,,,,,,,,,,,,,,,,,,,,,,,,,,,,,,,,,,826.0518,0,13,13,52,1,109,0,0,0,0,1,98,,,,,,,,,,,,,,,,,,,,,,,,,,,,,,,,,,,,,,,,,,,,,,,,,,,,,,,,,,,,,,,,,,,,,,,,,,
,,,,740456,001,2023-10-24_21h57.42.833,fluency,2022.2.5,Win32,59.97720866,,,,,,,,,,,,,,,,,,,,,,,,,,,,,,,,,,,,,,,,,,,,,,,,,,,,,,,,,,,,,,,,,,,,,,,,,,,,,,,,,,0,0,0,0,1,,"[""j""]",[0.9647000000002208],1,"[""j""]",[0.9646999999996524],,,,,,,,,,,,,,,,,,,,,,,,,,,,,,,,,,,,,,,,,,,,,,,,,,,,,,,,,,,,,,,,,,,,,
,,,,740456,001,2023-10-24_21h57.42.833,fluency,2022.2.5,Win32,59.97720866,,,,,,,,,,,,,,,,,,,,,,,8,5,img/B05_08.jpg,CONTROL,Press J as soon as you see a face, ,JK,,,,,,,,,,,,,,,,,,,,,,,,,,,,,,,,5,0.2782,,,,,,,,,,,,,,0,13,13,52,1,,,,,,,,,,,,,space,1.2341,,,,,,,,,,,,,,,,,,,,,,,,,,,,,,,,,,,,,,,,,,,,,,,,,,,,,,,,,,,,,,,,,,,
,,,,740456,001,2023-10-24_21h57.42.833,fluency,2022.2.5,Win32,59.97720866,,,,,,,,,,,,,,,,,,,,,,,1,10,img/B10_01.jpg,CONTROL,Press J as soon as you see a face, ,JK,,,,,,,,,,,,,,,,,,,,,,,,,,,,,,,,,,,,,,,,,,,,,,831.624,0,14,14,100,1,109,0,0,0,0,1,98,,,,,,,,,,,,,,,,,,,,,,,,,,,,,,,,,,,,,,,,,,,,,,,,,,,,,,,,,,,,,,,,,,,,,,,,,,
,,,,740456,001,2023-10-24_21h57.42.833,fluency,2022.2.5,Win32,59.97720866,,,,,,,,,,,,,,,,,,,,,,,,,,,,,,,,,,,,,,,,,,,,,,,,,,,,,,,,,,,,,,,,,,,,,,,,,,,,,,,,,,0,0,0,0,1,,"[""j""]",[1.017700000000218],1,"[""j""]",[1.0176000000001295],,,,,,,,,,,,,,,,,,,,,,,,,,,,,,,,,,,,,,,,,,,,,,,,,,,,,,,,,,,,,,,,,,,,,
,,,,740456,001,2023-10-24_21h57.42.833,fluency,2022.2.5,Win32,59.97720866,,,,,,,,,,,,,,,,,,,,,,,1,10,img/B10_01.jpg,CONTROL,Press J as soon as you see a face, ,JK,,,,,,,,,,,,,,,,,,,,,,,,,,,,,,,,4,1.2377,,,,,,,,,,,,,,0,14,14,100,1,,,,,,,,,,,,,space,1.8243,,,,,,,,,,,,,,,,,,,,,,,,,,,,,,,,,,,,,,,,,,,,,,,,,,,,,,,,,,,,,,,,,,,
,,,,740456,001,2023-10-24_21h57.42.833,fluency,2022.2.5,Win32,59.97720866,,,,,,,,,,,,,,,,,,,,,,,6,3,img/B03_06.jpg,CONTROL,Press J as soon as you see a face, ,JK,,,,,,,,,,,,,,,,,,,,,,,,,,,,,,,,,,,,,,,,,,,,,,839.7646,0,15,15,28,1,109,0,0,0,0,1,98,,,,,,,,,,,,,,,,,,,,,,,,,,,,,,,,,,,,,,,,,,,,,,,,,,,,,,,,,,,,,,,,,,,,,,,,,,
,,,,740456,001,2023-10-24_21h57.42.833,fluency,2022.2.5,Win32,59.97720866,,,,,,,,,,,,,,,,,,,,,,,,,,,,,,,,,,,,,,,,,,,,,,,,,,,,,,,,,,,,,,,,,,,,,,,,,,,,,,,,,,0,0,0,0,1,,"[""j""]",[0.34799999999995634],1,"[""j""]",[0.34799999999995634],,,,,,,,,,,,,,,,,,,,,,,,,,,,,,,,,,,,,,,,,,,,,,,,,,,,,,,,,,,,,,,,,,,,,
,,,,740456,001,2023-10-24_21h57.42.833,fluency,2022.2.5,Win32,59.97720866,,,,,,,,,,,,,,,,,,,,,,,6,3,img/B03_06.jpg,CONTROL,Press J as soon as you see a face, ,JK,,,,,,,,,,,,,,,,,,,,,,,,,,,,,,,,4,0.4926,,,,,,,,,,,,,,0,15,15,28,1,,,,,,,,,,,,,space,0.632,,,,,,,,,,,,,,,,,,,,,,,,,,,,,,,,,,,,,,,,,,,,,,,,,,,,,,,,,,,,,,,,,,,
,,,,740456,001,2023-10-24_21h57.42.833,fluency,2022.2.5,Win32,59.97720866,,,,,,,,,,,,,,,,,,,,,,,2,1,img/B01_02.jpg,CONTROL,Press J as soon as you see a face, ,JK,,,,,,,,,,,,,,,,,,,,,,,,,,,,,,,,,,,,,,,,,,,,,,844.9694,0,16,16,2,1,109,0,0,0,0,1,98,,,,,,,,,,,,,,,,,,,,,,,,,,,,,,,,,,,,,,,,,,,,,,,,,,,,,,,,,,,,,,,,,,,,,,,,,,
,,,,740456,001,2023-10-24_21h57.42.833,fluency,2022.2.5,Win32,59.97720866,,,,,,,,,,,,,,,,,,,,,,,,,,,,,,,,,,,,,,,,,,,,,,,,,,,,,,,,,,,,,,,,,,,,,,,,,,,,,,,,,,0,0,0,0,1,,"[""j""]",[0.830600000000004],1,"[""j""]",[0.830600000000004],,,,,,,,,,,,,,,,,,,,,,,,,,,,,,,,,,,,,,,,,,,,,,,,,,,,,,,,,,,,,,,,,,,,,
,,,,740456,001,2023-10-24_21h57.42.833,fluency,2022.2.5,Win32,59.97720866,,,,,,,,,,,,,,,,,,,,,,,2,1,img/B01_02.jpg,CONTROL,Press J as soon as you see a face, ,JK,,,,,,,,,,,,,,,,,,,,,,,,,,,,,,,,5,0.4853,,,,,,,,,,,,,,0,16,16,2,1,,,,,,,,,,,,,space,0.5506,,,,,,,,,,,,,,,,,,,,,,,,,,,,,,,,,,,,,,,,,,,,,,,,,,,,,,,,,,,,,,,,,,,
,,,,740456,001,2023-10-24_21h57.42.833,fluency,2022.2.5,Win32,59.97720866,,,,,,,,,,,,,,,,,,,,,,,8,3,img/B03_08.jpg,CONTROL,Press J as soon as you see a face, ,JK,,,,,,,,,,,,,,,,,,,,,,,,,,,,,,,,,,,,,,,,,,,,,,851.0739,0,17,17,30,1,109,0,0,0,0,1,98,,,,,,,,,,,,,,,,,,,,,,,,,,,,,,,,,,,,,,,,,,,,,,,,,,,,,,,,,,,,,,,,,,,,,,,,,,
,,,,740456,001,2023-10-24_21h57.42.833,fluency,2022.2.5,Win32,59.97720866,,,,,,,,,,,,,,,,,,,,,,,,,,,,,,,,,,,,,,,,,,,,,,,,,,,,,,,,,,,,,,,,,,,,,,,,,,,,,,,,,,0,0,0,0,1,,"[""j""]",[0.8842999999998256],1,"[""j""]",[0.8843999999999141],,,,,,,,,,,,,,,,,,,,,,,,,,,,,,,,,,,,,,,,,,,,,,,,,,,,,,,,,,,,,,,,,,,,,
,,,,740456,001,2023-10-24_21h57.42.833,fluency,2022.2.5,Win32,59.97720866,,,,,,,,,,,,,,,,,,,,,,,8,3,img/B03_08.jpg,CONTROL,Press J as soon as you see a face, ,JK,,,,,,,,,,,,,,,,,,,,,,,,,,,,,,,,4,0.4939,,,,,,,,,,,,,,0,17,17,30,1,,,,,,,,,,,,,space,0.786,,,,,,,,,,,,,,,,,,,,,,,,,,,,,,,,,,,,,,,,,,,,,,,,,,,,,,,,,,,,,,,,,,,
,,,,740456,001,2023-10-24_21h57.42.833,fluency,2022.2.5,Win32,59.97720866,,,,,,,,,,,,,,,,,,,,,,,2,9,img/B09_02.jpg,CONTROL,Press J as soon as you see a face, ,JK,,,,,,,,,,,,,,,,,,,,,,,,,,,,,,,,,,,,,,,,,,,,,,857.4461,0,18,18,90,1,109,0,0,0,0,1,98,,,,,,,,,,,,,,,,,,,,,,,,,,,,,,,,,,,,,,,,,,,,,,,,,,,,,,,,,,,,,,,,,,,,,,,,,,
,,,,740456,001,2023-10-24_21h57.42.833,fluency,2022.2.5,Win32,59.97720866,,,,,,,,,,,,,,,,,,,,,,,,,,,,,,,,,,,,,,,,,,,,,,,,,,,,,,,,,,,,,,,,,,,,,,,,,,,,,,,,,,0,0,0,0,1,,"[""j""]",[1.2140000000000555],1,"[""j""]",[1.2140000000000555],,,,,,,,,,,,,,,,,,,,,,,,,,,,,,,,,,,,,,,,,,,,,,,,,,,,,,,,,,,,,,,,,,,,,
,,,,740456,001,2023-10-24_21h57.42.833,fluency,2022.2.5,Win32,59.97720866,,,,,,,,,,,,,,,,,,,,,,,2,9,img/B09_02.jpg,CONTROL,Press J as soon as you see a face, ,JK,,,,,,,,,,,,,,,,,,,,,,,,,,,,,,,,5,0.5255,,,,,,,,,,,,,,0,18,18,90,1,,,,,,,,,,,,,space,0.7918,,,,,,,,,,,,,,,,,,,,,,,,,,,,,,,,,,,,,,,,,,,,,,,,,,,,,,,,,,,,,,,,,,,
,,,,740456,001,2023-10-24_21h57.42.833,fluency,2022.2.5,Win32,59.97720866,,,,,,,,,,,,,,,,,,,,,,,0,1,img/B01_00.jpg,CONTROL,Press J as soon as you see a face, ,JK,,,,,,,,,,,,,,,,,,,,,,,,,,,,,,,,,,,,,,,,,,,,,,863.8191,0,19,19,0,1,109,0,0,0,0,1,98,,,,,,,,,,,,,,,,,,,,,,,,,,,,,,,,,,,,,,,,,,,,,,,,,,,,,,,,,,,,,,,,,,,,,,,,,,
,,,,740456,001,2023-10-24_21h57.42.833,fluency,2022.2.5,Win32,59.97720866,,,,,,,,,,,,,,,,,,,,,,,,,,,,,,,,,,,,,,,,,,,,,,,,,,,,,,,,,,,,,,,,,,,,,,,,,,,,,,,,,,0,0,0,0,1,,"[""j""]",[1.1124999999999545],1,"[""j""]",[1.112399999999866],,,,,,,,,,,,,,,,,,,,,,,,,,,,,,,,,,,,,,,,,,,,,,,,,,,,,,,,,,,,,,,,,,,,,
,,,,740456,001,2023-10-24_21h57.42.833,fluency,2022.2.5,Win32,59.97720866,,,,,,,,,,,,,,,,,,,,,,,0,1,img/B01_00.jpg,CONTROL,Press J as soon as you see a face, ,JK,,,,,,,,,,,,,,,,,,,,,,,,,,,,,,,,5,0.8035,,,,,,,,,,,,,,0,19,19,0,1,,,,,,,,,,,,,space,1.1926,,,,,,,,,,,,,,,,,,,,,,,,,,,,,,,,,,,,,,,,,,,,,,,,,,,,,,,,,,,,,,,,,,,
,,,,740456,001,2023-10-24_21h57.42.833,fluency,2022.2.5,Win32,59.97720866,,,,,,,,,,,,,,,,,,,,,,,1,8,img/B08_01.jpg,CONTROL,Press J as soon as you see a face, ,JK,,,,,,,,,,,,,,,,,,,,,,,,,,,,,,,,,,,,,,,,,,,,,,869.8749,0,20,20,78,1,109,0,0,0,0,1,98,,,,,,,,,,,,,,,,,,,,,,,,,,,,,,,,,,,,,,,,,,,,,,,,,,,,,,,,,,,,,,,,,,,,,,,,,,
,,,,740456,001,2023-10-24_21h57.42.833,fluency,2022.2.5,Win32,59.97720866,,,,,,,,,,,,,,,,,,,,,,,,,,,,,,,,,,,,,,,,,,,,,,,,,,,,,,,,,,,,,,,,,,,,,,,,,,,,,,,,,,0,0,0,0,1,,"[""j""]",[0.6449000000000069],1,"[""j"",""4""]","[0.6449000000000069,2.196699999999737]",,,,,,,,,,,,,,,,,,,,,,,,,,,,,,,,,,,,,,,,,,,,,,,,,,,,,,,,,,,,,,,,,,,,,
,,,,740456,001,2023-10-24_21h57.42.833,fluency,2022.2.5,Win32,59.97720866,,,,,,,,,,,,,,,,,,,,,,,1,8,img/B08_01.jpg,CONTROL,Press J as soon as you see a face, ,JK,,,,,,,,,,,,,,,,,,,,,,,,,,,,,,,,4,0.6963,,,,,,,,,,,,,,0,20,20,78,1,,,,,,,,,,,,,space,1.281,,,,,,,,,,,,,,,,,,,,,,,,,,,,,,,,,,,,,,,,,,,,,,,,,,,,,,,,,,,,,,,,,,,
,,,,740456,001,2023-10-24_21h57.42.833,fluency,2022.2.5,Win32,59.97720866,,,,,,,,,,,,,,,,,,,,,,,1,3,img/B03_01.jpg,CONTROL,Press J as soon as you see a face, ,JK,,,,,,,,,,,,,,,,,,,,,,,,,,,,,,,,,,,,,,,,,,,,,,876.914,0,21,21,23,1,109,0,0,0,0,1,98,,,,,,,,,,,,,,,,,,,,,,,,,,,,,,,,,,,,,,,,,,,,,,,,,,,,,,,,,,,,,,,,,,,,,,,,,,
,,,,740456,001,2023-10-24_21h57.42.833,fluency,2022.2.5,Win32,59.97720866,,,,,,,,,,,,,,,,,,,,,,,,,,,,,,,,,,,,,,,,,,,,,,,,,,,,,,,,,,,,,,,,,,,,,,,,,,,,,,,,,,0,0,0,0,1,,"[""j""]",[0.4077999999998383],1,"[""j""]",[0.40780000000029304],,,,,,,,,,,,,,,,,,,,,,,,,,,,,,,,,,,,,,,,,,,,,,,,,,,,,,,,,,,,,,,,,,,,,
,,,,740456,001,2023-10-24_21h57.42.833,fluency,2022.2.5,Win32,59.97720866,,,,,,,,,,,,,,,,,,,,,,,1,3,img/B03_01.jpg,CONTROL,Press J as soon as you see a face, ,JK,,,,,,,,,,,,,,,,,,,,,,,,,,,,,,,,3,0.559,,,,,,,,,,,,,,0,21,21,23,1,,,,,,,,,,,,,space,0.9518,,,,,,,,,,,,,,,,,,,,,,,,,,,,,,,,,,,,,,,,,,,,,,,,,,,,,,,,,,,,,,,,,,,
,,,,740456,001,2023-10-24_21h57.42.833,fluency,2022.2.5,Win32,59.97720866,,,,,,,,,,,,,,,,,,,,,,,9,3,img/B03_09.jpg,CONTROL,Press J as soon as you see a face, ,JK,,,,,,,,,,,,,,,,,,,,,,,,,,,,,,,,,,,,,,,,,,,,,,882.4855,0,22,22,31,1,109,0,0,0,0,1,98,,,,,,,,,,,,,,,,,,,,,,,,,,,,,,,,,,,,,,,,,,,,,,,,,,,,,,,,,,,,,,,,,,,,,,,,,,
,,,,740456,001,2023-10-24_21h57.42.833,fluency,2022.2.5,Win32,59.97720866,,,,,,,,,,,,,,,,,,,,,,,,,,,,,,,,,,,,,,,,,,,,,,,,,,,,,,,,,,,,,,,,,,,,,,,,,,,,,,,,,,0,0,0,0,1,,"[""j""]",[1.850400000000377],1,"[""j""]",[1.8502000000002],,,,,,,,,,,,,,,,,,,,,,,,,,,,,,,,,,,,,,,,,,,,,,,,,,,,,,,,,,,,,,,,,,,,,
,,,,740456,001,2023-10-24_21h57.42.833,fluency,2022.2.5,Win32,59.97720866,,,,,,,,,,,,,,,,,,,,,,,9,3,img/B03_09.jpg,CONTROL,Press J as soon as you see a face, ,JK,,,,,,,,,,,,,,,,,,,,,,,,,,,,,,,,4,0.5691,,,,,,,,,,,,,,0,22,22,31,1,,,,,,,,,,,,,space,2.6694,,,,,,,,,,,,,,,,,,,,,,,,,,,,,,,,,,,,,,,,,,,,,,,,,,,,,,,,,,,,,,,,,,,
,,,,740456,001,2023-10-24_21h57.42.833,fluency,2022.2.5,Win32,59.97720866,,,,,,,,,,,,,,,,,,,,,,,7,7,img/B07_07.jpg,CONTROL,Press J as soon as you see a face, ,JK,,,,,,,,,,,,,,,,,,,,,,,,,,,,,,,,,,,,,,,,,,,,,,889.7749,0,23,23,73,1,109,0,0,0,0,1,98,,,,,,,,,,,,,,,,,,,,,,,,,,,,,,,,,,,,,,,,,,,,,,,,,,,,,,,,,,,,,,,,,,,,,,,,,,
,,,,740456,001,2023-10-24_21h57.42.833,fluency,2022.2.5,Win32,59.97720866,,,,,,,,,,,,,,,,,,,,,,,,,,,,,,,,,,,,,,,,,,,,,,,,,,,,,,,,,,,,,,,,,,,,,,,,,,,,,,,,,,0,0,0,0,1,,"[""j""]",[0.5417999999998528],1,"[""j"",""6""]","[0.5417999999998528,2.729200000000219]",,,,,,,,,,,,,,,,,,,,,,,,,,,,,,,,,,,,,,,,,,,,,,,,,,,,,,,,,,,,,,,,,,,,,
,,,,740456,001,2023-10-24_21h57.42.833,fluency,2022.2.5,Win32,59.97720866,,,,,,,,,,,,,,,,,,,,,,,7,7,img/B07_07.jpg,CONTROL,Press J as soon as you see a face, ,JK,,,,,,,,,,,,,,,,,,,,,,,,,,,,,,,,6,2.6811,,,,,,,,,,,,,,0,23,23,73,1,,,,,,,,,,,,,space,1.0514,,,,,,,,,,,,,,,,,,,,,,,,,,,,,,,,,,,,,,,,,,,,,,,,,,,,,,,,,,,,,,,,,,,
,,,,740456,001,2023-10-24_21h57.42.833,fluency,2022.2.5,Win32,59.97720866,,,,,,,,,,,,,,,,,,,,,,,9,5,img/B05_09.jpg,CONTROL,Press J as soon as you see a face, ,JK,,,,,,,,,,,,,,,,,,,,,,,,,,,,,,,,,,,,,,,,,,,,,,897.5567,0,24,24,53,1,109,0,0,0,0,1,98,,,,,,,,,,,,,,,,,,,,,,,,,,,,,,,,,,,,,,,,,,,,,,,,,,,,,,,,,,,,,,,,,,,,,,,,,,
,,,,740456,001,2023-10-24_21h57.42.833,fluency,2022.2.5,Win32,59.97720866,,,,,,,,,,,,,,,,,,,,,,,,,,,,,,,,,,,,,,,,,,,,,,,,,,,,,,,,,,,,,,,,,,,,,,,,,,,,,,,,,,0,0,0,0,1,,"[""j""]",[1.2008999999999332],1,"[""j""]",[1.2010000000000218],,,,,,,,,,,,,,,,,,,,,,,,,,,,,,,,,,,,,,,,,,,,,,,,,,,,,,,,,,,,,,,,,,,,,
,,,,740456,001,2023-10-24_21h57.42.833,fluency,2022.2.5,Win32,59.97720866,,,,,,,,,,,,,,,,,,,,,,,9,5,img/B05_09.jpg,CONTROL,Press J as soon as you see a face, ,JK,,,,,,,,,,,,,,,,,,,,,,,,,,,,,,,,5,1.3708,,,,,,,,,,,,,,0,24,24,53,1,,,,,,,,,,,,,space,3.1897,,,,,,,,,,,,,,,,,,,,,,,,,,,,,,,,,,,,,,,,,,,,,,,,,,,,,,,,,,,,,,,,,,,
,,,,740456,001,2023-10-24_21h57.42.833,fluency,2022.2.5,Win32,59.97720866,,,,,,,,,,,,,,,,,,,,,,,2,10,img/B10_02.jpg,CONTROL,Press J as soon as you see a face, ,JK,,,,,,,,,,,,,,,,,,,,,,,,,,,,,,,,,,,,,,,,,,,,,,906.2234,0,25,25,101,1,109,0,0,0,0,1,98,,,,,,,,,,,,,,,,,,,,,,,,,,,,,,,,,,,,,,,,,,,,,,,,,,,,,,,,,,,,,,,,,,,,,,,,,,
,,,,740456,001,2023-10-24_21h57.42.833,fluency,2022.2.5,Win32,59.97720866,,,,,,,,,,,,,,,,,,,,,,,,,,,,,,,,,,,,,,,,,,,,,,,,,,,,,,,,,,,,,,,,,,,,,,,,,,,,,,,,,,0,0,0,0,1,,"[""j""]",[1.6457000000001472],1,"[""j""]",[1.6457000000001472],,,,,,,,,,,,,,,,,,,,,,,,,,,,,,,,,,,,,,,,,,,,,,,,,,,,,,,,,,,,,,,,,,,,,
,,,,740456,001,2023-10-24_21h57.42.833,fluency,2022.2.5,Win32,59.97720866,,,,,,,,,,,,,,,,,,,,,,,2,10,img/B10_02.jpg,CONTROL,Press J as soon as you see a face, ,JK,,,,,,,,,,,,,,,,,,,,,,,,,,,,,,,,5,0.5129,,,,,,,,,,,,,,0,25,25,101,1,,,,,,,,,,,,,space,0.8188,,,,,,,,,,,,,,,,,,,,,,,,,,,,,,,,,,,,,,,,,,,,,,,,,,,,,,,,,,,,,,,,,,,
,,,,740456,001,2023-10-24_21h57.42.833,fluency,2022.2.5,Win32,59.97720866,,,,,,,,,,,,,,,,,,,,,,,5,8,img/B08_05.jpg,CONTROL,Press J as soon as you see a face, ,JK,,,,,,,,,,,,,,,,,,,,,,,,,,,,,,,,,,,,,,,,,,,,,,912.6284,0,26,26,82,1,109,0,0,0,0,1,98,,,,,,,,,,,,,,,,,,,,,,,,,,,,,,,,,,,,,,,,,,,,,,,,,,,,,,,,,,,,,,,,,,,,,,,,,,
,,,,740456,001,2023-10-24_21h57.42.833,fluency,2022.2.5,Win32,59.97720866,,,,,,,,,,,,,,,,,,,,,,,,,,,,,,,,,,,,,,,,,,,,,,,,,,,,,,,,,,,,,,,,,,,,,,,,,,,,,,,,,,0,0,0,0,1,,"[""j""]",[0.36730000000022756],1,"[""j""]",[0.3673999999998614],,,,,,,,,,,,,,,,,,,,,,,,,,,,,,,,,,,,,,,,,,,,,,,,,,,,,,,,,,,,,,,,,,,,,
,,,,740456,001,2023-10-24_21h57.42.833,fluency,2022.2.5,Win32,59.97720866,,,,,,,,,,,,,,,,,,,,,,,5,8,img/B08_05.jpg,CONTROL,Press J as soon as you see a face, ,JK,,,,,,,,,,,,,,,,,,,,,,,,,,,,,,,,4,0.4891,,,,,,,,,,,,,,0,26,26,82,1,,,,,,,,,,,,,space,0.5187,,,,,,,,,,,,,,,,,,,,,,,,,,,,,,,,,,,,,,,,,,,,,,,,,,,,,,,,,,,,,,,,,,,
,,,,740456,001,2023-10-24_21h57.42.833,fluency,2022.2.5,Win32,59.97720866,,,,,,,,,,,,,,,,,,,,,,,2,2,img/B02_02.jpg,CONTROL,Press J as soon as you see a face, ,JK,,,,,,,,,,,,,,,,,,,,,,,,,,,,,,,,,,,,,,,,,,,,,,917.7171,0,27,27,13,1,109,0,0,0,0,1,98,,,,,,,,,,,,,,,,,,,,,,,,,,,,,,,,,,,,,,,,,,,,,,,,,,,,,,,,,,,,,,,,,,,,,,,,,,
,,,,740456,001,2023-10-24_21h57.42.833,fluency,2022.2.5,Win32,59.97720866,,,,,,,,,,,,,,,,,,,,,,,,,,,,,,,,,,,,,,,,,,,,,,,,,,,,,,,,,,,,,,,,,,,,,,,,,,,,,,,,,,0,0,0,0,1,,"[""j""]",[1.8518999999998869],1,"[""j""]",[1.8518999999998869],,,,,,,,,,,,,,,,,,,,,,,,,,,,,,,,,,,,,,,,,,,,,,,,,,,,,,,,,,,,,,,,,,,,,
,,,,740456,001,2023-10-24_21h57.42.833,fluency,2022.2.5,Win32,59.97720866,,,,,,,,,,,,,,,,,,,,,,,2,2,img/B02_02.jpg,CONTROL,Press J as soon as you see a face, ,JK,,,,,,,,,,,,,,,,,,,,,,,,,,,,,,,,5,0.1803,,,,,,,,,,,,,,0,27,27,13,1,,,,,,,,,,,,,space,3.3739,,,,,,,,,,,,,,,,,,,,,,,,,,,,,,,,,,,,,,,,,,,,,,,,,,,,,,,,,,,,,,,,,,,
,,,,740456,001,2023-10-24_21h57.42.833,fluency,2022.2.5,Win32,59.97720866,,,,,,,,,,,,,,,,,,,,,,,9,2,img/B02_09.jpg,CONTROL,Press J as soon as you see a face, ,JK,,,,,,,,,,,,,,,,,,,,,,,,,,,,,,,,,,,,,,,,,,,,,,925.3167,0,28,28,20,1,109,0,0,0,0,1,98,,,,,,,,,,,,,,,,,,,,,,,,,,,,,,,,,,,,,,,,,,,,,,,,,,,,,,,,,,,,,,,,,,,,,,,,,,
,,,,740456,001,2023-10-24_21h57.42.833,fluency,2022.2.5,Win32,59.97720866,,,,,,,,,,,,,,,,,,,,,,,,,,,,,,,,,,,,,,,,,,,,,,,,,,,,,,,,,,,,,,,,,,,,,,,,,,,,,,,,,,0,0,0,0,1,,"[""j""]",[0.7688999999999169],1,"[""j"",""4""]","[0.7688999999999169,2.3051000000000386]",,,,,,,,,,,,,,,,,,,,,,,,,,,,,,,,,,,,,,,,,,,,,,,,,,,,,,,,,,,,,,,,,,,,,
,,,,740456,001,2023-10-24_21h57.42.833,fluency,2022.2.5,Win32,59.97720866,,,,,,,,,,,,,,,,,,,,,,,9,2,img/B02_09.jpg,CONTROL,Press J as soon as you see a face, ,JK,,,,,,,,,,,,,,,,,,,,,,,,,,,,,,,,4,1.8409,,,,,,,,,,,,,,0,28,28,20,1,,,,,,,,,,,,,space,0.5842,,,,,,,,,,,,,,,,,,,,,,,,,,,,,,,,,,,,,,,,,,,,,,,,,,,,,,,,,,,,,,,,,,,
,,,,740456,001,2023-10-24_21h57.42.833,fluency,2022.2.5,Win32,59.97720866,,,,,,,,,,,,,,,,,,,,,,,5,5,img/B05_05.jpg,CONTROL,Press J as soon as you see a face, ,JK,,,,,,,,,,,,,,,,,,,,,,,,,,,,,,,,,,,,,,,,,,,,,,932.8302,0,29,29,49,1,109,0,0,0,0,1,98,,,,,,,,,,,,,,,,,,,,,,,,,,,,,,,,,,,,,,,,,,,,,,,,,,,,,,,,,,,,,,,,,,,,,,,,,,
,,,,740456,001,2023-10-24_21h57.42.833,fluency,2022.2.5,Win32,59.97720866,,,,,,,,,,,,,,,,,,,,,,,,,,,,,,,,,,,,,,,,,,,,,,,,,,,,,,,,,,,,,,,,,,,,,,,,,,,,,,,,,,0,0,0,0,1,,"[""j""]",[0.9759999999999991],1,"[""j""]",[0.9759999999999991],,,,,,,,,,,,,,,,,,,,,,,,,,,,,,,,,,,,,,,,,,,,,,,,,,,,,,,,,,,,,,,,,,,,,
,,,,740456,001,2023-10-24_21h57.42.833,fluency,2022.2.5,Win32,59.97720866,,,,,,,,,,,,,,,,,,,,,,,5,5,img/B05_05.jpg,CONTROL,Press J as soon as you see a face, ,JK,,,,,,,,,,,,,,,,,,,,,,,,,,,,,,,,4,0.5537,,,,,,,,,,,,,,0,29,29,49,1,,,,,,,,,,,,,space,0.4696,,,,,,,,,,,,,,,,,,,,,,,,,,,,,,,,,,,,,,,,,,,,,,,,,,,,,,,,,,,,,,,,,,,
,,,,740456,001,2023-10-24_21h57.42.833,fluency,2022.2.5,Win32,59.97720866,,,,,,,,,,,,,,,,,,,,,,,7,5,img/B05_07.jpg,CONTROL,Press J as soon as you see a face, ,JK,,,,,,,,,,,,,,,,,,,,,,,,,,,,,,,,,,,,,,,,,,,,,,938.9183,0,30,30,51,1,109,0,0,0,0,1,98,,,,,,,,,,,,,,,,,,,,,,,,,,,,,,,,,,,,,,,,,,,,,,,,,,,,,,,,,,,,,,,,,,,,,,,,,,
,,,,740456,001,2023-10-24_21h57.42.833,fluency,2022.2.5,Win32,59.97720866,,,,,,,,,,,,,,,,,,,,,,,,,,,,,,,,,,,,,,,,,,,,,,,,,,,,,,,,,,,,,,,,,,,,,,,,,,,,,,,,,,0,0,0,0,1,,"[""j""]",[0.7190000000000509],1,"[""j""]",[0.7191000000001395],,,,,,,,,,,,,,,,,,,,,,,,,,,,,,,,,,,,,,,,,,,,,,,,,,,,,,,,,,,,,,,,,,,,,
,,,,740456,001,2023-10-24_21h57.42.833,fluency,2022.2.5,Win32,59.97720866,,,,,,,,,,,,,,,,,,,,,,,7,5,img/B05_07.jpg,CONTROL,Press J as soon as you see a face, ,JK,,,,,,,,,,,,,,,,,,,,,,,,,,,,,,,,5,0.3723,,,,,,,,,,,,,,0,30,30,51,1,,,,,,,,,,,,,space,0.7161,,,,,,,,,,,,,,,,,,,,,,,,,,,,,,,,,,,,,,,,,,,,,,,,,,,,,,,,,,,,,,,,,,,
,,,,740456,001,2023-10-24_21h57.42.833,fluency,2022.2.5,Win32,59.97720866,,,,,,,,,,,,,,,,,,,,,,,2,4,img/B04_02.jpg,CONTROL,Press J as soon as you see a face, ,JK,,,,,,,,,,,,,,,,,,,,,,,,,,,,,,,,,,,,,,,,,,,,,,944.057,0,31,31,35,1,109,0,0,0,0,1,98,,,,,,,,,,,,,,,,,,,,,,,,,,,,,,,,,,,,,,,,,,,,,,,,,,,,,,,,,,,,,,,,,,,,,,,,,,
,,,,740456,001,2023-10-24_21h57.42.833,fluency,2022.2.5,Win32,59.97720866,,,,,,,,,,,,,,,,,,,,,,,,,,,,,,,,,,,,,,,,,,,,,,,,,,,,,,,,,,,,,,,,,,,,,,,,,,,,,,,,,,0,0,0,0,1,,"[""j""]",[0.77800000000002],1,"[""j""]",[0.7781000000001086],,,,,,,,,,,,,,,,,,,,,,,,,,,,,,,,,,,,,,,,,,,,,,,,,,,,,,,,,,,,,,,,,,,,,
,,,,740456,001,2023-10-24_21h57.42.833,fluency,2022.2.5,Win32,59.97720866,,,,,,,,,,,,,,,,,,,,,,,2,4,img/B04_02.jpg,CONTROL,Press J as soon as you see a face, ,JK,,,,,,,,,,,,,,,,,,,,,,,,,,,,,,,,5,0.552,,,,,,,,,,,,,,0,31,31,35,1,,,,,,,,,,,,,space,0.4514,,,,,,,,,,,,,,,,,,,,,,,,,,,,,,,,,,,,,,,,,,,,,,,,,,,,,,,,,,,,,,,,,,,
,,,,740456,001,2023-10-24_21h57.42.833,fluency,2022.2.5,Win32,59.97720866,,,,,,,,,,,,,,,,,,,,,,,0,4,img/B04_00.jpg,CONTROL,Press J as soon as you see a face, ,JK,,,,,,,,,,,,,,,,,,,,,,,,,,,,,,,,,,,,,,,,,,,,,,949.1447,0,32,32,33,1,109,0,0,0,0,1,98,,,,,,,,,,,,,,,,,,,,,,,,,,,,,,,,,,,,,,,,,,,,,,,,,,,,,,,,,,,,,,,,,,,,,,,,,,
,,,,740456,001,2023-10-24_21h57.42.833,fluency,2022.2.5,Win32,59.97720866,,,,,,,,,,,,,,,,,,,,,,,,,,,,,,,,,,,,,,,,,,,,,,,,,,,,,,,,,,,,,,,,,,,,,,,,,,,,,,,,,,0,0,0,0,1,,"[""j""]",[0.9663999999999078],1,"[""j""]",[0.9664999999999964],,,,,,,,,,,,,,,,,,,,,,,,,,,,,,,,,,,,,,,,,,,,,,,,,,,,,,,,,,,,,,,,,,,,,
,,,,740456,001,2023-10-24_21h57.42.833,fluency,2022.2.5,Win32,59.97720866,,,,,,,,,,,,,,,,,,,,,,,0,4,img/B04_00.jpg,CONTROL,Press J as soon as you see a face, ,JK,,,,,,,,,,,,,,,,,,,,,,,,,,,,,,,,4,0.6009,,,,,,,,,,,,,,0,32,32,33,1,,,,,,,,,,,,,space,0.8911,,,,,,,,,,,,,,,,,,,,,,,,,,,,,,,,,,,,,,,,,,,,,,,,,,,,,,,,,,,,,,,,,,,
,,,,740456,001,2023-10-24_21h57.42.833,fluency,2022.2.5,Win32,59.97720866,,,,,,,,,,,,,,,,,,,,,,,10,6,img/B06_10.jpg,CONTROL,Press J as soon as you see a face, ,JK,,,,,,,,,,,,,,,,,,,,,,,,,,,,,,,,,,,,,,,,,,,,,,955.6997,0,33,33,65,1,109,0,0,0,0,1,98,,,,,,,,,,,,,,,,,,,,,,,,,,,,,,,,,,,,,,,,,,,,,,,,,,,,,,,,,,,,,,,,,,,,,,,,,,
,,,,740456,001,2023-10-24_21h57.42.833,fluency,2022.2.5,Win32,59.97720866,,,,,,,,,,,,,,,,,,,,,,,,,,,,,,,,,,,,,,,,,,,,,,,,,,,,,,,,,,,,,,,,,,,,,,,,,,,,,,,,,,0,0,0,0,1,,"[""j""]",[0.9651999999996406],1,"[""j""]",[0.9651999999996406],,,,,,,,,,,,,,,,,,,,,,,,,,,,,,,,,,,,,,,,,,,,,,,,,,,,,,,,,,,,,,,,,,,,,
,,,,740456,001,2023-10-24_21h57.42.833,fluency,2022.2.5,Win32,59.97720866,,,,,,,,,,,,,,,,,,,,,,,10,6,img/B06_10.jpg,CONTROL,Press J as soon as you see a face, ,JK,,,,,,,,,,,,,,,,,,,,,,,,,,,,,,,,6,0.4025,,,,,,,,,,,,,,0,33,33,65,1,,,,,,,,,,,,,space,2.023,,,,,,,,,,,,,,,,,,,,,,,,,,,,,,,,,,,,,,,,,,,,,,,,,,,,,,,,,,,,,,,,,,,
,,,,740456,001,2023-10-24_21h57.42.833,fluency,2022.2.5,Win32,59.97720866,,,,,,,,,,,,,,,,,,,,,,,3,5,img/B05_03.jpg,CONTROL,Press J as soon as you see a face, ,JK,,,,,,,,,,,,,,,,,,,,,,,,,,,,,,,,,,,,,,,,,,,,,,962.1886,0,34,34,47,1,109,0,0,0,0,1,98,,,,,,,,,,,,,,,,,,,,,,,,,,,,,,,,,,,,,,,,,,,,,,,,,,,,,,,,,,,,,,,,,,,,,,,,,,
,,,,740456,001,2023-10-24_21h57.42.833,fluency,2022.2.5,Win32,59.97720866,,,,,,,,,,,,,,,,,,,,,,,,,,,,,,,,,,,,,,,,,,,,,,,,,,,,,,,,,,,,,,,,,,,,,,,,,,,,,,,,,,0,0,0,0,1,,"[""j""]",[1.4227000000001908],1,"[""j""]",[1.4227000000001908],,,,,,,,,,,,,,,,,,,,,,,,,,,,,,,,,,,,,,,,,,,,,,,,,,,,,,,,,,,,,,,,,,,,,
,,,,740456,001,2023-10-24_21h57.42.833,fluency,2022.2.5,Win32,59.97720866,,,,,,,,,,,,,,,,,,,,,,,3,5,img/B05_03.jpg,CONTROL,Press J as soon as you see a face, ,JK,,,,,,,,,,,,,,,,,,,,,,,,,,,,,,,,4,0.6786,,,,,,,,,,,,,,0,34,34,47,1,,,,,,,,,,,,,space,0.7159,,,,,,,,,,,,,,,,,,,,,,,,,,,,,,,,,,,,,,,,,,,,,,,,,,,,,,,,,,,,,,,,,,,
,,,,740456,001,2023-10-24_21h57.42.833,fluency,2022.2.5,Win32,59.97720866,,,,,,,,,,,,,,,,,,,,,,,7,4,img/B04_07.jpg,CONTROL,Press J as soon as you see a face, ,JK,,,,,,,,,,,,,,,,,,,,,,,,,,,,,,,,,,,,,,,,,,,,,,968.6358,0,35,35,40,1,109,0,0,0,0,1,98,,,,,,,,,,,,,,,,,,,,,,,,,,,,,,,,,,,,,,,,,,,,,,,,,,,,,,,,,,,,,,,,,,,,,,,,,,
,,,,740456,001,2023-10-24_21h57.42.833,fluency,2022.2.5,Win32,59.97720866,,,,,,,,,,,,,,,,,,,,,,,,,,,,,,,,,,,,,,,,,,,,,,,,,,,,,,,,,,,,,,,,,,,,,,,,,,,,,,,,,,0,0,0,0,1,,"[""j""]",[0.936100000000124],1,"[""j""]",[0.936100000000124],,,,,,,,,,,,,,,,,,,,,,,,,,,,,,,,,,,,,,,,,,,,,,,,,,,,,,,,,,,,,,,,,,,,,
,,,,740456,001,2023-10-24_21h57.42.833,fluency,2022.2.5,Win32,59.97720866,,,,,,,,,,,,,,,,,,,,,,,7,4,img/B04_07.jpg,CONTROL,Press J as soon as you see a face, ,JK,,,,,,,,,,,,,,,,,,,,,,,,,,,,,,,,4,0.5752,,,,,,,,,,,,,,0,35,35,40,1,,,,,,,,,,,,,space,1.0031,,,,,,,,,,,,,,,,,,,,,,,,,,,,,,,,,,,,,,,,,,,,,,,,,,,,,,,,,,,,,,,,,,,
,,,,740456,001,2023-10-24_21h57.42.833,fluency,2022.2.5,Win32,59.97720866,,,,,,,,,,,,,,,,,,,,,,,6,2,img/B02_06.jpg,CONTROL,Press J as soon as you see a face, ,JK,,,,,,,,,,,,,,,,,,,,,,,,,,,,,,,,,,,,,,,,,,,,,,974.2837,0,36,36,17,1,109,0,0,0,0,1,98,,,,,,,,,,,,,,,,,,,,,,,,,,,,,,,,,,,,,,,,,,,,,,,,,,,,,,,,,,,,,,,,,,,,,,,,,,
,,,,740456,001,2023-10-24_21h57.42.833,fluency,2022.2.5,Win32,59.97720866,,,,,,,,,,,,,,,,,,,,,,,,,,,,,,,,,,,,,,,,,,,,,,,,,,,,,,,,,,,,,,,,,,,,,,,,,,,,,,,,,,0,0,0,0,1,,"[""j""]",[0.7293999999999414],1,"[""j""]",[0.7293000000003076],,,,,,,,,,,,,,,,,,,,,,,,,,,,,,,,,,,,,,,,,,,,,,,,,,,,,,,,,,,,,,,,,,,,,
,,,,740456,001,2023-10-24_21h57.42.833,fluency,2022.2.5,Win32,59.97720866,,,,,,,,,,,,,,,,,,,,,,,6,2,img/B02_06.jpg,CONTROL,Press J as soon as you see a face, ,JK,,,,,,,,,,,,,,,,,,,,,,,,,,,,,,,,6,0.4569,,,,,,,,,,,,,,0,36,36,17,1,,,,,,,,,,,,,space,0.502,,,,,,,,,,,,,,,,,,,,,,,,,,,,,,,,,,,,,,,,,,,,,,,,,,,,,,,,,,,,,,,,,,,
,,,,740456,001,2023-10-24_21h57.42.833,fluency,2022.2.5,Win32,59.97720866,,,,,,,,,,,,,,,,,,,,,,,0,6,img/B06_00.jpg,CONTROL,Press J as soon as you see a face, ,JK,,,,,,,,,,,,,,,,,,,,,,,,,,,,,,,,,,,,,,,,,,,,,,979.2884,0,37,37,55,1,109,0,0,0,0,1,98,,,,,,,,,,,,,,,,,,,,,,,,,,,,,,,,,,,,,,,,,,,,,,,,,,,,,,,,,,,,,,,,,,,,,,,,,,
,,,,740456,001,2023-10-24_21h57.42.833,fluency,2022.2.5,Win32,59.97720866,,,,,,,,,,,,,,,,,,,,,,,,,,,,,,,,,,,,,,,,,,,,,,,,,,,,,,,,,,,,,,,,,,,,,,,,,,,,,,,,,,0,0,0,0,1,,"[""j""]",[0.9546000000000276],1,"[""j""]",[0.9543999999998505],,,,,,,,,,,,,,,,,,,,,,,,,,,,,,,,,,,,,,,,,,,,,,,,,,,,,,,,,,,,,,,,,,,,,
,,,,740456,001,2023-10-24_21h57.42.833,fluency,2022.2.5,Win32,59.97720866,,,,,,,,,,,,,,,,,,,,,,,0,6,img/B06_00.jpg,CONTROL,Press J as soon as you see a face, ,JK,,,,,,,,,,,,,,,,,,,,,,,,,,,,,,,,5,0.4866,,,,,,,,,,,,,,0,37,37,55,1,,,,,,,,,,,,,space,0.4863,,,,,,,,,,,,,,,,,,,,,,,,,,,,,,,,,,,,,,,,,,,,,,,,,,,,,,,,,,,,,,,,,,,
,,,,740456,001,2023-10-24_21h57.42.833,fluency,2022.2.5,Win32,59.97720866,,,,,,,,,,,,,,,,,,,,,,,4,4,img/B04_04.jpg,CONTROL,Press J as soon as you see a face, ,JK,,,,,,,,,,,,,,,,,,,,,,,,,,,,,,,,,,,,,,,,,,,,,,984.3583,0,38,38,37,1,109,0,0,0,0,1,98,,,,,,,,,,,,,,,,,,,,,,,,,,,,,,,,,,,,,,,,,,,,,,,,,,,,,,,,,,,,,,,,,,,,,,,,,,
,,,,740456,001,2023-10-24_21h57.42.833,fluency,2022.2.5,Win32,59.97720866,,,,,,,,,,,,,,,,,,,,,,,,,,,,,,,,,,,,,,,,,,,,,,,,,,,,,,,,,,,,,,,,,,,,,,,,,,,,,,,,,,0,0,0,0,1,,"[""j""]",[1.0651000000000295],1,"[""j""]",[1.0649999999999409],,,,,,,,,,,,,,,,,,,,,,,,,,,,,,,,,,,,,,,,,,,,,,,,,,,,,,,,,,,,,,,,,,,,,
,,,,740456,001,2023-10-24_21h57.42.833,fluency,2022.2.5,Win32,59.97720866,,,,,,,,,,,,,,,,,,,,,,,4,4,img/B04_04.jpg,CONTROL,Press J as soon as you see a face, ,JK,,,,,,,,,,,,,,,,,,,,,,,,,,,,,,,,6,0.3519,,,,,,,,,,,,,,0,38,38,37,1,,,,,,,,,,,,,space,0.5155,,,,,,,,,,,,,,,,,,,,,,,,,,,,,,,,,,,,,,,,,,,,,,,,,,,,,,,,,,,,,,,,,,,
,,,,740456,001,2023-10-24_21h57.42.833,fluency,2022.2.5,Win32,59.97720866,,,,,,,,,,,,,,,,,,,,,,,8,2,img/B02_08.jpg,CONTROL,Press J as soon as you see a face, ,JK,,,,,,,,,,,,,,,,,,,,,,,,,,,,,,,,,,,,,,,,,,,,,,989.3239,0,39,39,19,1,109,0,0,0,0,1,98,,,,,,,,,,,,,,,,,,,,,,,,,,,,,,,,,,,,,,,,,,,,,,,,,,,,,,,,,,,,,,,,,,,,,,,,,,
,,,,740456,001,2023-10-24_21h57.42.833,fluency,2022.2.5,Win32,59.97720866,,,,,,,,,,,,,,,,,,,,,,,,,,,,,,,,,,,,,,,,,,,,,,,,,,,,,,,,,,,,,,,,,,,,,,,,,,,,,,,,,,0,0,0,0,1,,"[""j""]",[0.6023999999997613],1,"[""j""]",[0.6022999999997865],,,,,,,,,,,,,,,,,,,,,,,,,,,,,,,,,,,,,,,,,,,,,,,,,,,,,,,,,,,,,,,,,,,,,
,,,,740456,001,2023-10-24_21h57.42.833,fluency,2022.2.5,Win32,59.97720866,,,,,,,,,,,,,,,,,,,,,,,8,2,img/B02_08.jpg,CONTROL,Press J as soon as you see a face, ,JK,,,,,,,,,,,,,,,,,,,,,,,,,,,,,,,,6,0.8578,,,,,,,,,,,,,,0,39,39,19,1,,,,,,,,,,,,,space,0.5505,,,,,,,,,,,,,,,,,,,,,,,,,,,,,,,,,,,,,,,,,,,,,,,,,,,,,,,,,,,,,,,,,,,
,,,,740456,001,2023-10-24_21h57.42.833,fluency,2022.2.5,Win32,59.97720866,,,,,,,,,,,,,,,,,,,,,,,5,6,img/B06_05.jpg,CONTROL,Press J as soon as you see a face, ,JK,,,,,,,,,,,,,,,,,,,,,,,,,,,,,,,,,,,,,,,,,,,,,,994.8016,0,40,40,60,1,109,0,0,0,0,1,98,,,,,,,,,,,,,,,,,,,,,,,,,,,,,,,,,,,,,,,,,,,,,,,,,,,,,,,,,,,,,,,,,,,,,,,,,,
,,,,740456,001,2023-10-24_21h57.42.833,fluency,2022.2.5,Win32,59.97720866,,,,,,,,,,,,,,,,,,,,,,,,,,,,,,,,,,,,,,,,,,,,,,,,,,,,,,,,,,,,,,,,,,,,,,,,,,,,,,,,,,0,0,0,0,1,,"[""j""]",[0.7459999999998672],1,"[""j""]",[0.7459999999998672],,,,,,,,,,,,,,,,,,,,,,,,,,,,,,,,,,,,,,,,,,,,,,,,,,,,,,,,,,,,,,,,,,,,,
,,,,740456,001,2023-10-24_21h57.42.833,fluency,2022.2.5,Win32,59.97720866,,,,,,,,,,,,,,,,,,,,,,,5,6,img/B06_05.jpg,CONTROL,Press J as soon as you see a face, ,JK,,,,,,,,,,,,,,,,,,,,,,,,,,,,,,,,5,0.4872,,,,,,,,,,,,,,0,40,40,60,1,,,,,,,,,,,,,space,0.4343,,,,,,,,,,,,,,,,,,,,,,,,,,,,,,,,,,,,,,,,,,,,,,,,,,,,,,,,,,,,,,,,,,,
,,,,740456,001,2023-10-24_21h57.42.833,fluency,2022.2.5,Win32,59.97720866,,,,,,,,,,,,,,,,,,,,,,,3,3,img/B03_03.jpg,CONTROL,Press J as soon as you see a face, ,JK,,,,,,,,,,,,,,,,,,,,,,,,,,,,,,,,,,,,,,,,,,,,,,999.7731,0,41,41,25,1,109,0,0,0,0,1,98,,,,,,,,,,,,,,,,,,,,,,,,,,,,,,,,,,,,,,,,,,,,,,,,,,,,,,,,,,,,,,,,,,,,,,,,,,
,,,,740456,001,2023-10-24_21h57.42.833,fluency,2022.2.5,Win32,59.97720866,,,,,,,,,,,,,,,,,,,,,,,,,,,,,,,,,,,,,,,,,,,,,,,,,,,,,,,,,,,,,,,,,,,,,,,,,,,,,,,,,,0,0,0,0,1,,"[""j""]",[0.8128999999998996],1,"[""j""]",[0.8128999999998996],,,,,,,,,,,,,,,,,,,,,,,,,,,,,,,,,,,,,,,,,,,,,,,,,,,,,,,,,,,,,,,,,,,,,
,,,,740456,001,2023-10-24_21h57.42.833,fluency,2022.2.5,Win32,59.97720866,,,,,,,,,,,,,,,,,,,,,,,3,3,img/B03_03.jpg,CONTROL,Press J as soon as you see a face, ,JK,,,,,,,,,,,,,,,,,,,,,,,,,,,,,,,,4,0.3819,,,,,,,,,,,,,,0,41,41,25,1,,,,,,,,,,,,,space,0.4501,,,,,,,,,,,,,,,,,,,,,,,,,,,,,,,,,,,,,,,,,,,,,,,,,,,,,,,,,,,,,,,,,,,
,,,,740456,001,2023-10-24_21h57.42.833,fluency,2022.2.5,Win32,59.97720866,,,,,,,,,,,,,,,,,,,,,,,10,8,img/B08_10.jpg,CONTROL,Press J as soon as you see a face, ,JK,,,,,,,,,,,,,,,,,,,,,,,,,,,,,,,,,,,,,,,,,,,,,,1005.6784,0,42,42,87,1,109,0,0,0,0,1,98,,,,,,,,,,,,,,,,,,,,,,,,,,,,,,,,,,,,,,,,,,,,,,,,,,,,,,,,,,,,,,,,,,,,,,,,,,
,,,,740456,001,2023-10-24_21h57.42.833,fluency,2022.2.5,Win32,59.97720866,,,,,,,,,,,,,,,,,,,,,,,,,,,,,,,,,,,,,,,,,,,,,,,,,,,,,,,,,,,,,,,,,,,,,,,,,,,,,,,,,,0,0,0,0,1,,"[""j""]",[0.7124999999998636],1,"[""j""]",[0.7124999999998636],,,,,,,,,,,,,,,,,,,,,,,,,,,,,,,,,,,,,,,,,,,,,,,,,,,,,,,,,,,,,,,,,,,,,
,,,,740456,001,2023-10-24_21h57.42.833,fluency,2022.2.5,Win32,59.97720866,,,,,,,,,,,,,,,,,,,,,,,10,8,img/B08_10.jpg,CONTROL,Press J as soon as you see a face, ,JK,,,,,,,,,,,,,,,,,,,,,,,,,,,,,,,,5,0.4911,,,,,,,,,,,,,,0,42,42,87,1,,,,,,,,,,,,,space,0.4513,,,,,,,,,,,,,,,,,,,,,,,,,,,,,,,,,,,,,,,,,,,,,,,,,,,,,,,,,,,,,,,,,,,
,,,,740456,001,2023-10-24_21h57.42.833,fluency,2022.2.5,Win32,59.97720866,,,,,,,,,,,,,,,,,,,,,,,7,2,img/B02_07.jpg,CONTROL,Press J as soon as you see a face, ,JK,,,,,,,,,,,,,,,,,,,,,,,,,,,,,,,,,,,,,,,,,,,,,,1011.6998,0,43,43,18,1,109,0,0,0,0,1,98,,,,,,,,,,,,,,,,,,,,,,,,,,,,,,,,,,,,,,,,,,,,,,,,,,,,,,,,,,,,,,,,,,,,,,,,,,
,,,,740456,001,2023-10-24_21h57.42.833,fluency,2022.2.5,Win32,59.97720866,,,,,,,,,,,,,,,,,,,,,,,,,,,,,,,,,,,,,,,,,,,,,,,,,,,,,,,,,,,,,,,,,,,,,,,,,,,,,,,,,,0,0,0,0,1,,"[""j""]",[0.7977000000003045],1,"[""j"",""7""]","[0.7976000000001022,2.7501999999997224]",,,,,,,,,,,,,,,,,,,,,,,,,,,,,,,,,,,,,,,,,,,,,,,,,,,,,,,,,,,,,,,,,,,,,
,,,,740456,001,2023-10-24_21h57.42.833,fluency,2022.2.5,Win32,59.97720866,,,,,,,,,,,,,,,,,,,,,,,7,2,img/B02_07.jpg,CONTROL,Press J as soon as you see a face, ,JK,,,,,,,,,,,,,,,,,,,,,,,,,,,,,,,,7,1.1156,,,,,,,,,,,,,,0,43,43,18,1,,,,,,,,,,,,,space,0.5517,,,,,,,,,,,,,,,,,,,,,,,,,,,,,,,,,,,,,,,,,,,,,,,,,,,,,,,,,,,,,,,,,,,
,,,,740456,001,2023-10-24_21h57.42.833,fluency,2022.2.5,Win32,59.97720866,,,,,,,,,,,,,,,,,,,,,,,10,7,img/B07_10.jpg,CONTROL,Press J as soon as you see a face, ,JK,,,,,,,,,,,,,,,,,,,,,,,,,,,,,,,,,,,,,,,,,,,,,,1018.43,0,44,44,76,1,109,0,0,0,0,1,98,,,,,,,,,,,,,,,,,,,,,,,,,,,,,,,,,,,,,,,,,,,,,,,,,,,,,,,,,,,,,,,,,,,,,,,,,,
,,,,740456,001,2023-10-24_21h57.42.833,fluency,2022.2.5,Win32,59.97720866,,,,,,,,,,,,,,,,,,,,,,,,,,,,,,,,,,,,,,,,,,,,,,,,,,,,,,,,,,,,,,,,,,,,,,,,,,,,,,,,,,0,0,0,0,1,,"[""j""]",[1.2145000000000437],1,"[""j""]",[1.2144000000000688],,,,,,,,,,,,,,,,,,,,,,,,,,,,,,,,,,,,,,,,,,,,,,,,,,,,,,,,,,,,,,,,,,,,,
,,,,740456,001,2023-10-24_21h57.42.833,fluency,2022.2.5,Win32,59.97720866,,,,,,,,,,,,,,,,,,,,,,,10,7,img/B07_10.jpg,CONTROL,Press J as soon as you see a face, ,JK,,,,,,,,,,,,,,,,,,,,,,,,,,,,,,,,4,0.4203,,,,,,,,,,,,,,0,44,44,76,1,,,,,,,,,,,,,space,0.4736,,,,,,,,,,,,,,,,,,,,,,,,,,,,,,,,,,,,,,,,,,,,,,,,,,,,,,,,,,,,,,,,,,,
,,,,740456,001,2023-10-24_21h57.42.833,fluency,2022.2.5,Win32,59.97720866,,,,,,,,,,,,,,,,,,,,,,,10,3,img/B03_10.jpg,CONTROL,Press J as soon as you see a face, ,JK,,,,,,,,,,,,,,,,,,,,,,,,,,,,,,,,,,,,,,,,,,,,,,1023.4095,0,45,45,32,1,109,0,0,0,0,1,98,,,,,,,,,,,,,,,,,,,,,,,,,,,,,,,,,,,,,,,,,,,,,,,,,,,,,,,,,,,,,,,,,,,,,,,,,,
,,,,740456,001,2023-10-24_21h57.42.833,fluency,2022.2.5,Win32,59.97720866,,,,,,,,,,,,,,,,,,,,,,,,,,,,,,,,,,,,,,,,,,,,,,,,,,,,,,,,,,,,,,,,,,,,,,,,,,,,,,,,,,0,0,0,0,1,,"[""j""]",[0.6820000000000164],1,"[""j""]",[0.6821000000002186],,,,,,,,,,,,,,,,,,,,,,,,,,,,,,,,,,,,,,,,,,,,,,,,,,,,,,,,,,,,,,,,,,,,,
,,,,740456,001,2023-10-24_21h57.42.833,fluency,2022.2.5,Win32,59.97720866,,,,,,,,,,,,,,,,,,,,,,,10,3,img/B03_10.jpg,CONTROL,Press J as soon as you see a face, ,JK,,,,,,,,,,,,,,,,,,,,,,,,,,,,,,,,4,1.3371,,,,,,,,,,,,,,0,45,45,32,1,,,,,,,,,,,,,space,0.6584,,,,,,,,,,,,,,,,,,,,,,,,,,,,,,,,,,,,,,,,,,,,,,,,,,,,,,,,,,,,,,,,,,,
,,,,740456,001,2023-10-24_21h57.42.833,fluency,2022.2.5,Win32,59.97720866,,,,,,,,,,,,,,,,,,,,,,,8,1,img/B01_08.jpg,CONTROL,Press J as soon as you see a face, ,JK,,,,,,,,,,,,,,,,,,,,,,,,,,,,,,,,,,,,,,,,,,,,,,1029.4707,0,46,46,8,1,109,0,0,0,0,1,98,,,,,,,,,,,,,,,,,,,,,,,,,,,,,,,,,,,,,,,,,,,,,,,,,,,,,,,,,,,,,,,,,,,,,,,,,,
,,,,740456,001,2023-10-24_21h57.42.833,fluency,2022.2.5,Win32,59.97720866,,,,,,,,,,,,,,,,,,,,,,,,,,,,,,,,,,,,,,,,,,,,,,,,,,,,,,,,,,,,,,,,,,,,,,,,,,,,,,,,,,0,0,0,0,1,,"[""j""]",[0.8695000000000164],1,"[""j""]",[0.8696000000002186],,,,,,,,,,,,,,,,,,,,,,,,,,,,,,,,,,,,,,,,,,,,,,,,,,,,,,,,,,,,,,,,,,,,,
,,,,740456,001,2023-10-24_21h57.42.833,fluency,2022.2.5,Win32,59.97720866,,,,,,,,,,,,,,,,,,,,,,,8,1,img/B01_08.jpg,CONTROL,Press J as soon as you see a face, ,JK,,,,,,,,,,,,,,,,,,,,,,,,,,,,,,,,6,0.5841,,,,,,,,,,,,,,0,46,46,8,1,,,,,,,,,,,,,space,0.599,,,,,,,,,,,,,,,,,,,,,,,,,,,,,,,,,,,,,,,,,,,,,,,,,,,,,,,,,,,,,,,,,,,
,,,,740456,001,2023-10-24_21h57.42.833,fluency,2022.2.5,Win32,59.97720866,,,,,,,,,,,,,,,,,,,,,,,4,5,img/B05_04.jpg,CONTROL,Press J as soon as you see a face, ,JK,,,,,,,,,,,,,,,,,,,,,,,,,,,,,,,,,,,,,,,,,,,,,,1034.7196,0,47,47,48,1,109,0,0,0,0,1,98,,,,,,,,,,,,,,,,,,,,,,,,,,,,,,,,,,,,,,,,,,,,,,,,,,,,,,,,,,,,,,,,,,,,,,,,,,
,,,,740456,001,2023-10-24_21h57.42.833,fluency,2022.2.5,Win32,59.97720866,,,,,,,,,,,,,,,,,,,,,,,,,,,,,,,,,,,,,,,,,,,,,,,,,,,,,,,,,,,,,,,,,,,,,,,,,,,,,,,,,,0,0,0,0,1,,"[""j""]",[0.9716999999998279],1,"[""j""]",[0.9716999999998279],,,,,,,,,,,,,,,,,,,,,,,,,,,,,,,,,,,,,,,,,,,,,,,,,,,,,,,,,,,,,,,,,,,,,
,,,,740456,001,2023-10-24_21h57.42.833,fluency,2022.2.5,Win32,59.97720866,,,,,,,,,,,,,,,,,,,,,,,4,5,img/B05_04.jpg,CONTROL,Press J as soon as you see a face, ,JK,,,,,,,,,,,,,,,,,,,,,,,,,,,,,,,,4,0.6361,,,,,,,,,,,,,,0,47,47,48,1,,,,,,,,,,,,,space,3.152,,,,,,,,,,,,,,,,,,,,,,,,,,,,,,,,,,,,,,,,,,,,,,,,,,,,,,,,,,,,,,,,,,,
,,,,740456,001,2023-10-24_21h57.42.833,fluency,2022.2.5,Win32,59.97720866,,,,,,,,,,,,,,,,,,,,,,,0,10,img/B10_00.jpg,CONTROL,Press J as soon as you see a face, ,JK,,,,,,,,,,,,,,,,,,,,,,,,,,,,,,,,,,,,,,,,,,,,,,1043.5948,0,48,48,99,1,109,0,0,0,0,1,98,,,,,,,,,,,,,,,,,,,,,,,,,,,,,,,,,,,,,,,,,,,,,,,,,,,,,,,,,,,,,,,,,,,,,,,,,,
,,,,740456,001,2023-10-24_21h57.42.833,fluency,2022.2.5,Win32,59.97720866,,,,,,,,,,,,,,,,,,,,,,,,,,,,,,,,,,,,,,,,,,,,,,,,,,,,,,,,,,,,,,,,,,,,,,,,,,,,,,,,,,0,0,0,0,1,,"[""j""]",[1.397200000000339],1,"[""j""]",[1.3971000000001368],,,,,,,,,,,,,,,,,,,,,,,,,,,,,,,,,,,,,,,,,,,,,,,,,,,,,,,,,,,,,,,,,,,,,
,,,,740456,001,2023-10-24_21h57.42.833,fluency,2022.2.5,Win32,59.97720866,,,,,,,,,,,,,,,,,,,,,,,0,10,img/B10_00.jpg,CONTROL,Press J as soon as you see a face, ,JK,,,,,,,,,,,,,,,,,,,,,,,,,,,,,,,,4,0.7491,,,,,,,,,,,,,,0,48,48,99,1,,,,,,,,,,,,,space,0.4176,,,,,,,,,,,,,,,,,,,,,,,,,,,,,,,,,,,,,,,,,,,,,,,,,,,,,,,,,,,,,,,,,,,
,,,,740456,001,2023-10-24_21h57.42.833,fluency,2022.2.5,Win32,59.97720866,,,,,,,,,,,,,,,,,,,,,,,6,5,img/B05_06.jpg,CONTROL,Press J as soon as you see a face, ,JK,,,,,,,,,,,,,,,,,,,,,,,,,,,,,,,,,,,,,,,,,,,,,,1049.8329,0,49,49,50,1,109,0,0,0,0,1,98,,,,,,,,,,,,,,,,,,,,,,,,,,,,,,,,,,,,,,,,,,,,,,,,,,,,,,,,,,,,,,,,,,,,,,,,,,
,,,,740456,001,2023-10-24_21h57.42.833,fluency,2022.2.5,Win32,59.97720866,,,,,,,,,,,,,,,,,,,,,,,,,,,,,,,,,,,,,,,,,,,,,,,,,,,,,,,,,,,,,,,,,,,,,,,,,,,,,,,,,,0,0,0,0,1,,"[""j""]",[0.7302000000001954],1,"[""j""]",[0.7303000000001703],,,,,,,,,,,,,,,,,,,,,,,,,,,,,,,,,,,,,,,,,,,,,,,,,,,,,,,,,,,,,,,,,,,,,
,,,,740456,001,2023-10-24_21h57.42.833,fluency,2022.2.5,Win32,59.97720866,,,,,,,,,,,,,,,,,,,,,,,6,5,img/B05_06.jpg,CONTROL,Press J as soon as you see a face, ,JK,,,,,,,,,,,,,,,,,,,,,,,,,,,,,,,,4,0.0151,,,,,,,,,,,,,,0,49,49,50,1,,,,,,,,,,,,,space,1.2568,,,,,,,,,,,,,,,,,,,,,,,,,,,,,,,,,,,,,,,,,,,,,,,,,,,,,,,,,,,,,,,,,,,
,,,,740456,001,2023-10-24_21h57.42.833,fluency,2022.2.5,Win32,59.97720866,,,,,,,,,,,,,,,,,,,,,,,6,4,img/B04_06.jpg,CONTROL,Press J as soon as you see a face, ,JK,,,,,,,,,,,,,,,,,,,,,,,,,,,,,,,,,,,,,,,,,,,,,,1056.172,0,50,50,39,1,109,0,0,0,0,1,98,,,,,,,,,,,,,,,,,,,,,,,,,,,,,,,,,,,,,,,,,,,,,,,,,,,,,,,,,,,,,,,,,,,,,,,,,,
,,,,740456,001,2023-10-24_21h57.42.833,fluency,2022.2.5,Win32,59.97720866,,,,,,,,,,,,,,,,,,,,,,,,,,,,,,,,,,,,,,,,,,,,,,,,,,,,,,,,,,,,,,,,,,,,,,,,,,,,,,,,,,0,0,0,0,1,,"[""j""]",[0.40120000000024447],1,"[""j""]",[0.40120000000024447],,,,,,,,,,,,,,,,,,,,,,,,,,,,,,,,,,,,,,,,,,,,,,,,,,,,,,,,,,,,,,,,,,,,,
,,,,740456,001,2023-10-24_21h57.42.833,fluency,2022.2.5,Win32,59.97720866,,,,,,,,,,,,,,,,,,,,,,,6,4,img/B04_06.jpg,CONTROL,Press J as soon as you see a face, ,JK,,,,,,,,,,,,,,,,,,,,,,,,,,,,,,,,5,0.518,,,,,,,,,,,,,,0,50,50,39,1,,,,,,,,,,,,,space,0.6043,,,,,,,,,,,,,,,,,,,,,,,,,,,,,,,,,,,,,,,,,,,,,,,,,,,,,,,,,,,,,,,,,,,
,,,,740456,001,2023-10-24_21h57.42.833,fluency,2022.2.5,Win32,59.97720866,,,,,,,,,,,,,,,,,,,,,,,6,9,img/B09_06.jpg,CONTROL,Press J as soon as you see a face, ,JK,,,,,,,,,,,,,,,,,,,,,,,,,,,,,,,,,,,,,,,,,,,,,,1062.3608,0,51,51,94,1,109,0,0,0,0,1,98,,,,,,,,,,,,,,,,,,,,,,,,,,,,,,,,,,,,,,,,,,,,,,,,,,,,,,,,,,,,,,,,,,,,,,,,,,
,,,,740456,001,2023-10-24_21h57.42.833,fluency,2022.2.5,Win32,59.97720866,,,,,,,,,,,,,,,,,,,,,,,,,,,,,,,,,,,,,,,,,,,,,,,,,,,,,,,,,,,,,,,,,,,,,,,,,,,,,,,,,,0,0,0,0,1,,"[""j""]",[0.6152000000001863],1,"[""j""]",[0.6151000000002114],,,,,,,,,,,,,,,,,,,,,,,,,,,,,,,,,,,,,,,,,,,,,,,,,,,,,,,,,,,,,,,,,,,,,
,,,,740456,001,2023-10-24_21h57.42.833,fluency,2022.2.5,Win32,59.97720866,,,,,,,,,,,,,,,,,,,,,,,6,9,img/B09_06.jpg,CONTROL,Press J as soon as you see a face, ,JK,,,,,,,,,,,,,,,,,,,,,,,,,,,,,,,,7,0.3801,,,,,,,,,,,,,,0,51,51,94,1,,,,,,,,,,,,,space,0.9229,,,,,,,,,,,,,,,,,,,,,,,,,,,,,,,,,,,,,,,,,,,,,,,,,,,,,,,,,,,,,,,,,,,
,,,,740456,001,2023-10-24_21h57.42.833,fluency,2022.2.5,Win32,59.97720866,,,,,,,,,,,,,,,,,,,,,,,10,9,img/B09_10.jpg,CONTROL,Press J as soon as you see a face, ,JK,,,,,,,,,,,,,,,,,,,,,,,,,,,,,,,,,,,,,,,,,,,,,,1067.7321,0,52,52,98,1,109,0,0,0,0,1,98,,,,,,,,,,,,,,,,,,,,,,,,,,,,,,,,,,,,,,,,,,,,,,,,,,,,,,,,,,,,,,,,,,,,,,,,,,
,,,,740456,001,2023-10-24_21h57.42.833,fluency,2022.2.5,Win32,59.97720866,,,,,,,,,,,,,,,,,,,,,,,,,,,,,,,,,,,,,,,,,,,,,,,,,,,,,,,,,,,,,,,,,,,,,,,,,,,,,,,,,,0,0,0,0,1,,"[""j""]",[0.671100000000024],1,"[""j""]",[0.671100000000024],,,,,,,,,,,,,,,,,,,,,,,,,,,,,,,,,,,,,,,,,,,,,,,,,,,,,,,,,,,,,,,,,,,,,
,,,,740456,001,2023-10-24_21h57.42.833,fluency,2022.2.5,Win32,59.97720866,,,,,,,,,,,,,,,,,,,,,,,10,9,img/B09_10.jpg,CONTROL,Press J as soon as you see a face, ,JK,,,,,,,,,,,,,,,,,,,,,,,,,,,,,,,,5,0.5948,,,,,,,,,,,,,,0,52,52,98,1,,,,,,,,,,,,,space,1.5716,,,,,,,,,,,,,,,,,,,,,,,,,,,,,,,,,,,,,,,,,,,,,,,,,,,,,,,,,,,,,,,,,,,
,,,,740456,001,2023-10-24_21h57.42.833,fluency,2022.2.5,Win32,59.97720866,,,,,,,,,,,,,,,,,,,,,,,2,7,img/B07_02.jpg,CONTROL,Press J as soon as you see a face, ,JK,,,,,,,,,,,,,,,,,,,,,,,,,,,,,,,,,,,,,,,,,,,,,,1073.9875,0,53,53,68,1,109,0,0,0,0,1,98,,,,,,,,,,,,,,,,,,,,,,,,,,,,,,,,,,,,,,,,,,,,,,,,,,,,,,,,,,,,,,,,,,,,,,,,,,
,,,,740456,001,2023-10-24_21h57.42.833,fluency,2022.2.5,Win32,59.97720866,,,,,,,,,,,,,,,,,,,,,,,,,,,,,,,,,,,,,,,,,,,,,,,,,,,,,,,,,,,,,,,,,,,,,,,,,,,,,,,,,,0,0,0,0,1,,"[""j""]",[1.8898999999998978],1,"[""j""]",[1.8899999999998727],,,,,,,,,,,,,,,,,,,,,,,,,,,,,,,,,,,,,,,,,,,,,,,,,,,,,,,,,,,,,,,,,,,,,
,,,,740456,001,2023-10-24_21h57.42.833,fluency,2022.2.5,Win32,59.97720866,,,,,,,,,,,,,,,,,,,,,,,2,7,img/B07_02.jpg,CONTROL,Press J as soon as you see a face, ,JK,,,,,,,,,,,,,,,,,,,,,,,,,,,,,,,,4,3.6734,,,,,,,,,,,,,,0,53,53,68,1,,,,,,,,,,,,,space,1.6866,,,,,,,,,,,,,,,,,,,,,,,,,,,,,,,,,,,,,,,,,,,,,,,,,,,,,,,,,,,,,,,,,,,
,,,,740456,001,2023-10-24_21h57.42.833,fluency,2022.2.5,Win32,59.97720866,,,,,,,,,,,,,,,,,,,,,,,8,8,img/B08_08.jpg,CONTROL,Press J as soon as you see a face, ,JK,,,,,,,,,,,,,,,,,,,,,,,,,,,,,,,,,,,,,,,,,,,,,,1084.4148,0,54,54,85,1,109,0,0,0,0,1,98,,,,,,,,,,,,,,,,,,,,,,,,,,,,,,,,,,,,,,,,,,,,,,,,,,,,,,,,,,,,,,,,,,,,,,,,,,
,,,,740456,001,2023-10-24_21h57.42.833,fluency,2022.2.5,Win32,59.97720866,,,,,,,,,,,,,,,,,,,,,,,,,,,,,,,,,,,,,,,,,,,,,,,,,,,,,,,,,,,,,,,,,,,,,,,,,,,,,,,,,,0,0,0,0,1,,"[""j""]",[0.9623999999998887],1,"[""j""]",[0.9622000000001663],,,,,,,,,,,,,,,,,,,,,,,,,,,,,,,,,,,,,,,,,,,,,,,,,,,,,,,,,,,,,,,,,,,,,
,,,,740456,001,2023-10-24_21h57.42.833,fluency,2022.2.5,Win32,59.97720866,,,,,,,,,,,,,,,,,,,,,,,8,8,img/B08_08.jpg,CONTROL,Press J as soon as you see a face, ,JK,,,,,,,,,,,,,,,,,,,,,,,,,,,,,,,,5,0.5679,,,,,,,,,,,,,,0,54,54,85,1,,,,,,,,,,,,,space,0.4295,,,,,,,,,,,,,,,,,,,,,,,,,,,,,,,,,,,,,,,,,,,,,,,,,,,,,,,,,,,,,,,,,,,
,,,,740456,001,2023-10-24_21h57.42.833,fluency,2022.2.5,Win32,59.97720866,,,,,,,,,,,,,,,,,,,,,,,7,8,img/B08_07.jpg,CONTROL,Press J as soon as you see a face, ,JK,,,,,,,,,,,,,,,,,,,,,,,,,,,,,,,,,,,,,,,,,,,,,,1089.4687,0,55,55,84,1,109,0,0,0,0,1,98,,,,,,,,,,,,,,,,,,,,,,,,,,,,,,,,,,,,,,,,,,,,,,,,,,,,,,,,,,,,,,,,,,,,,,,,,,
,,,,740456,001,2023-10-24_21h57.42.833,fluency,2022.2.5,Win32,59.97720866,,,,,,,,,,,,,,,,,,,,,,,,,,,,,,,,,,,,,,,,,,,,,,,,,,,,,,,,,,,,,,,,,,,,,,,,,,,,,,,,,,0,0,0,0,1,,"[""j""]",[1.980600000000095],1,"[""j""]",[1.980600000000095],,,,,,,,,,,,,,,,,,,,,,,,,,,,,,,,,,,,,,,,,,,,,,,,,,,,,,,,,,,,,,,,,,,,,
,,,,740456,001,2023-10-24_21h57.42.833,fluency,2022.2.5,Win32,59.97720866,,,,,,,,,,,,,,,,,,,,,,,7,8,img/B08_07.jpg,CONTROL,Press J as soon as you see a face, ,JK,,,,,,,,,,,,,,,,,,,,,,,,,,,,,,,,5,0.6549,,,,,,,,,,,,,,0,55,55,84,1,,,,,,,,,,,,,space,25.5891,,,,,,,,,,,,,,,,,,,,,,,,,,,,,,,,,,,,,,,,,,,,,,,,,,,,,,,,,,,,,,,,,,,
,,,,740456,001,2023-10-24_21h57.42.833,fluency,2022.2.5,Win32,59.97720866,,,,,,,,,,,,,,,,,,,,,,,0,5,img/B05_00.jpg,CONTROL,Press J as soon as you see a face, ,JK,,,,,,,,,,,,,,,,,,,,,,,,,,,,,,,,,,,,,,,,,,,,,,1119.7711,0,56,56,44,1,109,0,0,0,0,1,98,,,,,,,,,,,,,,,,,,,,,,,,,,,,,,,,,,,,,,,,,,,,,,,,,,,,,,,,,,,,,,,,,,,,,,,,,,
,,,,740456,001,2023-10-24_21h57.42.833,fluency,2022.2.5,Win32,59.97720866,,,,,,,,,,,,,,,,,,,,,,,,,,,,,,,,,,,,,,,,,,,,,,,,,,,,,,,,,,,,,,,,,,,,,,,,,,,,,,,,,,0,0,0,0,1,,"[""j""]",[0.9664999999999964],1,"[""j""]",[0.9665999999999713],,,,,,,,,,,,,,,,,,,,,,,,,,,,,,,,,,,,,,,,,,,,,,,,,,,,,,,,,,,,,,,,,,,,,
,,,,740456,001,2023-10-24_21h57.42.833,fluency,2022.2.5,Win32,59.97720866,,,,,,,,,,,,,,,,,,,,,,,0,5,img/B05_00.jpg,CONTROL,Press J as soon as you see a face, ,JK,,,,,,,,,,,,,,,,,,,,,,,,,,,,,,,,4,3.0203,,,,,,,,,,,,,,0,56,56,44,1,,,,,,,,,,,,,space,2.8536,,,,,,,,,,,,,,,,,,,,,,,,,,,,,,,,,,,,,,,,,,,,,,,,,,,,,,,,,,,,,,,,,,,
,,,,740456,001,2023-10-24_21h57.42.833,fluency,2022.2.5,Win32,59.97720866,,,,,,,,,,,,,,,,,,,,,,,6,7,img/B07_06.jpg,CONTROL,Press J as soon as you see a face, ,JK,,,,,,,,,,,,,,,,,,,,,,,,,,,,,,,,,,,,,,,,,,,,,,1129.6958,0,57,57,72,1,109,0,0,0,0,1,98,,,,,,,,,,,,,,,,,,,,,,,,,,,,,,,,,,,,,,,,,,,,,,,,,,,,,,,,,,,,,,,,,,,,,,,,,,
,,,,740456,001,2023-10-24_21h57.42.833,fluency,2022.2.5,Win32,59.97720866,,,,,,,,,,,,,,,,,,,,,,,,,,,,,,,,,,,,,,,,,,,,,,,,,,,,,,,,,,,,,,,,,,,,,,,,,,,,,,,,,,0,0,0,0,1,,"[""j""]",[1.5670999999999822],1,"[""j""]",[1.5670999999999822],,,,,,,,,,,,,,,,,,,,,,,,,,,,,,,,,,,,,,,,,,,,,,,,,,,,,,,,,,,,,,,,,,,,,
,,,,740456,001,2023-10-24_21h57.42.833,fluency,2022.2.5,Win32,59.97720866,,,,,,,,,,,,,,,,,,,,,,,6,7,img/B07_06.jpg,CONTROL,Press J as soon as you see a face, ,JK,,,,,,,,,,,,,,,,,,,,,,,,,,,,,,,,7,1.3841,,,,,,,,,,,,,,0,57,57,72,1,,,,,,,,,,,,,space,5.017,,,,,,,,,,,,,,,,,,,,,,,,,,,,,,,,,,,,,,,,,,,,,,,,,,,,,,,,,,,,,,,,,,,
,,,,740456,001,2023-10-24_21h57.42.833,fluency,2022.2.5,Win32,59.97720866,,,,,,,,,,,,,,,,,,,,,,,3,2,img/B02_03.jpg,CONTROL,Press J as soon as you see a face, ,JK,,,,,,,,,,,,,,,,,,,,,,,,,,,,,,,,,,,,,,,,,,,,,,1140.1795,0,58,58,14,1,109,0,0,0,0,1,98,,,,,,,,,,,,,,,,,,,,,,,,,,,,,,,,,,,,,,,,,,,,,,,,,,,,,,,,,,,,,,,,,,,,,,,,,,
,,,,740456,001,2023-10-24_21h57.42.833,fluency,2022.2.5,Win32,59.97720866,,,,,,,,,,,,,,,,,,,,,,,,,,,,,,,,,,,,,,,,,,,,,,,,,,,,,,,,,,,,,,,,,,,,,,,,,,,,,,,,,,0,0,0,0,1,,"[""j""]",[1.5976999999998043],1,"[""j""]",[1.5976999999998043],,,,,,,,,,,,,,,,,,,,,,,,,,,,,,,,,,,,,,,,,,,,,,,,,,,,,,,,,,,,,,,,,,,,,
,,,,740456,001,2023-10-24_21h57.42.833,fluency,2022.2.5,Win32,59.97720866,,,,,,,,,,,,,,,,,,,,,,,3,2,img/B02_03.jpg,CONTROL,Press J as soon as you see a face, ,JK,,,,,,,,,,,,,,,,,,,,,,,,,,,,,,,,6,3.0762,,,,,,,,,,,,,,0,58,58,14,1,,,,,,,,,,,,,space,0.7345,,,,,,,,,,,,,,,,,,,,,,,,,,,,,,,,,,,,,,,,,,,,,,,,,,,,,,,,,,,,,,,,,,,
,,,,740456,001,2023-10-24_21h57.42.833,fluency,2022.2.5,Win32,59.97720866,,,,,,,,,,,,,,,,,,,,,,,6,1,img/B01_06.jpg,CONTROL,Press J as soon as you see a face, ,JK,,,,,,,,,,,,,,,,,,,,,,,,,,,,,,,,,,,,,,,,,,,,,,1149.0539,0,59,59,6,1,109,0,0,0,0,1,98,,,,,,,,,,,,,,,,,,,,,,,,,,,,,,,,,,,,,,,,,,,,,,,,,,,,,,,,,,,,,,,,,,,,,,,,,,
,,,,740456,001,2023-10-24_21h57.42.833,fluency,2022.2.5,Win32,59.97720866,,,,,,,,,,,,,,,,,,,,,,,,,,,,,,,,,,,,,,,,,,,,,,,,,,,,,,,,,,,,,,,,,,,,,,,,,,,,,,,,,,0,0,0,0,1,,"[""j""]",[0.6756000000000313],1,"[""j""]",[0.6756999999997788],,,,,,,,,,,,,,,,,,,,,,,,,,,,,,,,,,,,,,,,,,,,,,,,,,,,,,,,,,,,,,,,,,,,,
,,,,740456,001,2023-10-24_21h57.42.833,fluency,2022.2.5,Win32,59.97720866,,,,,,,,,,,,,,,,,,,,,,,6,1,img/B01_06.jpg,CONTROL,Press J as soon as you see a face, ,JK,,,,,,,,,,,,,,,,,,,,,,,,,,,,,,,,7,0.3394,,,,,,,,,,,,,,0,59,59,6,1,,,,,,,,,,,,,space,0.7009,,,,,,,,,,,,,,,,,,,,,,,,,,,,,,,,,,,,,,,,,,,,,,,,,,,,,,,,,,,,,,,,,,,
,,,,740456,001,2023-10-24_21h57.42.833,fluency,2022.2.5,Win32,59.97720866,,,,,,,,,,,,,,,,,,,,,,,10,2,img/B02_10.jpg,CONTROL,Press J as soon as you see a face, ,JK,,,,,,,,,,,,,,,,,,,,,,,,,,,,,,,,,,,,,,,,,,,,,,1155.1427,0,60,60,21,1,109,0,0,0,0,1,98,,,,,,,,,,,,,,,,,,,,,,,,,,,,,,,,,,,,,,,,,,,,,,,,,,,,,,,,,,,,,,,,,,,,,,,,,,
,,,,740456,001,2023-10-24_21h57.42.833,fluency,2022.2.5,Win32,59.97720866,,,,,,,,,,,,,,,,,,,,,,,,,,,,,,,,,,,,,,,,,,,,,,,,,,,,,,,,,,,,,,,,,,,,,,,,,,,,,,,,,,0,0,0,0,1,,"[""j""]",[0.6335999999996602],1,"[""j""]",[0.6335999999996602],,,,,,,,,,,,,,,,,,,,,,,,,,,,,,,,,,,,,,,,,,,,,,,,,,,,,,,,,,,,,,,,,,,,,
,,,,740456,001,2023-10-24_21h57.42.833,fluency,2022.2.5,Win32,59.97720866,,,,,,,,,,,,,,,,,,,,,,,10,2,img/B02_10.jpg,CONTROL,Press J as soon as you see a face, ,JK,,,,,,,,,,,,,,,,,,,,,,,,,,,,,,,,6,0.5021,,,,,,,,,,,,,,0,60,60,21,1,,,,,,,,,,,,,space,0.4729,,,,,,,,,,,,,,,,,,,,,,,,,,,,,,,,,,,,,,,,,,,,,,,,,,,,,,,,,,,,,,,,,,,
,,,,740456,001,2023-10-24_21h57.42.833,fluency,2022.2.5,Win32,59.97720866,,,,,,,,,,,,,,,,,,,,,,,0,8,img/B08_00.jpg,CONTROL,Press J as soon as you see a face, ,JK,,,,,,,,,,,,,,,,,,,,,,,,,,,,,,,,,,,,,,,,,,,,,,1160.1637,0,61,61,77,1,109,0,0,0,0,1,98,,,,,,,,,,,,,,,,,,,,,,,,,,,,,,,,,,,,,,,,,,,,,,,,,,,,,,,,,,,,,,,,,,,,,,,,,,
,,,,740456,001,2023-10-24_21h57.42.833,fluency,2022.2.5,Win32,59.97720866,,,,,,,,,,,,,,,,,,,,,,,,,,,,,,,,,,,,,,,,,,,,,,,,,,,,,,,,,,,,,,,,,,,,,,,,,,,,,,,,,,0,0,0,0,1,,"[""j""]",[1.3470999999995001],1,"[""j""]",[1.3470999999995001],,,,,,,,,,,,,,,,,,,,,,,,,,,,,,,,,,,,,,,,,,,,,,,,,,,,,,,,,,,,,,,,,,,,,
,,,,740456,001,2023-10-24_21h57.42.833,fluency,2022.2.5,Win32,59.97720866,,,,,,,,,,,,,,,,,,,,,,,0,8,img/B08_00.jpg,CONTROL,Press J as soon as you see a face, ,JK,,,,,,,,,,,,,,,,,,,,,,,,,,,,,,,,4,1.248,,,,,,,,,,,,,,0,61,61,77,1,,,,,,,,,,,,,space,0.4513,,,,,,,,,,,,,,,,,,,,,,,,,,,,,,,,,,,,,,,,,,,,,,,,,,,,,,,,,,,,,,,,,,,
,,,,740456,001,2023-10-24_21h57.42.833,fluency,2022.2.5,Win32,59.97720866,,,,,,,,,,,,,,,,,,,,,,,7,9,img/B09_07.jpg,CONTROL,Press J as soon as you see a face, ,JK,,,,,,,,,,,,,,,,,,,,,,,,,,,,,,,,,,,,,,,,,,,,,,1165.9024,0,62,62,95,1,109,0,0,0,0,1,98,,,,,,,,,,,,,,,,,,,,,,,,,,,,,,,,,,,,,,,,,,,,,,,,,,,,,,,,,,,,,,,,,,,,,,,,,,
,,,,740456,001,2023-10-24_21h57.42.833,fluency,2022.2.5,Win32,59.97720866,,,,,,,,,,,,,,,,,,,,,,,,,,,,,,,,,,,,,,,,,,,,,,,,,,,,,,,,,,,,,,,,,,,,,,,,,,,,,,,,,,0,0,0,0,1,,"[""j""]",[0.917299999999841],1,"[""j""]",[0.9171999999998661],,,,,,,,,,,,,,,,,,,,,,,,,,,,,,,,,,,,,,,,,,,,,,,,,,,,,,,,,,,,,,,,,,,,,
,,,,740456,001,2023-10-24_21h57.42.833,fluency,2022.2.5,Win32,59.97720866,,,,,,,,,,,,,,,,,,,,,,,7,9,img/B09_07.jpg,CONTROL,Press J as soon as you see a face, ,JK,,,,,,,,,,,,,,,,,,,,,,,,,,,,,,,,7,0.4383,,,,,,,,,,,,,,0,62,62,95,1,,,,,,,,,,,,,space,0.4179,,,,,,,,,,,,,,,,,,,,,,,,,,,,,,,,,,,,,,,,,,,,,,,,,,,,,,,,,,,,,,,,,,,
,,,,740456,001,2023-10-24_21h57.42.833,fluency,2022.2.5,Win32,59.97720866,,,,,,,,,,,,,,,,,,,,,,,7,3,img/B03_07.jpg,CONTROL,Press J as soon as you see a face, ,JK,,,,,,,,,,,,,,,,,,,,,,,,,,,,,,,,,,,,,,,,,,,,,,1170.8231,0,63,63,29,1,109,0,0,0,0,1,98,,,,,,,,,,,,,,,,,,,,,,,,,,,,,,,,,,,,,,,,,,,,,,,,,,,,,,,,,,,,,,,,,,,,,,,,,,
,,,,740456,001,2023-10-24_21h57.42.833,fluency,2022.2.5,Win32,59.97720866,,,,,,,,,,,,,,,,,,,,,,,,,,,,,,,,,,,,,,,,,,,,,,,,,,,,,,,,,,,,,,,,,,,,,,,,,,,,,,,,,,0,0,0,0,1,,"[""j""]",[0.9915999999996075],1,"[""j""]",[0.9915000000000873],,,,,,,,,,,,,,,,,,,,,,,,,,,,,,,,,,,,,,,,,,,,,,,,,,,,,,,,,,,,,,,,,,,,,
,,,,740456,001,2023-10-24_21h57.42.833,fluency,2022.2.5,Win32,59.97720866,,,,,,,,,,,,,,,,,,,,,,,7,3,img/B03_07.jpg,CONTROL,Press J as soon as you see a face, ,JK,,,,,,,,,,,,,,,,,,,,,,,,,,,,,,,,5,0.7656,,,,,,,,,,,,,,0,63,63,29,1,,,,,,,,,,,,,space,0.3513,,,,,,,,,,,,,,,,,,,,,,,,,,,,,,,,,,,,,,,,,,,,,,,,,,,,,,,,,,,,,,,,,,,
,,,,740456,001,2023-10-24_21h57.42.833,fluency,2022.2.5,Win32,59.97720866,,,,,,,,,,,,,,,,,,,,,,,3,8,img/B08_03.jpg,CONTROL,Press J as soon as you see a face, ,JK,,,,,,,,,,,,,,,,,,,,,,,,,,,,,,,,,,,,,,,,,,,,,,1176.9953,0,64,64,80,1,109,0,0,0,0,1,98,,,,,,,,,,,,,,,,,,,,,,,,,,,,,,,,,,,,,,,,,,,,,,,,,,,,,,,,,,,,,,,,,,,,,,,,,,
,,,,740456,001,2023-10-24_21h57.42.833,fluency,2022.2.5,Win32,59.97720866,,,,,,,,,,,,,,,,,,,,,,,,,,,,,,,,,,,,,,,,,,,,,,,,,,,,,,,,,,,,,,,,,,,,,,,,,,,,,,,,,,0,0,0,0,1,,"[""j""]",[0.6504999999999654],1,"[""j""]",[0.6504999999999654],,,,,,,,,,,,,,,,,,,,,,,,,,,,,,,,,,,,,,,,,,,,,,,,,,,,,,,,,,,,,,,,,,,,,
,,,,740456,001,2023-10-24_21h57.42.833,fluency,2022.2.5,Win32,59.97720866,,,,,,,,,,,,,,,,,,,,,,,3,8,img/B08_03.jpg,CONTROL,Press J as soon as you see a face, ,JK,,,,,,,,,,,,,,,,,,,,,,,,,,,,,,,,4,0.4491,,,,,,,,,,,,,,0,64,64,80,1,,,,,,,,,,,,,space,0.3673,,,,,,,,,,,,,,,,,,,,,,,,,,,,,,,,,,,,,,,,,,,,,,,,,,,,,,,,,,,,,,,,,,,
,,,,740456,001,2023-10-24_21h57.42.833,fluency,2022.2.5,Win32,59.97720866,,,,,,,,,,,,,,,,,,,,,,,1,1,img/B01_01.jpg,CONTROL,Press J as soon as you see a face, ,JK,,,,,,,,,,,,,,,,,,,,,,,,,,,,,,,,,,,,,,,,,,,,,,1182.8587,0,65,65,1,1,109,0,0,0,0,1,98,,,,,,,,,,,,,,,,,,,,,,,,,,,,,,,,,,,,,,,,,,,,,,,,,,,,,,,,,,,,,,,,,,,,,,,,,,
,,,,740456,001,2023-10-24_21h57.42.833,fluency,2022.2.5,Win32,59.97720866,,,,,,,,,,,,,,,,,,,,,,,,,,,,,,,,,,,,,,,,,,,,,,,,,,,,,,,,,,,,,,,,,,,,,,,,,,,,,,,,,,0,0,0,0,1,,"[""j""]",[0.9845000000000255],1,"[""j""]",[0.9843999999998232],,,,,,,,,,,,,,,,,,,,,,,,,,,,,,,,,,,,,,,,,,,,,,,,,,,,,,,,,,,,,,,,,,,,,
,,,,740456,001,2023-10-24_21h57.42.833,fluency,2022.2.5,Win32,59.97720866,,,,,,,,,,,,,,,,,,,,,,,1,1,img/B01_01.jpg,CONTROL,Press J as soon as you see a face, ,JK,,,,,,,,,,,,,,,,,,,,,,,,,,,,,,,,5,0.4658,,,,,,,,,,,,,,0,65,65,1,1,,,,,,,,,,,,,space,0.3228,,,,,,,,,,,,,,,,,,,,,,,,,,,,,,,,,,,,,,,,,,,,,,,,,,,,,,,,,,,,,,,,,,,
,,,,740456,001,2023-10-24_21h57.42.833,fluency,2022.2.5,Win32,59.97720866,,,,,,,,,,,,,,,,,,,,,,,4,6,img/B06_04.jpg,CONTROL,Press J as soon as you see a face, ,JK,,,,,,,,,,,,,,,,,,,,,,,,,,,,,,,,,,,,,,,,,,,,,,1187.7215,0,66,66,59,1,109,0,0,0,0,1,98,,,,,,,,,,,,,,,,,,,,,,,,,,,,,,,,,,,,,,,,,,,,,,,,,,,,,,,,,,,,,,,,,,,,,,,,,,
,,,,740456,001,2023-10-24_21h57.42.833,fluency,2022.2.5,Win32,59.97720866,,,,,,,,,,,,,,,,,,,,,,,,,,,,,,,,,,,,,,,,,,,,,,,,,,,,,,,,,,,,,,,,,,,,,,,,,,,,,,,,,,0,0,0,0,1,,"[""j""]",[0.9313999999999396],1,"[""j""]",[0.9313999999999396],,,,,,,,,,,,,,,,,,,,,,,,,,,,,,,,,,,,,,,,,,,,,,,,,,,,,,,,,,,,,,,,,,,,,
,,,,740456,001,2023-10-24_21h57.42.833,fluency,2022.2.5,Win32,59.97720866,,,,,,,,,,,,,,,,,,,,,,,4,6,img/B06_04.jpg,CONTROL,Press J as soon as you see a face, ,JK,,,,,,,,,,,,,,,,,,,,,,,,,,,,,,,,4,0.4339,,,,,,,,,,,,,,0,66,66,59,1,,,,,,,,,,,,,space,0.3294,,,,,,,,,,,,,,,,,,,,,,,,,,,,,,,,,,,,,,,,,,,,,,,,,,,,,,,,,,,,,,,,,,,
,,,,740456,001,2023-10-24_21h57.42.833,fluency,2022.2.5,Win32,59.97720866,,,,,,,,,,,,,,,,,,,,,,,1,6,img/B06_01.jpg,CONTROL,Press J as soon as you see a face, ,JK,,,,,,,,,,,,,,,,,,,,,,,,,,,,,,,,,,,,,,,,,,,,,,1192.5256,0,67,67,56,1,109,0,0,0,0,1,98,,,,,,,,,,,,,,,,,,,,,,,,,,,,,,,,,,,,,,,,,,,,,,,,,,,,,,,,,,,,,,,,,,,,,,,,,,
,,,,740456,001,2023-10-24_21h57.42.833,fluency,2022.2.5,Win32,59.97720866,,,,,,,,,,,,,,,,,,,,,,,,,,,,,,,,,,,,,,,,,,,,,,,,,,,,,,,,,,,,,,,,,,,,,,,,,,,,,,,,,,0,0,0,0,1,,"[""j""]",[0.6818999999998141],1,"[""j""]",[0.6818999999998141],,,,,,,,,,,,,,,,,,,,,,,,,,,,,,,,,,,,,,,,,,,,,,,,,,,,,,,,,,,,,,,,,,,,,
,,,,740456,001,2023-10-24_21h57.42.833,fluency,2022.2.5,Win32,59.97720866,,,,,,,,,,,,,,,,,,,,,,,1,6,img/B06_01.jpg,CONTROL,Press J as soon as you see a face, ,JK,,,,,,,,,,,,,,,,,,,,,,,,,,,,,,,,4,0.4325,,,,,,,,,,,,,,0,67,67,56,1,,,,,,,,,,,,,space,0.3699,,,,,,,,,,,,,,,,,,,,,,,,,,,,,,,,,,,,,,,,,,,,,,,,,,,,,,,,,,,,,,,,,,,
,,,,740456,001,2023-10-24_21h57.42.833,fluency,2022.2.5,Win32,59.97720866,,,,,,,,,,,,,,,,,,,,,,,7,10,img/B10_07.jpg,CONTROL,Press J as soon as you see a face, ,JK,,,,,,,,,,,,,,,,,,,,,,,,,,,,,,,,,,,,,,,,,,,,,,1197.3967,0,68,68,106,1,109,0,0,0,0,1,98,,,,,,,,,,,,,,,,,,,,,,,,,,,,,,,,,,,,,,,,,,,,,,,,,,,,,,,,,,,,,,,,,,,,,,,,,,
,,,,740456,001,2023-10-24_21h57.42.833,fluency,2022.2.5,Win32,59.97720866,,,,,,,,,,,,,,,,,,,,,,,,,,,,,,,,,,,,,,,,,,,,,,,,,,,,,,,,,,,,,,,,,,,,,,,,,,,,,,,,,,0,0,0,0,1,,"[""j""]",[0.7667999999998756],1,"[""j""]",[0.7667999999998756],,,,,,,,,,,,,,,,,,,,,,,,,,,,,,,,,,,,,,,,,,,,,,,,,,,,,,,,,,,,,,,,,,,,,
,,,,740456,001,2023-10-24_21h57.42.833,fluency,2022.2.5,Win32,59.97720866,,,,,,,,,,,,,,,,,,,,,,,7,10,img/B10_07.jpg,CONTROL,Press J as soon as you see a face, ,JK,,,,,,,,,,,,,,,,,,,,,,,,,,,,,,,,4,0.9839,,,,,,,,,,,,,,0,68,68,106,1,,,,,,,,,,,,,space,0.4489,,,,,,,,,,,,,,,,,,,,,,,,,,,,,,,,,,,,,,,,,,,,,,,,,,,,,,,,,,,,,,,,,,,
,,,,740456,001,2023-10-24_21h57.42.833,fluency,2022.2.5,Win32,59.97720866,,,,,,,,,,,,,,,,,,,,,,,0,9,img/B09_00.jpg,CONTROL,Press J as soon as you see a face, ,JK,,,,,,,,,,,,,,,,,,,,,,,,,,,,,,,,,,,,,,,,,,,,,,1202.8683,0,69,69,88,1,109,0,0,0,0,1,98,,,,,,,,,,,,,,,,,,,,,,,,,,,,,,,,,,,,,,,,,,,,,,,,,,,,,,,,,,,,,,,,,,,,,,,,,,
,,,,740456,001,2023-10-24_21h57.42.833,fluency,2022.2.5,Win32,59.97720866,,,,,,,,,,,,,,,,,,,,,,,,,,,,,,,,,,,,,,,,,,,,,,,,,,,,,,,,,,,,,,,,,,,,,,,,,,,,,,,,,,0,0,0,0,1,,"[""j""]",[0.6811000000000149],1,"[""j""]",[0.6811000000000149],,,,,,,,,,,,,,,,,,,,,,,,,,,,,,,,,,,,,,,,,,,,,,,,,,,,,,,,,,,,,,,,,,,,,
,,,,740456,001,2023-10-24_21h57.42.833,fluency,2022.2.5,Win32,59.97720866,,,,,,,,,,,,,,,,,,,,,,,0,9,img/B09_00.jpg,CONTROL,Press J as soon as you see a face, ,JK,,,,,,,,,,,,,,,,,,,,,,,,,,,,,,,,4,0.6305,,,,,,,,,,,,,,0,69,69,88,1,,,,,,,,,,,,,space,0.2962,,,,,,,,,,,,,,,,,,,,,,,,,,,,,,,,,,,,,,,,,,,,,,,,,,,,,,,,,,,,,,,,,,,
,,,,740456,001,2023-10-24_21h57.42.833,fluency,2022.2.5,Win32,59.97720866,,,,,,,,,,,,,,,,,,,,,,,5,7,img/B07_05.jpg,CONTROL,Press J as soon as you see a face, ,JK,,,,,,,,,,,,,,,,,,,,,,,,,,,,,,,,,,,,,,,,,,,,,,1207.8559,0,70,70,71,1,109,0,0,0,0,1,98,,,,,,,,,,,,,,,,,,,,,,,,,,,,,,,,,,,,,,,,,,,,,,,,,,,,,,,,,,,,,,,,,,,,,,,,,,
,,,,740456,001,2023-10-24_21h57.42.833,fluency,2022.2.5,Win32,59.97720866,,,,,,,,,,,,,,,,,,,,,,,,,,,,,,,,,,,,,,,,,,,,,,,,,,,,,,,,,,,,,,,,,,,,,,,,,,,,,,,,,,0,0,0,0,1,,"[""j""]",[0.6975999999999658],1,"[""j""]",[0.6975999999999658],,,,,,,,,,,,,,,,,,,,,,,,,,,,,,,,,,,,,,,,,,,,,,,,,,,,,,,,,,,,,,,,,,,,,
,,,,740456,001,2023-10-24_21h57.42.833,fluency,2022.2.5,Win32,59.97720866,,,,,,,,,,,,,,,,,,,,,,,5,7,img/B07_05.jpg,CONTROL,Press J as soon as you see a face, ,JK,,,,,,,,,,,,,,,,,,,,,,,,,,,,,,,,5,0.9322,,,,,,,,,,,,,,0,70,70,71,1,,,,,,,,,,,,,space,0.702,,,,,,,,,,,,,,,,,,,,,,,,,,,,,,,,,,,,,,,,,,,,,,,,,,,,,,,,,,,,,,,,,,,
,,,,740456,001,2023-10-24_21h57.42.833,fluency,2022.2.5,Win32,59.97720866,,,,,,,,,,,,,,,,,,,,,,,4,9,img/B09_04.jpg,CONTROL,Press J as soon as you see a face, ,JK,,,,,,,,,,,,,,,,,,,,,,,,,,,,,,,,,,,,,,,,,,,,,,1214.5452,0,71,71,92,1,109,0,0,0,0,1,98,,,,,,,,,,,,,,,,,,,,,,,,,,,,,,,,,,,,,,,,,,,,,,,,,,,,,,,,,,,,,,,,,,,,,,,,,,
,,,,740456,001,2023-10-24_21h57.42.833,fluency,2022.2.5,Win32,59.97720866,,,,,,,,,,,,,,,,,,,,,,,,,,,,,,,,,,,,,,,,,,,,,,,,,,,,,,,,,,,,,,,,,,,,,,,,,,,,,,,,,,0,0,0,0,1,,"[""j""]",[0.6824000000003707],1,"[""j""]",[0.6824000000003707],,,,,,,,,,,,,,,,,,,,,,,,,,,,,,,,,,,,,,,,,,,,,,,,,,,,,,,,,,,,,,,,,,,,,
,,,,740456,001,2023-10-24_21h57.42.833,fluency,2022.2.5,Win32,59.97720866,,,,,,,,,,,,,,,,,,,,,,,4,9,img/B09_04.jpg,CONTROL,Press J as soon as you see a face, ,JK,,,,,,,,,,,,,,,,,,,,,,,,,,,,,,,,6,0.486,,,,,,,,,,,,,,0,71,71,92,1,,,,,,,,,,,,,space,45.679,,,,,,,,,,,,,,,,,,,,,,,,,,,,,,,,,,,,,,,,,,,,,,,,,,,,,,,,,,,,,,,,,,,
,,,,740456,001,2023-10-24_21h57.42.833,fluency,2022.2.5,Win32,59.97720866,,,,,,,,,,,,,,,,,,,,,,,6,6,img/B06_06.jpg,CONTROL,Press J as soon as you see a face, ,JK,,,,,,,,,,,,,,,,,,,,,,,,,,,,,,,,,,,,,,,,,,,,,,1265.7738,0,72,72,61,1,109,0,0,0,0,1,98,,,,,,,,,,,,,,,,,,,,,,,,,,,,,,,,,,,,,,,,,,,,,,,,,,,,,,,,,,,,,,,,,,,,,,,,,,
,,,,740456,001,2023-10-24_21h57.42.833,fluency,2022.2.5,Win32,59.97720866,,,,,,,,,,,,,,,,,,,,,,,,,,,,,,,,,,,,,,,,,,,,,,,,,,,,,,,,,,,,,,,,,,,,,,,,,,,,,,,,,,0,0,0,0,1,,"[""j""]",[0.6375000000000455],1,"[""j""]",[0.6375000000000455],,,,,,,,,,,,,,,,,,,,,,,,,,,,,,,,,,,,,,,,,,,,,,,,,,,,,,,,,,,,,,,,,,,,,
,,,,740456,001,2023-10-24_21h57.42.833,fluency,2022.2.5,Win32,59.97720866,,,,,,,,,,,,,,,,,,,,,,,6,6,img/B06_06.jpg,CONTROL,Press J as soon as you see a face, ,JK,,,,,,,,,,,,,,,,,,,,,,,,,,,,,,,,5,0.5186,,,,,,,,,,,,,,0,72,72,61,1,,,,,,,,,,,,,space,1.0511,,,,,,,,,,,,,,,,,,,,,,,,,,,,,,,,,,,,,,,,,,,,,,,,,,,,,,,,,,,,,,,,,,,
,,,,740456,001,2023-10-24_21h57.42.833,fluency,2022.2.5,Win32,59.97720866,,,,,,,,,,,,,,,,,,,,,,,9,6,img/B06_09.jpg,CONTROL,Press J as soon as you see a face, ,JK,,,,,,,,,,,,,,,,,,,,,,,,,,,,,,,,,,,,,,,,,,,,,,1271.3956,0,73,73,64,1,109,0,0,0,0,1,98,,,,,,,,,,,,,,,,,,,,,,,,,,,,,,,,,,,,,,,,,,,,,,,,,,,,,,,,,,,,,,,,,,,,,,,,,,
,,,,740456,001,2023-10-24_21h57.42.833,fluency,2022.2.5,Win32,59.97720866,,,,,,,,,,,,,,,,,,,,,,,,,,,,,,,,,,,,,,,,,,,,,,,,,,,,,,,,,,,,,,,,,,,,,,,,,,,,,,,,,,0,0,0,0,1,,"[""j""]",[0.826200000000199],1,"[""j""]",[0.826200000000199],,,,,,,,,,,,,,,,,,,,,,,,,,,,,,,,,,,,,,,,,,,,,,,,,,,,,,,,,,,,,,,,,,,,,
,,,,740456,001,2023-10-24_21h57.42.833,fluency,2022.2.5,Win32,59.97720866,,,,,,,,,,,,,,,,,,,,,,,9,6,img/B06_09.jpg,CONTROL,Press J as soon as you see a face, ,JK,,,,,,,,,,,,,,,,,,,,,,,,,,,,,,,,6,0.4927,,,,,,,,,,,,,,0,73,73,64,1,,,,,,,,,,,,,space,0.4294,,,,,,,,,,,,,,,,,,,,,,,,,,,,,,,,,,,,,,,,,,,,,,,,,,,,,,,,,,,,,,,,,,,
,,,,740456,001,2023-10-24_21h57.42.833,fluency,2022.2.5,Win32,59.97720866,,,,,,,,,,,,,,,,,,,,,,,1,2,img/B02_01.jpg,CONTROL,Press J as soon as you see a face, ,JK,,,,,,,,,,,,,,,,,,,,,,,,,,,,,,,,,,,,,,,,,,,,,,1277.3673,0,74,74,12,1,109,0,0,0,0,1,98,,,,,,,,,,,,,,,,,,,,,,,,,,,,,,,,,,,,,,,,,,,,,,,,,,,,,,,,,,,,,,,,,,,,,,,,,,
,,,,740456,001,2023-10-24_21h57.42.833,fluency,2022.2.5,Win32,59.97720866,,,,,,,,,,,,,,,,,,,,,,,,,,,,,,,,,,,,,,,,,,,,,,,,,,,,,,,,,,,,,,,,,,,,,,,,,,,,,,,,,,0,0,0,0,1,,"[""j""]",[1.1811000000002423],1,"[""j""]",[1.1811000000002423],,,,,,,,,,,,,,,,,,,,,,,,,,,,,,,,,,,,,,,,,,,,,,,,,,,,,,,,,,,,,,,,,,,,,
,,,,740456,001,2023-10-24_21h57.42.833,fluency,2022.2.5,Win32,59.97720866,,,,,,,,,,,,,,,,,,,,,,,1,2,img/B02_01.jpg,CONTROL,Press J as soon as you see a face, ,JK,,,,,,,,,,,,,,,,,,,,,,,,,,,,,,,,5,0.6587,,,,,,,,,,,,,,0,74,74,12,1,,,,,,,,,,,,,space,0.3679,,,,,,,,,,,,,,,,,,,,,,,,,,,,,,,,,,,,,,,,,,,,,,,,,,,,,,,,,,,,,,,,,,,
,,,,740456,001,2023-10-24_21h57.42.833,fluency,2022.2.5,Win32,59.97720866,,,,,,,,,,,,,,,,,,,,,,,10,5,img/B05_10.jpg,CONTROL,Press J as soon as you see a face, ,JK,,,,,,,,,,,,,,,,,,,,,,,,,,,,,,,,,,,,,,,,,,,,,,1283.4562,0,75,75,54,1,109,0,0,0,0,1,98,,,,,,,,,,,,,,,,,,,,,,,,,,,,,,,,,,,,,,,,,,,,,,,,,,,,,,,,,,,,,,,,,,,,,,,,,,
,,,,740456,001,2023-10-24_21h57.42.833,fluency,2022.2.5,Win32,59.97720866,,,,,,,,,,,,,,,,,,,,,,,,,,,,,,,,,,,,,,,,,,,,,,,,,,,,,,,,,,,,,,,,,,,,,,,,,,,,,,,,,,0,0,0,0,1,,"[""j""]",[0.5665000000001328],1,"[""j""]",[0.5663999999999305],,,,,,,,,,,,,,,,,,,,,,,,,,,,,,,,,,,,,,,,,,,,,,,,,,,,,,,,,,,,,,,,,,,,,
,,,,740456,001,2023-10-24_21h57.42.833,fluency,2022.2.5,Win32,59.97720866,,,,,,,,,,,,,,,,,,,,,,,10,5,img/B05_10.jpg,CONTROL,Press J as soon as you see a face, ,JK,,,,,,,,,,,,,,,,,,,,,,,,,,,,,,,,4,0.6481,,,,,,,,,,,,,,0,75,75,54,1,,,,,,,,,,,,,space,0.449,,,,,,,,,,,,,,,,,,,,,,,,,,,,,,,,,,,,,,,,,,,,,,,,,,,,,,,,,,,,,,,,,,,
,,,,740456,001,2023-10-24_21h57.42.833,fluency,2022.2.5,Win32,59.97720866,,,,,,,,,,,,,,,,,,,,,,,0,2,img/B02_00.jpg,CONTROL,Press J as soon as you see a face, ,JK,,,,,,,,,,,,,,,,,,,,,,,,,,,,,,,,,,,,,,,,,,,,,,1288.5944,0,76,76,11,1,109,0,0,0,0,1,98,,,,,,,,,,,,,,,,,,,,,,,,,,,,,,,,,,,,,,,,,,,,,,,,,,,,,,,,,,,,,,,,,,,,,,,,,,
,,,,740456,001,2023-10-24_21h57.42.833,fluency,2022.2.5,Win32,59.97720866,,,,,,,,,,,,,,,,,,,,,,,,,,,,,,,,,,,,,,,,,,,,,,,,,,,,,,,,,,,,,,,,,,,,,,,,,,,,,,,,,,0,0,0,0,1,,"[""j""]",[1.1829000000000178],1,"[""j""]",[1.1827999999998156],,,,,,,,,,,,,,,,,,,,,,,,,,,,,,,,,,,,,,,,,,,,,,,,,,,,,,,,,,,,,,,,,,,,,
,,,,740456,001,2023-10-24_21h57.42.833,fluency,2022.2.5,Win32,59.97720866,,,,,,,,,,,,,,,,,,,,,,,0,2,img/B02_00.jpg,CONTROL,Press J as soon as you see a face, ,JK,,,,,,,,,,,,,,,,,,,,,,,,,,,,,,,,3,0.4803,,,,,,,,,,,,,,0,76,76,11,1,,,,,,,,,,,,,space,0.3556,,,,,,,,,,,,,,,,,,,,,,,,,,,,,,,,,,,,,,,,,,,,,,,,,,,,,,,,,,,,,,,,,,,
,,,,740456,001,2023-10-24_21h57.42.833,fluency,2022.2.5,Win32,59.97720866,,,,,,,,,,,,,,,,,,,,,,,1,4,img/B04_01.jpg,CONTROL,Press J as soon as you see a face, ,JK,,,,,,,,,,,,,,,,,,,,,,,,,,,,,,,,,,,,,,,,,,,,,,1294.4881,0,77,77,34,1,109,0,0,0,0,1,98,,,,,,,,,,,,,,,,,,,,,,,,,,,,,,,,,,,,,,,,,,,,,,,,,,,,,,,,,,,,,,,,,,,,,,,,,,
,,,,740456,001,2023-10-24_21h57.42.833,fluency,2022.2.5,Win32,59.97720866,,,,,,,,,,,,,,,,,,,,,,,,,,,,,,,,,,,,,,,,,,,,,,,,,,,,,,,,,,,,,,,,,,,,,,,,,,,,,,,,,,0,0,0,0,1,,"[""j""]",[0.7071000000000822],1,"[""j""]",[0.70699999999988],,,,,,,,,,,,,,,,,,,,,,,,,,,,,,,,,,,,,,,,,,,,,,,,,,,,,,,,,,,,,,,,,,,,,
,,,,740456,001,2023-10-24_21h57.42.833,fluency,2022.2.5,Win32,59.97720866,,,,,,,,,,,,,,,,,,,,,,,1,4,img/B04_01.jpg,CONTROL,Press J as soon as you see a face, ,JK,,,,,,,,,,,,,,,,,,,,,,,,,,,,,,,,4,0.5452,,,,,,,,,,,,,,0,77,77,34,1,,,,,,,,,,,,,space,0.4017,,,,,,,,,,,,,,,,,,,,,,,,,,,,,,,,,,,,,,,,,,,,,,,,,,,,,,,,,,,,,,,,,,,
,,,,740456,001,2023-10-24_21h57.42.833,fluency,2022.2.5,Win32,59.97720866,,,,,,,,,,,,,,,,,,,,,,,2,3,img/B03_02.jpg,CONTROL,Press J as soon as you see a face, ,JK,,,,,,,,,,,,,,,,,,,,,,,,,,,,,,,,,,,,,,,,,,,,,,1299.4871,0,78,78,24,1,109,0,0,0,0,1,98,,,,,,,,,,,,,,,,,,,,,,,,,,,,,,,,,,,,,,,,,,,,,,,,,,,,,,,,,,,,,,,,,,,,,,,,,,
,,,,740456,001,2023-10-24_21h57.42.833,fluency,2022.2.5,Win32,59.97720866,,,,,,,,,,,,,,,,,,,,,,,,,,,,,,,,,,,,,,,,,,,,,,,,,,,,,,,,,,,,,,,,,,,,,,,,,,,,,,,,,,0,0,0,0,1,,"[""j""]",[1.0061000000000604],1,"[""j""]",[1.0061000000000604],,,,,,,,,,,,,,,,,,,,,,,,,,,,,,,,,,,,,,,,,,,,,,,,,,,,,,,,,,,,,,,,,,,,,
,,,,740456,001,2023-10-24_21h57.42.833,fluency,2022.2.5,Win32,59.97720866,,,,,,,,,,,,,,,,,,,,,,,2,3,img/B03_02.jpg,CONTROL,Press J as soon as you see a face, ,JK,,,,,,,,,,,,,,,,,,,,,,,,,,,,,,,,3,0.8492,,,,,,,,,,,,,,0,78,78,24,1,,,,,,,,,,,,,space,0.4295,,,,,,,,,,,,,,,,,,,,,,,,,,,,,,,,,,,,,,,,,,,,,,,,,,,,,,,,,,,,,,,,,,,
,,,,740456,001,2023-10-24_21h57.42.833,fluency,2022.2.5,Win32,59.97720866,,,,,,,,,,,,,,,,,,,,,,,8,4,img/B04_08.jpg,CONTROL,Press J as soon as you see a face, ,JK,,,,,,,,,,,,,,,,,,,,,,,,,,,,,,,,,,,,,,,,,,,,,,1304.8142,0,79,79,41,1,109,0,0,0,0,1,98,,,,,,,,,,,,,,,,,,,,,,,,,,,,,,,,,,,,,,,,,,,,,,,,,,,,,,,,,,,,,,,,,,,,,,,,,,
,,,,740456,001,2023-10-24_21h57.42.833,fluency,2022.2.5,Win32,59.97720866,,,,,,,,,,,,,,,,,,,,,,,,,,,,,,,,,,,,,,,,,,,,,,,,,,,,,,,,,,,,,,,,,,,,,,,,,,,,,,,,,,0,0,0,0,1,,"[""j""]",[0.8209999999999127],1,"[""j""]",[0.8209999999999127],,,,,,,,,,,,,,,,,,,,,,,,,,,,,,,,,,,,,,,,,,,,,,,,,,,,,,,,,,,,,,,,,,,,,
,,,,740456,001,2023-10-24_21h57.42.833,fluency,2022.2.5,Win32,59.97720866,,,,,,,,,,,,,,,,,,,,,,,8,4,img/B04_08.jpg,CONTROL,Press J as soon as you see a face, ,JK,,,,,,,,,,,,,,,,,,,,,,,,,,,,,,,,4,0.667,,,,,,,,,,,,,,0,79,79,41,1,,,,,,,,,,,,,space,0.3486,,,,,,,,,,,,,,,,,,,,,,,,,,,,,,,,,,,,,,,,,,,,,,,,,,,,,,,,,,,,,,,,,,,
,,,,740456,001,2023-10-24_21h57.42.833,fluency,2022.2.5,Win32,59.97720866,,,,,,,,,,,,,,,,,,,,,,,0,3,img/B03_00.jpg,CONTROL,Press J as soon as you see a face, ,JK,,,,,,,,,,,,,,,,,,,,,,,,,,,,,,,,,,,,,,,,,,,,,,1310.8802,0,80,80,22,1,109,0,0,0,0,1,98,,,,,,,,,,,,,,,,,,,,,,,,,,,,,,,,,,,,,,,,,,,,,,,,,,,,,,,,,,,,,,,,,,,,,,,,,,
,,,,740456,001,2023-10-24_21h57.42.833,fluency,2022.2.5,Win32,59.97720866,,,,,,,,,,,,,,,,,,,,,,,,,,,,,,,,,,,,,,,,,,,,,,,,,,,,,,,,,,,,,,,,,,,,,,,,,,,,,,,,,,0,0,0,0,1,,"[""j""]",[0.7391999999995278],1,"[""j""]",[0.7391999999995278],,,,,,,,,,,,,,,,,,,,,,,,,,,,,,,,,,,,,,,,,,,,,,,,,,,,,,,,,,,,,,,,,,,,,
,,,,740456,001,2023-10-24_21h57.42.833,fluency,2022.2.5,Win32,59.97720866,,,,,,,,,,,,,,,,,,,,,,,0,3,img/B03_00.jpg,CONTROL,Press J as soon as you see a face, ,JK,,,,,,,,,,,,,,,,,,,,,,,,,,,,,,,,4,0.5656,,,,,,,,,,,,,,0,80,80,22,1,,,,,,,,,,,,,space,0.3463,,,,,,,,,,,,,,,,,,,,,,,,,,,,,,,,,,,,,,,,,,,,,,,,,,,,,,,,,,,,,,,,,,,
,,,,740456,001,2023-10-24_21h57.42.833,fluency,2022.2.5,Win32,59.97720866,,,,,,,,,,,,,,,,,,,,,,,3,6,img/B06_03.jpg,CONTROL,Press J as soon as you see a face, ,JK,,,,,,,,,,,,,,,,,,,,,,,,,,,,,,,,,,,,,,,,,,,,,,1316.8578,0,81,81,58,1,109,0,0,0,0,1,98,,,,,,,,,,,,,,,,,,,,,,,,,,,,,,,,,,,,,,,,,,,,,,,,,,,,,,,,,,,,,,,,,,,,,,,,,,
,,,,740456,001,2023-10-24_21h57.42.833,fluency,2022.2.5,Win32,59.97720866,,,,,,,,,,,,,,,,,,,,,,,,,,,,,,,,,,,,,,,,,,,,,,,,,,,,,,,,,,,,,,,,,,,,,,,,,,,,,,,,,,0,0,0,0,1,,"[""j""]",[0.6632999999997082],1,"[""j""]",[0.6632999999997082],,,,,,,,,,,,,,,,,,,,,,,,,,,,,,,,,,,,,,,,,,,,,,,,,,,,,,,,,,,,,,,,,,,,,
,,,,740456,001,2023-10-24_21h57.42.833,fluency,2022.2.5,Win32,59.97720866,,,,,,,,,,,,,,,,,,,,,,,3,6,img/B06_03.jpg,CONTROL,Press J as soon as you see a face, ,JK,,,,,,,,,,,,,,,,,,,,,,,,,,,,,,,,5,0.4486,,,,,,,,,,,,,,0,81,81,58,1,,,,,,,,,,,,,space,0.3489,,,,,,,,,,,,,,,,,,,,,,,,,,,,,,,,,,,,,,,,,,,,,,,,,,,,,,,,,,,,,,,,,,,
,,,,740456,001,2023-10-24_21h57.42.833,fluency,2022.2.5,Win32,59.97720866,,,,,,,,,,,,,,,,,,,,,,,3,10,img/B10_03.jpg,CONTROL,Press J as soon as you see a face, ,JK,,,,,,,,,,,,,,,,,,,,,,,,,,,,,,,,,,,,,,,,,,,,,,1322.7077,0,82,82,102,1,109,0,0,0,0,1,98,,,,,,,,,,,,,,,,,,,,,,,,,,,,,,,,,,,,,,,,,,,,,,,,,,,,,,,,,,,,,,,,,,,,,,,,,,
,,,,740456,001,2023-10-24_21h57.42.833,fluency,2022.2.5,Win32,59.97720866,,,,,,,,,,,,,,,,,,,,,,,,,,,,,,,,,,,,,,,,,,,,,,,,,,,,,,,,,,,,,,,,,,,,,,,,,,,,,,,,,,0,0,0,0,1,,"[""j""]",[0.8453999999999269],1,"[""j""]",[0.8453999999999269],,,,,,,,,,,,,,,,,,,,,,,,,,,,,,,,,,,,,,,,,,,,,,,,,,,,,,,,,,,,,,,,,,,,,
,,,,740456,001,2023-10-24_21h57.42.833,fluency,2022.2.5,Win32,59.97720866,,,,,,,,,,,,,,,,,,,,,,,3,10,img/B10_03.jpg,CONTROL,Press J as soon as you see a face, ,JK,,,,,,,,,,,,,,,,,,,,,,,,,,,,,,,,4,0.5499,,,,,,,,,,,,,,0,82,82,102,1,,,,,,,,,,,,,space,0.3331,,,,,,,,,,,,,,,,,,,,,,,,,,,,,,,,,,,,,,,,,,,,,,,,,,,,,,,,,,,,,,,,,,,
,,,,740456,001,2023-10-24_21h57.42.833,fluency,2022.2.5,Win32,59.97720866,,,,,,,,,,,,,,,,,,,,,,,3,9,img/B09_03.jpg,CONTROL,Press J as soon as you see a face, ,JK,,,,,,,,,,,,,,,,,,,,,,,,,,,,,,,,,,,,,,,,,,,,,,1328.6627,0,83,83,91,1,109,0,0,0,0,1,98,,,,,,,,,,,,,,,,,,,,,,,,,,,,,,,,,,,,,,,,,,,,,,,,,,,,,,,,,,,,,,,,,,,,,,,,,,
,,,,740456,001,2023-10-24_21h57.42.833,fluency,2022.2.5,Win32,59.97720866,,,,,,,,,,,,,,,,,,,,,,,,,,,,,,,,,,,,,,,,,,,,,,,,,,,,,,,,,,,,,,,,,,,,,,,,,,,,,,,,,,0,0,0,0,1,,"[""j""]",[0.6046000000001186],1,"[""j""]",[0.6046000000001186],,,,,,,,,,,,,,,,,,,,,,,,,,,,,,,,,,,,,,,,,,,,,,,,,,,,,,,,,,,,,,,,,,,,,
,,,,740456,001,2023-10-24_21h57.42.833,fluency,2022.2.5,Win32,59.97720866,,,,,,,,,,,,,,,,,,,,,,,3,9,img/B09_03.jpg,CONTROL,Press J as soon as you see a face, ,JK,,,,,,,,,,,,,,,,,,,,,,,,,,,,,,,,5,0.4678,,,,,,,,,,,,,,0,83,83,91,1,,,,,,,,,,,,,space,0.2989,,,,,,,,,,,,,,,,,,,,,,,,,,,,,,,,,,,,,,,,,,,,,,,,,,,,,,,,,,,,,,,,,,,
,,,,740456,001,2023-10-24_21h57.42.833,fluency,2022.2.5,Win32,59.97720866,,,,,,,,,,,,,,,,,,,,,,,4,3,img/B03_04.jpg,CONTROL,Press J as soon as you see a face, ,JK,,,,,,,,,,,,,,,,,,,,,,,,,,,,,,,,,,,,,,,,,,,,,,1333.4946,0,84,84,26,1,109,0,0,0,0,1,98,,,,,,,,,,,,,,,,,,,,,,,,,,,,,,,,,,,,,,,,,,,,,,,,,,,,,,,,,,,,,,,,,,,,,,,,,,
,,,,740456,001,2023-10-24_21h57.42.833,fluency,2022.2.5,Win32,59.97720866,,,,,,,,,,,,,,,,,,,,,,,,,,,,,,,,,,,,,,,,,,,,,,,,,,,,,,,,,,,,,,,,,,,,,,,,,,,,,,,,,,0,0,0,0,1,,"[""j""]",[0.581300000000283],1,"[""j""]",[0.5812000000003081],,,,,,,,,,,,,,,,,,,,,,,,,,,,,,,,,,,,,,,,,,,,,,,,,,,,,,,,,,,,,,,,,,,,,
,,,,740456,001,2023-10-24_21h57.42.833,fluency,2022.2.5,Win32,59.97720866,,,,,,,,,,,,,,,,,,,,,,,4,3,img/B03_04.jpg,CONTROL,Press J as soon as you see a face, ,JK,,,,,,,,,,,,,,,,,,,,,,,,,,,,,,,,4,0.4023,,,,,,,,,,,,,,0,84,84,26,1,,,,,,,,,,,,,space,0.2848,,,,,,,,,,,,,,,,,,,,,,,,,,,,,,,,,,,,,,,,,,,,,,,,,,,,,,,,,,,,,,,,,,,
,,,,740456,001,2023-10-24_21h57.42.833,fluency,2022.2.5,Win32,59.97720866,,,,,,,,,,,,,,,,,,,,,,,1,5,img/B05_01.jpg,CONTROL,Press J as soon as you see a face, ,JK,,,,,,,,,,,,,,,,,,,,,,,,,,,,,,,,,,,,,,,,,,,,,,1338.2543,0,85,85,45,1,109,0,0,0,0,1,98,,,,,,,,,,,,,,,,,,,,,,,,,,,,,,,,,,,,,,,,,,,,,,,,,,,,,,,,,,,,,,,,,,,,,,,,,,
,,,,740456,001,2023-10-24_21h57.42.833,fluency,2022.2.5,Win32,59.97720866,,,,,,,,,,,,,,,,,,,,,,,,,,,,,,,,,,,,,,,,,,,,,,,,,,,,,,,,,,,,,,,,,,,,,,,,,,,,,,,,,,0,0,0,0,1,,"[""j""]",[1.2385999999999058],1,"[""j""]",[1.2384999999999309],,,,,,,,,,,,,,,,,,,,,,,,,,,,,,,,,,,,,,,,,,,,,,,,,,,,,,,,,,,,,,,,,,,,,
,,,,740456,001,2023-10-24_21h57.42.833,fluency,2022.2.5,Win32,59.97720866,,,,,,,,,,,,,,,,,,,,,,,1,5,img/B05_01.jpg,CONTROL,Press J as soon as you see a face, ,JK,,,,,,,,,,,,,,,,,,,,,,,,,,,,,,,,3,0.3999,,,,,,,,,,,,,,0,85,85,45,1,,,,,,,,,,,,,space,0.3381,,,,,,,,,,,,,,,,,,,,,,,,,,,,,,,,,,,,,,,,,,,,,,,,,,,,,,,,,,,,,,,,,,,
,,,,740456,001,2023-10-24_21h57.42.833,fluency,2022.2.5,Win32,59.97720866,,,,,,,,,,,,,,,,,,,,,,,5,3,img/B03_05.jpg,CONTROL,Press J as soon as you see a face, ,JK,,,,,,,,,,,,,,,,,,,,,,,,,,,,,,,,,,,,,,,,,,,,,,1344.0597,0,86,86,27,1,109,0,0,0,0,1,98,,,,,,,,,,,,,,,,,,,,,,,,,,,,,,,,,,,,,,,,,,,,,,,,,,,,,,,,,,,,,,,,,,,,,,,,,,
,,,,740456,001,2023-10-24_21h57.42.833,fluency,2022.2.5,Win32,59.97720866,,,,,,,,,,,,,,,,,,,,,,,,,,,,,,,,,,,,,,,,,,,,,,,,,,,,,,,,,,,,,,,,,,,,,,,,,,,,,,,,,,0,0,0,0,1,,"[""j""]",[0.5643999999997504],1,"[""j""]",[0.5643999999997504],,,,,,,,,,,,,,,,,,,,,,,,,,,,,,,,,,,,,,,,,,,,,,,,,,,,,,,,,,,,,,,,,,,,,
,,,,740456,001,2023-10-24_21h57.42.833,fluency,2022.2.5,Win32,59.97720866,,,,,,,,,,,,,,,,,,,,,,,5,3,img/B03_05.jpg,CONTROL,Press J as soon as you see a face, ,JK,,,,,,,,,,,,,,,,,,,,,,,,,,,,,,,,4,0.5836,,,,,,,,,,,,,,0,86,86,27,1,,,,,,,,,,,,,space,0.3157,,,,,,,,,,,,,,,,,,,,,,,,,,,,,,,,,,,,,,,,,,,,,,,,,,,,,,,,,,,,,,,,,,,
,,,,740456,001,2023-10-24_21h57.42.833,fluency,2022.2.5,Win32,59.97720866,,,,,,,,,,,,,,,,,,,,,,,2,6,img/B06_02.jpg,CONTROL,Press J as soon as you see a face, ,JK,,,,,,,,,,,,,,,,,,,,,,,,,,,,,,,,,,,,,,,,,,,,,,1349.0081,0,87,87,57,1,109,0,0,0,0,1,98,,,,,,,,,,,,,,,,,,,,,,,,,,,,,,,,,,,,,,,,,,,,,,,,,,,,,,,,,,,,,,,,,,,,,,,,,,
,,,,740456,001,2023-10-24_21h57.42.833,fluency,2022.2.5,Win32,59.97720866,,,,,,,,,,,,,,,,,,,,,,,,,,,,,,,,,,,,,,,,,,,,,,,,,,,,,,,,,,,,,,,,,,,,,,,,,,,,,,,,,,0,0,0,0,1,,"[""j""]",[0.6535000000001219],1,"[""j""]",[0.6535000000001219],,,,,,,,,,,,,,,,,,,,,,,,,,,,,,,,,,,,,,,,,,,,,,,,,,,,,,,,,,,,,,,,,,,,,
,,,,740456,001,2023-10-24_21h57.42.833,fluency,2022.2.5,Win32,59.97720866,,,,,,,,,,,,,,,,,,,,,,,2,6,img/B06_02.jpg,CONTROL,Press J as soon as you see a face, ,JK,,,,,,,,,,,,,,,,,,,,,,,,,,,,,,,,5,0.9339,,,,,,,,,,,,,,0,87,87,57,1,,,,,,,,,,,,,space,0.3159,,,,,,,,,,,,,,,,,,,,,,,,,,,,,,,,,,,,,,,,,,,,,,,,,,,,,,,,,,,,,,,,,,,
,,,,740456,001,2023-10-24_21h57.42.833,fluency,2022.2.5,Win32,59.97720866,,,,,,,,,,,,,,,,,,,,,,,2,8,img/B08_02.jpg,CONTROL,Press J as soon as you see a face, ,JK,,,,,,,,,,,,,,,,,,,,,,,,,,,,,,,,,,,,,,,,,,,,,,1354.3187,0,88,88,79,1,109,0,0,0,0,1,98,,,,,,,,,,,,,,,,,,,,,,,,,,,,,,,,,,,,,,,,,,,,,,,,,,,,,,,,,,,,,,,,,,,,,,,,,,
,,,,740456,001,2023-10-24_21h57.42.833,fluency,2022.2.5,Win32,59.97720866,,,,,,,,,,,,,,,,,,,,,,,,,,,,,,,,,,,,,,,,,,,,,,,,,,,,,,,,,,,,,,,,,,,,,,,,,,,,,,,,,,0,0,0,0,1,,"[""j""]",[1.053099999999631],1,"[""j""]",[1.053099999999631],,,,,,,,,,,,,,,,,,,,,,,,,,,,,,,,,,,,,,,,,,,,,,,,,,,,,,,,,,,,,,,,,,,,,
,,,,740456,001,2023-10-24_21h57.42.833,fluency,2022.2.5,Win32,59.97720866,,,,,,,,,,,,,,,,,,,,,,,2,8,img/B08_02.jpg,CONTROL,Press J as soon as you see a face, ,JK,,,,,,,,,,,,,,,,,,,,,,,,,,,,,,,,4,0.387,,,,,,,,,,,,,,0,88,88,79,1,,,,,,,,,,,,,space,0.2991,,,,,,,,,,,,,,,,,,,,,,,,,,,,,,,,,,,,,,,,,,,,,,,,,,,,,,,,,,,,,,,,,,,
,,,,740456,001,2023-10-24_21h57.42.833,fluency,2022.2.5,Win32,59.97720866,,,,,,,,,,,,,,,,,,,,,,,10,1,img/B01_10.jpg,CONTROL,Press J as soon as you see a face, ,JK,,,,,,,,,,,,,,,,,,,,,,,,,,,,,,,,,,,,,,,,,,,,,,1360.0739,0,89,89,10,1,109,0,0,0,0,1,98,,,,,,,,,,,,,,,,,,,,,,,,,,,,,,,,,,,,,,,,,,,,,,,,,,,,,,,,,,,,,,,,,,,,,,,,,,
,,,,740456,001,2023-10-24_21h57.42.833,fluency,2022.2.5,Win32,59.97720866,,,,,,,,,,,,,,,,,,,,,,,,,,,,,,,,,,,,,,,,,,,,,,,,,,,,,,,,,,,,,,,,,,,,,,,,,,,,,,,,,,0,0,0,0,1,,"[""j""]",[0.6799999999998363],1,"[""j""]",[0.6798999999998614],,,,,,,,,,,,,,,,,,,,,,,,,,,,,,,,,,,,,,,,,,,,,,,,,,,,,,,,,,,,,,,,,,,,,
,,,,740456,001,2023-10-24_21h57.42.833,fluency,2022.2.5,Win32,59.97720866,,,,,,,,,,,,,,,,,,,,,,,10,1,img/B01_10.jpg,CONTROL,Press J as soon as you see a face, ,JK,,,,,,,,,,,,,,,,,,,,,,,,,,,,,,,,5,0.4809,,,,,,,,,,,,,,0,89,89,10,1,,,,,,,,,,,,,space,0.3008,,,,,,,,,,,,,,,,,,,,,,,,,,,,,,,,,,,,,,,,,,,,,,,,,,,,,,,,,,,,,,,,,,,
,,,,740456,001,2023-10-24_21h57.42.833,fluency,2022.2.5,Win32,59.97720866,,,,,,,,,,,,,,,,,,,,,,,10,10,img/B10_10.jpg,CONTROL,Press J as soon as you see a face, ,JK,,,,,,,,,,,,,,,,,,,,,,,,,,,,,,,,,,,,,,,,,,,,,,1364.9113,0,90,90,109,1,109,0,0,0,0,1,98,,,,,,,,,,,,,,,,,,,,,,,,,,,,,,,,,,,,,,,,,,,,,,,,,,,,,,,,,,,,,,,,,,,,,,,,,,
,,,,740456,001,2023-10-24_21h57.42.833,fluency,2022.2.5,Win32,59.97720866,,,,,,,,,,,,,,,,,,,,,,,,,,,,,,,,,,,,,,,,,,,,,,,,,,,,,,,,,,,,,,,,,,,,,,,,,,,,,,,,,,0,0,0,0,1,,"[""j""]",[0.991399999999885],1,"[""j""]",[0.9913000000003649],,,,,,,,,,,,,,,,,,,,,,,,,,,,,,,,,,,,,,,,,,,,,,,,,,,,,,,,,,,,,,,,,,,,,
,,,,740456,001,2023-10-24_21h57.42.833,fluency,2022.2.5,Win32,59.97720866,,,,,,,,,,,,,,,,,,,,,,,10,10,img/B10_10.jpg,CONTROL,Press J as soon as you see a face, ,JK,,,,,,,,,,,,,,,,,,,,,,,,,,,,,,,,3,0.5907,,,,,,,,,,,,,,0,90,90,109,1,,,,,,,,,,,,,space,0.9232,,,,,,,,,,,,,,,,,,,,,,,,,,,,,,,,,,,,,,,,,,,,,,,,,,,,,,,,,,,,,,,,,,,
,,,,740456,001,2023-10-24_21h57.42.833,fluency,2022.2.5,Win32,59.97720866,,,,,,,,,,,,,,,,,,,,,,,9,9,img/B09_09.jpg,CONTROL,Press J as soon as you see a face, ,JK,,,,,,,,,,,,,,,,,,,,,,,,,,,,,,,,,,,,,,,,,,,,,,1371.4672,0,91,91,97,1,109,0,0,0,0,1,98,,,,,,,,,,,,,,,,,,,,,,,,,,,,,,,,,,,,,,,,,,,,,,,,,,,,,,,,,,,,,,,,,,,,,,,,,,
,,,,740456,001,2023-10-24_21h57.42.833,fluency,2022.2.5,Win32,59.97720866,,,,,,,,,,,,,,,,,,,,,,,,,,,,,,,,,,,,,,,,,,,,,,,,,,,,,,,,,,,,,,,,,,,,,,,,,,,,,,,,,,0,0,0,0,1,,"[""j""]",[0.7438000000001921],1,"[""j""]",[0.7438000000001921],,,,,,,,,,,,,,,,,,,,,,,,,,,,,,,,,,,,,,,,,,,,,,,,,,,,,,,,,,,,,,,,,,,,,
,,,,740456,001,2023-10-24_21h57.42.833,fluency,2022.2.5,Win32,59.97720866,,,,,,,,,,,,,,,,,,,,,,,9,9,img/B09_09.jpg,CONTROL,Press J as soon as you see a face, ,JK,,,,,,,,,,,,,,,,,,,,,,,,,,,,,,,,6,0.5021,,,,,,,,,,,,,,0,91,91,97,1,,,,,,,,,,,,,space,0.3323,,,,,,,,,,,,,,,,,,,,,,,,,,,,,,,,,,,,,,,,,,,,,,,,,,,,,,,,,,,,,,,,,,,
,,,,740456,001,2023-10-24_21h57.42.833,fluency,2022.2.5,Win32,59.97720866,,,,,,,,,,,,,,,,,,,,,,,1,9,img/B09_01.jpg,CONTROL,Press J as soon as you see a face, ,JK,,,,,,,,,,,,,,,,,,,,,,,,,,,,,,,,,,,,,,,,,,,,,,1377.364,0,92,92,89,1,109,0,0,0,0,1,98,,,,,,,,,,,,,,,,,,,,,,,,,,,,,,,,,,,,,,,,,,,,,,,,,,,,,,,,,,,,,,,,,,,,,,,,,,
,,,,740456,001,2023-10-24_21h57.42.833,fluency,2022.2.5,Win32,59.97720866,,,,,,,,,,,,,,,,,,,,,,,,,,,,,,,,,,,,,,,,,,,,,,,,,,,,,,,,,,,,,,,,,,,,,,,,,,,,,,,,,,0,0,0,0,1,,"[""j""]",[0.8973999999998341],1,"[""j""]",[0.8973999999998341],,,,,,,,,,,,,,,,,,,,,,,,,,,,,,,,,,,,,,,,,,,,,,,,,,,,,,,,,,,,,,,,,,,,,
,,,,740456,001,2023-10-24_21h57.42.833,fluency,2022.2.5,Win32,59.97720866,,,,,,,,,,,,,,,,,,,,,,,1,9,img/B09_01.jpg,CONTROL,Press J as soon as you see a face, ,JK,,,,,,,,,,,,,,,,,,,,,,,,,,,,,,,,5,1.5815,,,,,,,,,,,,,,0,92,92,89,1,,,,,,,,,,,,,space,0.7862,,,,,,,,,,,,,,,,,,,,,,,,,,,,,,,,,,,,,,,,,,,,,,,,,,,,,,,,,,,,,,,,,,,
,,,,740456,001,2023-10-24_21h57.42.833,fluency,2022.2.5,Win32,59.97720866,,,,,,,,,,,,,,,,,,,,,,,10,4,img/B04_10.jpg,CONTROL,Press J as soon as you see a face, ,JK,,,,,,,,,,,,,,,,,,,,,,,,,,,,,,,,,,,,,,,,,,,,,,1383.8059,0,93,93,43,1,109,0,0,0,0,1,98,,,,,,,,,,,,,,,,,,,,,,,,,,,,,,,,,,,,,,,,,,,,,,,,,,,,,,,,,,,,,,,,,,,,,,,,,,
,,,,740456,001,2023-10-24_21h57.42.833,fluency,2022.2.5,Win32,59.97720866,,,,,,,,,,,,,,,,,,,,,,,,,,,,,,,,,,,,,,,,,,,,,,,,,,,,,,,,,,,,,,,,,,,,,,,,,,,,,,,,,,0,0,0,0,1,,"[""j""]",[1.81450000000018],1,"[""j""]",[1.81450000000018],,,,,,,,,,,,,,,,,,,,,,,,,,,,,,,,,,,,,,,,,,,,,,,,,,,,,,,,,,,,,,,,,,,,,
,,,,740456,001,2023-10-24_21h57.42.833,fluency,2022.2.5,Win32,59.97720866,,,,,,,,,,,,,,,,,,,,,,,10,4,img/B04_10.jpg,CONTROL,Press J as soon as you see a face, ,JK,,,,,,,,,,,,,,,,,,,,,,,,,,,,,,,,4,1.2344,,,,,,,,,,,,,,0,93,93,43,1,,,,,,,,,,,,,space,0.516,,,,,,,,,,,,,,,,,,,,,,,,,,,,,,,,,,,,,,,,,,,,,,,,,,,,,,,,,,,,,,,,,,,
,,,,740456,001,2023-10-24_21h57.42.833,fluency,2022.2.5,Win32,59.97720866,,,,,,,,,,,,,,,,,,,,,,,8,6,img/B06_08.jpg,CONTROL,Press J as soon as you see a face, ,JK,,,,,,,,,,,,,,,,,,,,,,,,,,,,,,,,,,,,,,,,,,,,,,1390.6009,0,94,94,63,1,109,0,0,0,0,1,98,,,,,,,,,,,,,,,,,,,,,,,,,,,,,,,,,,,,,,,,,,,,,,,,,,,,,,,,,,,,,,,,,,,,,,,,,,
,,,,740456,001,2023-10-24_21h57.42.833,fluency,2022.2.5,Win32,59.97720866,,,,,,,,,,,,,,,,,,,,,,,,,,,,,,,,,,,,,,,,,,,,,,,,,,,,,,,,,,,,,,,,,,,,,,,,,,,,,,,,,,0,0,0,0,1,,"[""j""]",[0.6988000000001193],1,"[""j""]",[0.6987000000001444],,,,,,,,,,,,,,,,,,,,,,,,,,,,,,,,,,,,,,,,,,,,,,,,,,,,,,,,,,,,,,,,,,,,,
,,,,740456,001,2023-10-24_21h57.42.833,fluency,2022.2.5,Win32,59.97720866,,,,,,,,,,,,,,,,,,,,,,,8,6,img/B06_08.jpg,CONTROL,Press J as soon as you see a face, ,JK,,,,,,,,,,,,,,,,,,,,,,,,,,,,,,,,7,0.7281,,,,,,,,,,,,,,0,94,94,63,1,,,,,,,,,,,,,space,0.4872,,,,,,,,,,,,,,,,,,,,,,,,,,,,,,,,,,,,,,,,,,,,,,,,,,,,,,,,,,,,,,,,,,,
,,,,740456,001,2023-10-24_21h57.42.833,fluency,2022.2.5,Win32,59.97720866,,,,,,,,,,,,,,,,,,,,,,,3,4,img/B04_03.jpg,CONTROL,Press J as soon as you see a face, ,JK,,,,,,,,,,,,,,,,,,,,,,,,,,,,,,,,,,,,,,,,,,,,,,1396.8562,0,95,95,36,1,109,0,0,0,0,1,98,,,,,,,,,,,,,,,,,,,,,,,,,,,,,,,,,,,,,,,,,,,,,,,,,,,,,,,,,,,,,,,,,,,,,,,,,,
,,,,740456,001,2023-10-24_21h57.42.833,fluency,2022.2.5,Win32,59.97720866,,,,,,,,,,,,,,,,,,,,,,,,,,,,,,,,,,,,,,,,,,,,,,,,,,,,,,,,,,,,,,,,,,,,,,,,,,,,,,,,,,0,0,0,0,1,,"[""j""]",[1.1339000000000397],1,"[""j""]",[1.1340000000000146],,,,,,,,,,,,,,,,,,,,,,,,,,,,,,,,,,,,,,,,,,,,,,,,,,,,,,,,,,,,,,,,,,,,,
,,,,740456,001,2023-10-24_21h57.42.833,fluency,2022.2.5,Win32,59.97720866,,,,,,,,,,,,,,,,,,,,,,,3,4,img/B04_03.jpg,CONTROL,Press J as soon as you see a face, ,JK,,,,,,,,,,,,,,,,,,,,,,,,,,,,,,,,4,0.354,,,,,,,,,,,,,,0,95,95,36,1,,,,,,,,,,,,,space,0.3648,,,,,,,,,,,,,,,,,,,,,,,,,,,,,,,,,,,,,,,,,,,,,,,,,,,,,,,,,,,,,,,,,,,
,,,,740456,001,2023-10-24_21h57.42.833,fluency,2022.2.5,Win32,59.97720866,,,,,,,,,,,,,,,,,,,,,,,7,6,img/B06_07.jpg,CONTROL,Press J as soon as you see a face, ,JK,,,,,,,,,,,,,,,,,,,,,,,,,,,,,,,,,,,,,,,,,,,,,,1401.6273,0,96,96,62,1,109,0,0,0,0,1,98,,,,,,,,,,,,,,,,,,,,,,,,,,,,,,,,,,,,,,,,,,,,,,,,,,,,,,,,,,,,,,,,,,,,,,,,,,
,,,,740456,001,2023-10-24_21h57.42.833,fluency,2022.2.5,Win32,59.97720866,,,,,,,,,,,,,,,,,,,,,,,,,,,,,,,,,,,,,,,,,,,,,,,,,,,,,,,,,,,,,,,,,,,,,,,,,,,,,,,,,,0,0,0,0,1,,"[""j""]",[1.1482000000003154],1,"[""j""]",[1.1481000000001131],,,,,,,,,,,,,,,,,,,,,,,,,,,,,,,,,,,,,,,,,,,,,,,,,,,,,,,,,,,,,,,,,,,,,
,,,,740456,001,2023-10-24_21h57.42.833,fluency,2022.2.5,Win32,59.97720866,,,,,,,,,,,,,,,,,,,,,,,7,6,img/B06_07.jpg,CONTROL,Press J as soon as you see a face, ,JK,,,,,,,,,,,,,,,,,,,,,,,,,,,,,,,,7,0.5154,,,,,,,,,,,,,,0,96,96,62,1,,,,,,,,,,,,,space,0.5543,,,,,,,,,,,,,,,,,,,,,,,,,,,,,,,,,,,,,,,,,,,,,,,,,,,,,,,,,,,,,,,,,,,
,,,,740456,001,2023-10-24_21h57.42.833,fluency,2022.2.5,Win32,59.97720866,,,,,,,,,,,,,,,,,,,,,,,4,2,img/B02_04.jpg,CONTROL,Press J as soon as you see a face, ,JK,,,,,,,,,,,,,,,,,,,,,,,,,,,,,,,,,,,,,,,,,,,,,,1406.7543,0,97,97,15,1,109,0,0,0,0,1,98,,,,,,,,,,,,,,,,,,,,,,,,,,,,,,,,,,,,,,,,,,,,,,,,,,,,,,,,,,,,,,,,,,,,,,,,,,
,,,,740456,001,2023-10-24_21h57.42.833,fluency,2022.2.5,Win32,59.97720866,,,,,,,,,,,,,,,,,,,,,,,,,,,,,,,,,,,,,,,,,,,,,,,,,,,,,,,,,,,,,,,,,,,,,,,,,,,,,,,,,,0,0,0,0,1,,"[""j""]",[1.636600000000044],1,"[""j""]",[1.636600000000044],,,,,,,,,,,,,,,,,,,,,,,,,,,,,,,,,,,,,,,,,,,,,,,,,,,,,,,,,,,,,,,,,,,,,
,,,,740456,001,2023-10-24_21h57.42.833,fluency,2022.2.5,Win32,59.97720866,,,,,,,,,,,,,,,,,,,,,,,4,2,img/B02_04.jpg,CONTROL,Press J as soon as you see a face, ,JK,,,,,,,,,,,,,,,,,,,,,,,,,,,,,,,,5,0.4938,,,,,,,,,,,,,,0,97,97,15,1,,,,,,,,,,,,,space,0.337,,,,,,,,,,,,,,,,,,,,,,,,,,,,,,,,,,,,,,,,,,,,,,,,,,,,,,,,,,,,,,,,,,,
,,,,740456,001,2023-10-24_21h57.42.833,fluency,2022.2.5,Win32,59.97720866,,,,,,,,,,,,,,,,,,,,,,,4,1,img/B01_04.jpg,CONTROL,Press J as soon as you see a face, ,JK,,,,,,,,,,,,,,,,,,,,,,,,,,,,,,,,,,,,,,,,,,,,,,1411.6362,0,98,98,4,1,109,0,0,0,0,1,98,,,,,,,,,,,,,,,,,,,,,,,,,,,,,,,,,,,,,,,,,,,,,,,,,,,,,,,,,,,,,,,,,,,,,,,,,,
,,,,740456,001,2023-10-24_21h57.42.833,fluency,2022.2.5,Win32,59.97720866,,,,,,,,,,,,,,,,,,,,,,,,,,,,,,,,,,,,,,,,,,,,,,,,,,,,,,,,,,,,,,,,,,,,,,,,,,,,,,,,,,0,0,0,0,1,,"[""j""]",[0.9761999999998352],1,"[""j""]",[0.9761999999998352],,,,,,,,,,,,,,,,,,,,,,,,,,,,,,,,,,,,,,,,,,,,,,,,,,,,,,,,,,,,,,,,,,,,,
