idTextbox.text,welcomeDone.numClicks,welcomeDone.timesOn,welcomeDone.timesOff,participant,session,date,expName,psychopyVersion,OS,frameRate,consent_advance.keys,consent_advance.rt,consent_advance_2.keys,consent_advance_2.rt,consentClick.x,consentClick.y,consentClick.leftButton,consentClick.midButton,consentClick.rightButton,consentClick.time,consentClick.clicked_name,instr_advance_3.keys,instr_advance_3.rt,spec_instr_adv.keys,spec_instr_adv.rt,spec_instr_adv2.keys,spec_instr_adv2.rt,instrLoop.thisRepN,instrLoop.thisTrialN,instrLoop.thisN,instrLoop.thisIndex,instrLoop.ran,steps,fams,face_file,cond,instr,term,key_map,attnKeyResp1.keys,attnKeyResp1.rt,q1.thisRepN,q1.thisTrialN,q1.thisN,q1.thisIndex,q1.ran,attnKeyResp2.keys,attnKeyResp2.rt,q2.thisRepN,q2.thisTrialN,q2.thisN,q2.thisIndex,q2.ran,attnKeyResp3.keys,attnKeyResp3.rt,q3.thisRepN,q3.thisTrialN,q3.thisN,q3.thisIndex,q3.ran,practiceStart.keys,practiceStart.rt,practiceResp.keys,timesRedone,redo_keypress.keys,redo_keypress.rt,practiceFailed.thisRepN,practiceFailed.thisTrialN,practiceFailed.thisN,practiceFailed.thisIndex,practiceFailed.ran,practiceRepeat.thisRepN,practiceRepeat.thisTrialN,practiceRepeat.thisN,practiceRepeat.thisIndex,practiceRepeat.ran,practiceResp.rt,attrRating.keys,attrRating.rt,practiceTrial.thisRepN,practiceTrial.thisTrialN,practiceTrial.thisN,practiceTrial.thisIndex,practiceTrial.ran,key_resp_3.keys,key_resp_3.rt,attnChecker.thisRepN,attnChecker.thisTrialN,attnChecker.thisN,attnChecker.thisIndex,attnChecker.ran,faceOnsetTime,trials.thisRepN,trials.thisTrialN,trials.thisN,trials.thisIndex,trials.ran,trials.order,repeat_loop.thisRepN,repeat_loop.thisTrialN,repeat_loop.thisN,repeat_loop.thisIndex,repeat_loop.ran,repeat_loop.order,catResp.keys,catResp.rt,globalTimesRedone,catAllKeys.keys,catAllKeys.rt,contResp.keys,contResp.rt,redo_feedback_loop.thisRepN,redo_feedback_loop.thisTrialN,redo_feedback_loop.thisN,redo_feedback_loop.thisIndex,redo_feedback_loop.ran,contResp_2.keys,contResp_2.rt,respQ1.response,respQ1.rt,respQ2.response,respQ2.rt,respQ3.response,respQ3.rt,respQ4.response,respQ4.rt,surveyContinue1.numClicks,surveyContinue1.timesOn,surveyContinue1.timesOff,respQ5.response,respQ5.rt,respQ6.response,respQ6.rt,respQ7.response,respQ7.rt,respQ8.response,respQ8.rt,surveyContinue2.numClicks,surveyContinue2.timesOn,surveyContinue2.timesOff,respQ9.response,respQ9.rt,respQ10.response,respQ10.rt,respQ11.response,respQ11.rt,respQ12.response,respQ12.rt,surveyContinue3.numClicks,surveyContinue3.timesOn,surveyContinue3.timesOff,respQ13.response,respQ13.rt,respQ14.response,respQ14.rt,respQ15.response,respQ15.rt,surveyContinue4.numClicks,surveyContinue4.timesOn,surveyContinue4.timesOff,respAge.response,respAge.rt,genderResp1.response,genderResp1.rt,genderResp2.text,demogexitClick.numClicks,demogexitClick.timesOn,demogexitClick.timesOff,textbox.text,openAnswerClick.numClicks,openAnswerClick.timesOn,openAnswerClick.timesOff,debriefEnd.keys,debriefEnd.rt,exitKey.keys,exitKey.rt
6113d64f8480a38b2e9fbfac,1,[20.6555],[20.6555],888710,001,2023-11-09_20h37.25.304,fluency,2022.2.4,MacIntel,59.84082341,,,,,,,,,,,,,,,,,,,,,,,,,,,,,,,,,,,,,,,,,,,,,,,,,,,,,,,,,,,,,,,,,,,,,,,,,,,,,,,,,,,,,,,,,,,,,,,,,,,,,,,,,,,,,,,,,,,,,,,,,,,,,,,,,,,,,,,,,,,,,,,,,,,,,,,,,,,,,,,,,,,,,,
,,,,888710,001,2023-11-09_20h37.25.304,fluency,2022.2.4,MacIntel,59.84082341,space,41.3804,,,,,,,,,,,,,,,,,,,,,,,,,,,,,,,,,,,,,,,,,,,,,,,,,,,,,,,,,,,,,,,,,,,,,,,,,,,,,,,,,,,,,,,,,,,,,,,,,,,,,,,,,,,,,,,,,,,,,,,,,,,,,,,,,,,,,,,,,,,,,,,,,,,,,,,,,,,,,,,,,,,,
,,,,888710,001,2023-11-09_20h37.25.304,fluency,2022.2.4,MacIntel,59.84082341,,,space,8.6262,,,,,,,,,,,,,,,,,,,,,,,,,,,,,,,,,,,,,,,,,,,,,,,,,,,,,,,,,,,,,,,,,,,,,,,,,,,,,,,,,,,,,,,,,,,,,,,,,,,,,,,,,,,,,,,,,,,,,,,,,,,,,,,,,,,,,,,,,,,,,,,,,,,,,,,,,,,,,,,,,,
,,,,888710,001,2023-11-09_20h37.25.304,fluency,2022.2.4,MacIntel,59.84082341,,,,,0.3035154,-0.337528982,1,0,0,24.8472,iAgree,,,,,,,,,,,,,,,,,,,,,,,,,,,,,,,,,,,,,,,,,,,,,,,,,,,,,,,,,,,,,,,,,,,,,,,,,,,,,,,,,,,,,,,,,,,,,,,,,,,,,,,,,,,,,,,,,,,,,,,,,,,,,,,,,,,,,,,,,,,,,,,,,,,,,,,,,,,
,,,,888710,001,2023-11-09_20h37.25.304,fluency,2022.2.4,MacIntel,59.84082341,,,,,,,,,,,,space,12.1618,,,,,,,,,,,,,,,,,,,,,,,,,,,,,,,,,,,,,,,,,,,,,,,,,,,,,,,,,,,,,,,,,,,,,,,,,,,,,,,,,,,,,,,,,,,,,,,,,,,,,,,,,,,,,,,,,,,,,,,,,,,,,,,,,,,,,,,,,,,,,,,,,,,,,,,,,
,,,,888710,001,2023-11-09_20h37.25.304,fluency,2022.2.4,MacIntel,59.84082341,,,,,,,,,,,,,,space,19.5091,space,10.3621,0,0,0,37,1,4,4,img/B04_04.jpg,GCNB,Press J if the face is NONBINARY and K if the face is GENDER-CONFORMING,Gender-conforming means that the face appears to be a typical example of its gender. Nonbinary means that the face does not conform to any particular gender norms.,KJ,,,,,,,,,,,,,,,,,,,,,,,,,,,,,,,,,,,,,,,,,,,,,,,,,,,,,,,,,,,,,,,,,,,,,,,,,,,,,,,,,,,,,,,,,,,,,,,,,,,,,,,,,,,,,,,,,,,,,,,,,,,,,,,,,,,,,,,,,
,,,,888710,001,2023-11-09_20h37.25.304,fluency,2022.2.4,MacIntel,59.84082341,,,,,,,,,,,,,,,,,,,,,,,,,,,,,,c,4.7421,0,0,0,0,1,,,,,,,,,,,,,,,,,,,,,,,,,,,,,,,,,,,,,,,,,,,,,,,,,,,,,,,,,,,,,,,,,,,,,,,,,,,,,,,,,,,,,,,,,,,,,,,,,,,,,,,,,,,,,,,,,,,,,,,,,,,,,,,,,,
,,,,888710,001,2023-11-09_20h37.25.304,fluency,2022.2.4,MacIntel,59.84082341,,,,,,,,,,,,,,,,,,,,,,,,,,,,,,,,,,,,,a,3.1677,0,0,0,0,1,,,,,,,,,,,,,,,,,,,,,,,,,,,,,,,,,,,,,,,,,,,,,,,,,,,,,,,,,,,,,,,,,,,,,,,,,,,,,,,,,,,,,,,,,,,,,,,,,,,,,,,,,,,,,,,,,,,,,,,,,,,
,,,,888710,001,2023-11-09_20h37.25.304,fluency,2022.2.4,MacIntel,59.84082341,,,,,,,,,,,,,,,,,,,,,,,,,,,,,,,,,,,,,,,,,,,,c,3.9407,0,0,0,0,1,,,,,,,,,,,,,,,,,,,,,,,,,,,,,,,,,,,,,,,,,,,,,,,,,,,,,,,,,,,,,,,,,,,,,,,,,,,,,,,,,,,,,,,,,,,,,,,,,,,,,,,,,,,,,,,,,,,,
,,,,888710,001,2023-11-09_20h37.25.304,fluency,2022.2.4,MacIntel,59.84082341,,,,,,,,,,,,,,,,,,,,,,,,,,,,,,,,,,,,,,,,,,,,,,,,,,,space,1.1665,,1,space,8.3763,0,0,0,0,1,,,,,,,,,,,,,,,,,,,,,,,,,,,,,,,,,,,,,,,,,,,,,,,,,,,,,,,,,,,,,,,,,,,,,,,,,,,,,,,,,,,,,,,,,,,,,,,,,,,,,,,,,
,,,,888710,001,2023-11-09_20h37.25.304,fluency,2022.2.4,MacIntel,59.84082341,,,,,,,,,,,,,,,,,,,,,,,,,,,,,,,,,,,,,,,,,,,,,,,,,,,,,,,,,,,,,,0,0,0,0,1,,,,,,,,,,,,,,,,,,,,,,,,,,,,,,,,,,,,,,,,,,,,,,,,,,,,,,,,,,,,,,,,,,,,,,,,,,,,,,,,,,,,,,,,,,,,,,,,,,,,
,,,,888710,001,2023-11-09_20h37.25.304,fluency,2022.2.4,MacIntel,59.84082341,,,,,,,,,,,,,,,,,,,,,,,,,,,,,,,,,,,,,,,,,,,,,,,,,,,,,k,1,,,,,,,,1,0,1,0,1,2.7332,,,,,,,,,,,,,,,,,,,,,,,,,,,,,,,,,,,,,,,,,,,,,,,,,,,,,,,,,,,,,,,,,,,,,,,,,,,,,,,,,,,,,,,,,,,,,,,,,,,
,,,,888710,001,2023-11-09_20h37.25.304,fluency,2022.2.4,MacIntel,59.84082341,,,,,,,,,,,,,,,,,,,,,,,,,,,,,,,,,,,,,,,,,,,,,,,,,,,,,,,,,,,,,,,,,,,,7,3.4736,0,0,0,0,1,,,,,,,,,,,,,,,,,,,,,,,,,,,,,,,,,,,,,,,,,,,,,,,,,,,,,,,,,,,,,,,,,,,,,,,,,,,,,,,,,,,,,,,,,,,,
,,,,888710,001,2023-11-09_20h37.25.304,fluency,2022.2.4,MacIntel,59.84082341,,,,,,,,,,,,,,,,,,,,,,,,,,,,,,,,,,,,,,,,,,,,,,,,,,,,,,,,,,,,,,,,,,,,,,,,,,,space,3.2753,0,0,0,0,1,,,,,,,,,,,,,,,,,,,,,,,,,,,,,,,,,,,,,,,,,,,,,,,,,,,,,,,,,,,,,,,,,,,,,,,,,,,,,,,,,,,,,
,,,,888710,001,2023-11-09_20h37.25.304,fluency,2022.2.4,MacIntel,59.84082341,,,,,,,,,,,,,,,,,,,,,,,2,2,img/B02_02.jpg,GCNB,Press J if the face is NONBINARY and K if the face is GENDER-CONFORMING,Gender-conforming means that the face appears to be a typical example of its gender. Nonbinary means that the face does not conform to any particular gender norms.,KJ,,,,,,,,,,,,,,,,,,,,,,,,,,,,,,,,,,,,,,,,,,,,,,,,,,,,,195.2473,0,0,0,13,1,109,0,0,0,0,1,98,,,,,,,,,,,,,,,,,,,,,,,,,,,,,,,,,,,,,,,,,,,,,,,,,,,,,,,,,,,,,,,,,,,,,,,,
,,,,888710,001,2023-11-09_20h37.25.304,fluency,2022.2.4,MacIntel,59.84082341,,,,,,,,,,,,,,,,,,,,,,,,,,,,,,,,,,,,,,,,,,,,,,,,,,,,,,,,,,,,,,,,,,,,,,,,,,,,,,,,,,,,,,,,,0,0,0,0,1,,"[""k""]",[1.563999999999993],1,"[""k""]",[1.5639000000059582],,,,,,,,,,,,,,,,,,,,,,,,,,,,,,,,,,,,,,,,,,,,,,,,,,,,,,,,,,,,,,,,,,,
,,,,888710,001,2023-11-09_20h37.25.304,fluency,2022.2.4,MacIntel,59.84082341,,,,,,,,,,,,,,,,,,,,,,,2,2,img/B02_02.jpg,GCNB,Press J if the face is NONBINARY and K if the face is GENDER-CONFORMING,Gender-conforming means that the face appears to be a typical example of its gender. Nonbinary means that the face does not conform to any particular gender norms.,KJ,,,,,,,,,,,,,,,,,,,,,,,,,,,,,,,,,,,,,,,6,1.9829,,,,,,,,,,,,,,0,0,0,13,1,,,,,,,,,,,,,space,8.9318,,,,,,,,,,,,,,,,,,,,,,,,,,,,,,,,,,,,,,,,,,,,,,,,,,,,,,,,,,,,,,,,,
,,,,888710,001,2023-11-09_20h37.25.304,fluency,2022.2.4,MacIntel,59.84082341,,,,,,,,,,,,,,,,,,,,,,,10,5,img/B05_10.jpg,GCNB,Press J if the face is NONBINARY and K if the face is GENDER-CONFORMING,Gender-conforming means that the face appears to be a typical example of its gender. Nonbinary means that the face does not conform to any particular gender norms.,KJ,,,,,,,,,,,,,,,,,,,,,,,,,,,,,,,,,,,,,,,,,,,,,,,,,,,,,211.2401,0,1,1,54,1,109,0,0,0,0,1,98,,,,,,,,,,,,,,,,,,,,,,,,,,,,,,,,,,,,,,,,,,,,,,,,,,,,,,,,,,,,,,,,,,,,,,,,
,,,,888710,001,2023-11-09_20h37.25.304,fluency,2022.2.4,MacIntel,59.84082341,,,,,,,,,,,,,,,,,,,,,,,,,,,,,,,,,,,,,,,,,,,,,,,,,,,,,,,,,,,,,,,,,,,,,,,,,,,,,,,,,,,,,,,,,0,0,0,0,1,,"[""j""]",[0.9539999999999793],1,"[""j""]",[0.9540999999940425],,,,,,,,,,,,,,,,,,,,,,,,,,,,,,,,,,,,,,,,,,,,,,,,,,,,,,,,,,,,,,,,,,,
,,,,888710,001,2023-11-09_20h37.25.304,fluency,2022.2.4,MacIntel,59.84082341,,,,,,,,,,,,,,,,,,,,,,,10,5,img/B05_10.jpg,GCNB,Press J if the face is NONBINARY and K if the face is GENDER-CONFORMING,Gender-conforming means that the face appears to be a typical example of its gender. Nonbinary means that the face does not conform to any particular gender norms.,KJ,,,,,,,,,,,,,,,,,,,,,,,,,,,,,,,,,,,,,,,7,1.2261,,,,,,,,,,,,,,0,1,1,54,1,,,,,,,,,,,,,space,4.5345,,,,,,,,,,,,,,,,,,,,,,,,,,,,,,,,,,,,,,,,,,,,,,,,,,,,,,,,,,,,,,,,,
,,,,888710,001,2023-11-09_20h37.25.304,fluency,2022.2.4,MacIntel,59.84082341,,,,,,,,,,,,,,,,,,,,,,,1,9,img/B09_01.jpg,GCNB,Press J if the face is NONBINARY and K if the face is GENDER-CONFORMING,Gender-conforming means that the face appears to be a typical example of its gender. Nonbinary means that the face does not conform to any particular gender norms.,KJ,,,,,,,,,,,,,,,,,,,,,,,,,,,,,,,,,,,,,,,,,,,,,,,,,,,,,222.052,0,2,2,89,1,109,0,0,0,0,1,98,,,,,,,,,,,,,,,,,,,,,,,,,,,,,,,,,,,,,,,,,,,,,,,,,,,,,,,,,,,,,,,,,,,,,,,,
,,,,888710,001,2023-11-09_20h37.25.304,fluency,2022.2.4,MacIntel,59.84082341,,,,,,,,,,,,,,,,,,,,,,,,,,,,,,,,,,,,,,,,,,,,,,,,,,,,,,,,,,,,,,,,,,,,,,,,,,,,,,,,,,,,,,,,,0,0,0,0,1,,"[""k""]",[1.4612000000029752],1,"[""k""]",[1.4612000000029752],,,,,,,,,,,,,,,,,,,,,,,,,,,,,,,,,,,,,,,,,,,,,,,,,,,,,,,,,,,,,,,,,,,
,,,,888710,001,2023-11-09_20h37.25.304,fluency,2022.2.4,MacIntel,59.84082341,,,,,,,,,,,,,,,,,,,,,,,1,9,img/B09_01.jpg,GCNB,Press J if the face is NONBINARY and K if the face is GENDER-CONFORMING,Gender-conforming means that the face appears to be a typical example of its gender. Nonbinary means that the face does not conform to any particular gender norms.,KJ,,,,,,,,,,,,,,,,,,,,,,,,,,,,,,,,,,,,,,,5,1.4396,,,,,,,,,,,,,,0,2,2,89,1,,,,,,,,,,,,,space,1.1606,,,,,,,,,,,,,,,,,,,,,,,,,,,,,,,,,,,,,,,,,,,,,,,,,,,,,,,,,,,,,,,,,
,,,,888710,001,2023-11-09_20h37.25.304,fluency,2022.2.4,MacIntel,59.84082341,,,,,,,,,,,,,,,,,,,,,,,5,3,img/B03_05.jpg,GCNB,Press J if the face is NONBINARY and K if the face is GENDER-CONFORMING,Gender-conforming means that the face appears to be a typical example of its gender. Nonbinary means that the face does not conform to any particular gender norms.,KJ,,,,,,,,,,,,,,,,,,,,,,,,,,,,,,,,,,,,,,,,,,,,,,,,,,,,,229.7031,0,3,3,27,1,109,0,0,0,0,1,98,,,,,,,,,,,,,,,,,,,,,,,,,,,,,,,,,,,,,,,,,,,,,,,,,,,,,,,,,,,,,,,,,,,,,,,,
,,,,888710,001,2023-11-09_20h37.25.304,fluency,2022.2.4,MacIntel,59.84082341,,,,,,,,,,,,,,,,,,,,,,,,,,,,,,,,,,,,,,,,,,,,,,,,,,,,,,,,,,,,,,,,,,,,,,,,,,,,,,,,,,,,,,,,,0,0,0,0,1,,"[""j""]",[1.750200000002991],1,"[""j""]",[1.750200000002991],,,,,,,,,,,,,,,,,,,,,,,,,,,,,,,,,,,,,,,,,,,,,,,,,,,,,,,,,,,,,,,,,,,
,,,,888710,001,2023-11-09_20h37.25.304,fluency,2022.2.4,MacIntel,59.84082341,,,,,,,,,,,,,,,,,,,,,,,5,3,img/B03_05.jpg,GCNB,Press J if the face is NONBINARY and K if the face is GENDER-CONFORMING,Gender-conforming means that the face appears to be a typical example of its gender. Nonbinary means that the face does not conform to any particular gender norms.,KJ,,,,,,,,,,,,,,,,,,,,,,,,,,,,,,,,,,,,,,,6,2.0981,,,,,,,,,,,,,,0,3,3,27,1,,,,,,,,,,,,,space,2.6919,,,,,,,,,,,,,,,,,,,,,,,,,,,,,,,,,,,,,,,,,,,,,,,,,,,,,,,,,,,,,,,,,
,,,,888710,001,2023-11-09_20h37.25.304,fluency,2022.2.4,MacIntel,59.84082341,,,,,,,,,,,,,,,,,,,,,,,10,8,img/B08_10.jpg,GCNB,Press J if the face is NONBINARY and K if the face is GENDER-CONFORMING,Gender-conforming means that the face appears to be a typical example of its gender. Nonbinary means that the face does not conform to any particular gender norms.,KJ,,,,,,,,,,,,,,,,,,,,,,,,,,,,,,,,,,,,,,,,,,,,,,,,,,,,,239.5479,0,4,4,87,1,109,0,0,0,0,1,98,,,,,,,,,,,,,,,,,,,,,,,,,,,,,,,,,,,,,,,,,,,,,,,,,,,,,,,,,,,,,,,,,,,,,,,,
,,,,888710,001,2023-11-09_20h37.25.304,fluency,2022.2.4,MacIntel,59.84082341,,,,,,,,,,,,,,,,,,,,,,,,,,,,,,,,,,,,,,,,,,,,,,,,,,,,,,,,,,,,,,,,,,,,,,,,,,,,,,,,,,,,,,,,,0,0,0,0,1,,"[""k""]",[1.4333999999910247],1,"[""k""]",[1.4333999999910247],,,,,,,,,,,,,,,,,,,,,,,,,,,,,,,,,,,,,,,,,,,,,,,,,,,,,,,,,,,,,,,,,,,
,,,,888710,001,2023-11-09_20h37.25.304,fluency,2022.2.4,MacIntel,59.84082341,,,,,,,,,,,,,,,,,,,,,,,10,8,img/B08_10.jpg,GCNB,Press J if the face is NONBINARY and K if the face is GENDER-CONFORMING,Gender-conforming means that the face appears to be a typical example of its gender. Nonbinary means that the face does not conform to any particular gender norms.,KJ,,,,,,,,,,,,,,,,,,,,,,,,,,,,,,,,,,,,,,,5,1.1015,,,,,,,,,,,,,,0,4,4,87,1,,,,,,,,,,,,,space,1.9098,,,,,,,,,,,,,,,,,,,,,,,,,,,,,,,,,,,,,,,,,,,,,,,,,,,,,,,,,,,,,,,,,
,,,,888710,001,2023-11-09_20h37.25.304,fluency,2022.2.4,MacIntel,59.84082341,,,,,,,,,,,,,,,,,,,,,,,3,9,img/B09_03.jpg,GCNB,Press J if the face is NONBINARY and K if the face is GENDER-CONFORMING,Gender-conforming means that the face appears to be a typical example of its gender. Nonbinary means that the face does not conform to any particular gender norms.,KJ,,,,,,,,,,,,,,,,,,,,,,,,,,,,,,,,,,,,,,,,,,,,,,,,,,,,,247.6345,0,5,5,91,1,109,0,0,0,0,1,98,,,,,,,,,,,,,,,,,,,,,,,,,,,,,,,,,,,,,,,,,,,,,,,,,,,,,,,,,,,,,,,,,,,,,,,,
,,,,888710,001,2023-11-09_20h37.25.304,fluency,2022.2.4,MacIntel,59.84082341,,,,,,,,,,,,,,,,,,,,,,,,,,,,,,,,,,,,,,,,,,,,,,,,,,,,,,,,,,,,,,,,,,,,,,,,,,,,,,,,,,,,,,,,,0,0,0,0,1,,"[""k""]",[1.8117999999970493],1,"[""k""]",[1.8117000000029861],,,,,,,,,,,,,,,,,,,,,,,,,,,,,,,,,,,,,,,,,,,,,,,,,,,,,,,,,,,,,,,,,,,
,,,,888710,001,2023-11-09_20h37.25.304,fluency,2022.2.4,MacIntel,59.84082341,,,,,,,,,,,,,,,,,,,,,,,3,9,img/B09_03.jpg,GCNB,Press J if the face is NONBINARY and K if the face is GENDER-CONFORMING,Gender-conforming means that the face appears to be a typical example of its gender. Nonbinary means that the face does not conform to any particular gender norms.,KJ,,,,,,,,,,,,,,,,,,,,,,,,,,,,,,,,,,,,,,,5,1.9421,,,,,,,,,,,,,,0,5,5,91,1,,,,,,,,,,,,,space,1.4291,,,,,,,,,,,,,,,,,,,,,,,,,,,,,,,,,,,,,,,,,,,,,,,,,,,,,,,,,,,,,,,,,
,,,,888710,001,2023-11-09_20h37.25.304,fluency,2022.2.4,MacIntel,59.84082341,,,,,,,,,,,,,,,,,,,,,,,2,9,img/B09_02.jpg,GCNB,Press J if the face is NONBINARY and K if the face is GENDER-CONFORMING,Gender-conforming means that the face appears to be a typical example of its gender. Nonbinary means that the face does not conform to any particular gender norms.,KJ,,,,,,,,,,,,,,,,,,,,,,,,,,,,,,,,,,,,,,,,,,,,,,,,,,,,,256.0597,0,6,6,90,1,109,0,0,0,0,1,98,,,,,,,,,,,,,,,,,,,,,,,,,,,,,,,,,,,,,,,,,,,,,,,,,,,,,,,,,,,,,,,,,,,,,,,,
,,,,888710,001,2023-11-09_20h37.25.304,fluency,2022.2.4,MacIntel,59.84082341,,,,,,,,,,,,,,,,,,,,,,,,,,,,,,,,,,,,,,,,,,,,,,,,,,,,,,,,,,,,,,,,,,,,,,,,,,,,,,,,,,,,,,,,,0,0,0,0,1,,"[""k""]",[1.9739000000059832],1,"[""k""]",[1.9739999999999895],,,,,,,,,,,,,,,,,,,,,,,,,,,,,,,,,,,,,,,,,,,,,,,,,,,,,,,,,,,,,,,,,,,
,,,,888710,001,2023-11-09_20h37.25.304,fluency,2022.2.4,MacIntel,59.84082341,,,,,,,,,,,,,,,,,,,,,,,2,9,img/B09_02.jpg,GCNB,Press J if the face is NONBINARY and K if the face is GENDER-CONFORMING,Gender-conforming means that the face appears to be a typical example of its gender. Nonbinary means that the face does not conform to any particular gender norms.,KJ,,,,,,,,,,,,,,,,,,,,,,,,,,,,,,,,,,,,,,,5,1.2065,,,,,,,,,,,,,,0,6,6,90,1,,,,,,,,,,,,,space,2.468,,,,,,,,,,,,,,,,,,,,,,,,,,,,,,,,,,,,,,,,,,,,,,,,,,,,,,,,,,,,,,,,,
,,,,888710,001,2023-11-09_20h37.25.304,fluency,2022.2.4,MacIntel,59.84082341,,,,,,,,,,,,,,,,,,,,,,,4,5,img/B05_04.jpg,GCNB,Press J if the face is NONBINARY and K if the face is GENDER-CONFORMING,Gender-conforming means that the face appears to be a typical example of its gender. Nonbinary means that the face does not conform to any particular gender norms.,KJ,,,,,,,,,,,,,,,,,,,,,,,,,,,,,,,,,,,,,,,,,,,,,,,,,,,,,264.7825,0,7,7,48,1,109,0,0,0,0,1,98,,,,,,,,,,,,,,,,,,,,,,,,,,,,,,,,,,,,,,,,,,,,,,,,,,,,,,,,,,,,,,,,,,,,,,,,
,,,,888710,001,2023-11-09_20h37.25.304,fluency,2022.2.4,MacIntel,59.84082341,,,,,,,,,,,,,,,,,,,,,,,,,,,,,,,,,,,,,,,,,,,,,,,,,,,,,,,,,,,,,,,,,,,,,,,,,,,,,,,,,,,,,,,,,0,0,0,0,1,,"[""j""]",[1.9297999999969875],1,"[""j""]",[1.9296999999880313],,,,,,,,,,,,,,,,,,,,,,,,,,,,,,,,,,,,,,,,,,,,,,,,,,,,,,,,,,,,,,,,,,,
,,,,888710,001,2023-11-09_20h37.25.304,fluency,2022.2.4,MacIntel,59.84082341,,,,,,,,,,,,,,,,,,,,,,,4,5,img/B05_04.jpg,GCNB,Press J if the face is NONBINARY and K if the face is GENDER-CONFORMING,Gender-conforming means that the face appears to be a typical example of its gender. Nonbinary means that the face does not conform to any particular gender norms.,KJ,,,,,,,,,,,,,,,,,,,,,,,,,,,,,,,,,,,,,,,5,2.5412,,,,,,,,,,,,,,0,7,7,48,1,,,,,,,,,,,,,space,1.6654,,,,,,,,,,,,,,,,,,,,,,,,,,,,,,,,,,,,,,,,,,,,,,,,,,,,,,,,,,,,,,,,,
,,,,888710,001,2023-11-09_20h37.25.304,fluency,2022.2.4,MacIntel,59.84082341,,,,,,,,,,,,,,,,,,,,,,,1,3,img/B03_01.jpg,GCNB,Press J if the face is NONBINARY and K if the face is GENDER-CONFORMING,Gender-conforming means that the face appears to be a typical example of its gender. Nonbinary means that the face does not conform to any particular gender norms.,KJ,,,,,,,,,,,,,,,,,,,,,,,,,,,,,,,,,,,,,,,,,,,,,,,,,,,,,274.0401,0,8,8,23,1,109,0,0,0,0,1,98,,,,,,,,,,,,,,,,,,,,,,,,,,,,,,,,,,,,,,,,,,,,,,,,,,,,,,,,,,,,,,,,,,,,,,,,
,,,,888710,001,2023-11-09_20h37.25.304,fluency,2022.2.4,MacIntel,59.84082341,,,,,,,,,,,,,,,,,,,,,,,,,,,,,,,,,,,,,,,,,,,,,,,,,,,,,,,,,,,,,,,,,,,,,,,,,,,,,,,,,,,,,,,,,0,0,0,0,1,,"[""k""]",[2.578200000002994],1,"[""k""]",[2.578200000002994],,,,,,,,,,,,,,,,,,,,,,,,,,,,,,,,,,,,,,,,,,,,,,,,,,,,,,,,,,,,,,,,,,,
,,,,888710,001,2023-11-09_20h37.25.304,fluency,2022.2.4,MacIntel,59.84082341,,,,,,,,,,,,,,,,,,,,,,,1,3,img/B03_01.jpg,GCNB,Press J if the face is NONBINARY and K if the face is GENDER-CONFORMING,Gender-conforming means that the face appears to be a typical example of its gender. Nonbinary means that the face does not conform to any particular gender norms.,KJ,,,,,,,,,,,,,,,,,,,,,,,,,,,,,,,,,,,,,,,3,1.6452,,,,,,,,,,,,,,0,8,8,23,1,,,,,,,,,,,,,space,2.8994,,,,,,,,,,,,,,,,,,,,,,,,,,,,,,,,,,,,,,,,,,,,,,,,,,,,,,,,,,,,,,,,,
,,,,888710,001,2023-11-09_20h37.25.304,fluency,2022.2.4,MacIntel,59.84082341,,,,,,,,,,,,,,,,,,,,,,,1,1,img/B01_01.jpg,GCNB,Press J if the face is NONBINARY and K if the face is GENDER-CONFORMING,Gender-conforming means that the face appears to be a typical example of its gender. Nonbinary means that the face does not conform to any particular gender norms.,KJ,,,,,,,,,,,,,,,,,,,,,,,,,,,,,,,,,,,,,,,,,,,,,,,,,,,,,282.6312,0,9,9,1,1,109,0,0,0,0,1,98,,,,,,,,,,,,,,,,,,,,,,,,,,,,,,,,,,,,,,,,,,,,,,,,,,,,,,,,,,,,,,,,,,,,,,,,
,,,,888710,001,2023-11-09_20h37.25.304,fluency,2022.2.4,MacIntel,59.84082341,,,,,,,,,,,,,,,,,,,,,,,,,,,,,,,,,,,,,,,,,,,,,,,,,,,,,,,,,,,,,,,,,,,,,,,,,,,,,,,,,,,,,,,,,0,0,0,0,1,,"[""k""]",[1.7939000000059764],1,"[""k""]",[1.7937999999970202],,,,,,,,,,,,,,,,,,,,,,,,,,,,,,,,,,,,,,,,,,,,,,,,,,,,,,,,,,,,,,,,,,,
,,,,888710,001,2023-11-09_20h37.25.304,fluency,2022.2.4,MacIntel,59.84082341,,,,,,,,,,,,,,,,,,,,,,,1,1,img/B01_01.jpg,GCNB,Press J if the face is NONBINARY and K if the face is GENDER-CONFORMING,Gender-conforming means that the face appears to be a typical example of its gender. Nonbinary means that the face does not conform to any particular gender norms.,KJ,,,,,,,,,,,,,,,,,,,,,,,,,,,,,,,,,,,,,,,3,1.1822,,,,,,,,,,,,,,0,9,9,1,1,,,,,,,,,,,,,space,1.4969,,,,,,,,,,,,,,,,,,,,,,,,,,,,,,,,,,,,,,,,,,,,,,,,,,,,,,,,,,,,,,,,,
,,,,888710,001,2023-11-09_20h37.25.304,fluency,2022.2.4,MacIntel,59.84082341,,,,,,,,,,,,,,,,,,,,,,,6,5,img/B05_06.jpg,GCNB,Press J if the face is NONBINARY and K if the face is GENDER-CONFORMING,Gender-conforming means that the face appears to be a typical example of its gender. Nonbinary means that the face does not conform to any particular gender norms.,KJ,,,,,,,,,,,,,,,,,,,,,,,,,,,,,,,,,,,,,,,,,,,,,,,,,,,,,289.3651,0,10,10,50,1,109,0,0,0,0,1,98,,,,,,,,,,,,,,,,,,,,,,,,,,,,,,,,,,,,,,,,,,,,,,,,,,,,,,,,,,,,,,,,,,,,,,,,
,,,,888710,001,2023-11-09_20h37.25.304,fluency,2022.2.4,MacIntel,59.84082341,,,,,,,,,,,,,,,,,,,,,,,,,,,,,,,,,,,,,,,,,,,,,,,,,,,,,,,,,,,,,,,,,,,,,,,,,,,,,,,,,,,,,,,,,0,0,0,0,1,,"[""j""]",[2.2817999999970198],1,"[""j""]",[2.2818000000119127],,,,,,,,,,,,,,,,,,,,,,,,,,,,,,,,,,,,,,,,,,,,,,,,,,,,,,,,,,,,,,,,,,,
,,,,888710,001,2023-11-09_20h37.25.304,fluency,2022.2.4,MacIntel,59.84082341,,,,,,,,,,,,,,,,,,,,,,,6,5,img/B05_06.jpg,GCNB,Press J if the face is NONBINARY and K if the face is GENDER-CONFORMING,Gender-conforming means that the face appears to be a typical example of its gender. Nonbinary means that the face does not conform to any particular gender norms.,KJ,,,,,,,,,,,,,,,,,,,,,,,,,,,,,,,,,,,,,,,5,1.647,,,,,,,,,,,,,,0,10,10,50,1,,,,,,,,,,,,,space,2.4792,,,,,,,,,,,,,,,,,,,,,,,,,,,,,,,,,,,,,,,,,,,,,,,,,,,,,,,,,,,,,,,,,
,,,,888710,001,2023-11-09_20h37.25.304,fluency,2022.2.4,MacIntel,59.84082341,,,,,,,,,,,,,,,,,,,,,,,8,10,img/B10_08.jpg,GCNB,Press J if the face is NONBINARY and K if the face is GENDER-CONFORMING,Gender-conforming means that the face appears to be a typical example of its gender. Nonbinary means that the face does not conform to any particular gender norms.,KJ,,,,,,,,,,,,,,,,,,,,,,,,,,,,,,,,,,,,,,,,,,,,,,,,,,,,,298.5384,0,11,11,107,1,109,0,0,0,0,1,98,,,,,,,,,,,,,,,,,,,,,,,,,,,,,,,,,,,,,,,,,,,,,,,,,,,,,,,,,,,,,,,,,,,,,,,,
,,,,888710,001,2023-11-09_20h37.25.304,fluency,2022.2.4,MacIntel,59.84082341,,,,,,,,,,,,,,,,,,,,,,,,,,,,,,,,,,,,,,,,,,,,,,,,,,,,,,,,,,,,,,,,,,,,,,,,,,,,,,,,,,,,,,,,,0,0,0,0,1,,"[""k""]",[1.8992999999969697],1,"[""k""]",[1.8992999999969697],,,,,,,,,,,,,,,,,,,,,,,,,,,,,,,,,,,,,,,,,,,,,,,,,,,,,,,,,,,,,,,,,,,
,,,,888710,001,2023-11-09_20h37.25.304,fluency,2022.2.4,MacIntel,59.84082341,,,,,,,,,,,,,,,,,,,,,,,8,10,img/B10_08.jpg,GCNB,Press J if the face is NONBINARY and K if the face is GENDER-CONFORMING,Gender-conforming means that the face appears to be a typical example of its gender. Nonbinary means that the face does not conform to any particular gender norms.,KJ,,,,,,,,,,,,,,,,,,,,,,,,,,,,,,,,,,,,,,,5,1.6365,,,,,,,,,,,,,,0,11,11,107,1,,,,,,,,,,,,,space,1.487,,,,,,,,,,,,,,,,,,,,,,,,,,,,,,,,,,,,,,,,,,,,,,,,,,,,,,,,,,,,,,,,,
,,,,888710,001,2023-11-09_20h37.25.304,fluency,2022.2.4,MacIntel,59.84082341,,,,,,,,,,,,,,,,,,,,,,,2,4,img/B04_02.jpg,GCNB,Press J if the face is NONBINARY and K if the face is GENDER-CONFORMING,Gender-conforming means that the face appears to be a typical example of its gender. Nonbinary means that the face does not conform to any particular gender norms.,KJ,,,,,,,,,,,,,,,,,,,,,,,,,,,,,,,,,,,,,,,,,,,,,,,,,,,,,305.7244,0,12,12,35,1,109,0,0,0,0,1,98,,,,,,,,,,,,,,,,,,,,,,,,,,,,,,,,,,,,,,,,,,,,,,,,,,,,,,,,,,,,,,,,,,,,,,,,
,,,,888710,001,2023-11-09_20h37.25.304,fluency,2022.2.4,MacIntel,59.84082341,,,,,,,,,,,,,,,,,,,,,,,,,,,,,,,,,,,,,,,,,,,,,,,,,,,,,,,,,,,,,,,,,,,,,,,,,,,,,,,,,,,,,,,,,0,0,0,0,1,,"[""k""]",[1.4280000000000541],1,"[""k""]",[1.4281000000089534],,,,,,,,,,,,,,,,,,,,,,,,,,,,,,,,,,,,,,,,,,,,,,,,,,,,,,,,,,,,,,,,,,,
,,,,888710,001,2023-11-09_20h37.25.304,fluency,2022.2.4,MacIntel,59.84082341,,,,,,,,,,,,,,,,,,,,,,,2,4,img/B04_02.jpg,GCNB,Press J if the face is NONBINARY and K if the face is GENDER-CONFORMING,Gender-conforming means that the face appears to be a typical example of its gender. Nonbinary means that the face does not conform to any particular gender norms.,KJ,,,,,,,,,,,,,,,,,,,,,,,,,,,,,,,,,,,,,,,6,0.99,,,,,,,,,,,,,,0,12,12,35,1,,,,,,,,,,,,,space,1.5954,,,,,,,,,,,,,,,,,,,,,,,,,,,,,,,,,,,,,,,,,,,,,,,,,,,,,,,,,,,,,,,,,
,,,,888710,001,2023-11-09_20h37.25.304,fluency,2022.2.4,MacIntel,59.84082341,,,,,,,,,,,,,,,,,,,,,,,8,8,img/B08_08.jpg,GCNB,Press J if the face is NONBINARY and K if the face is GENDER-CONFORMING,Gender-conforming means that the face appears to be a typical example of its gender. Nonbinary means that the face does not conform to any particular gender norms.,KJ,,,,,,,,,,,,,,,,,,,,,,,,,,,,,,,,,,,,,,,,,,,,,,,,,,,,,312.3588,0,13,13,85,1,109,0,0,0,0,1,98,,,,,,,,,,,,,,,,,,,,,,,,,,,,,,,,,,,,,,,,,,,,,,,,,,,,,,,,,,,,,,,,,,,,,,,,
,,,,888710,001,2023-11-09_20h37.25.304,fluency,2022.2.4,MacIntel,59.84082341,,,,,,,,,,,,,,,,,,,,,,,,,,,,,,,,,,,,,,,,,,,,,,,,,,,,,,,,,,,,,,,,,,,,,,,,,,,,,,,,,,,,,,,,,0,0,0,0,1,,"[""k""]",[1.4453000000119118],1,"[""k""]",[1.4452999999970189],,,,,,,,,,,,,,,,,,,,,,,,,,,,,,,,,,,,,,,,,,,,,,,,,,,,,,,,,,,,,,,,,,,
,,,,888710,001,2023-11-09_20h37.25.304,fluency,2022.2.4,MacIntel,59.84082341,,,,,,,,,,,,,,,,,,,,,,,8,8,img/B08_08.jpg,GCNB,Press J if the face is NONBINARY and K if the face is GENDER-CONFORMING,Gender-conforming means that the face appears to be a typical example of its gender. Nonbinary means that the face does not conform to any particular gender norms.,KJ,,,,,,,,,,,,,,,,,,,,,,,,,,,,,,,,,,,,,,,5,1.1233,,,,,,,,,,,,,,0,13,13,85,1,,,,,,,,,,,,,space,1.008,,,,,,,,,,,,,,,,,,,,,,,,,,,,,,,,,,,,,,,,,,,,,,,,,,,,,,,,,,,,,,,,,
,,,,888710,001,2023-11-09_20h37.25.304,fluency,2022.2.4,MacIntel,59.84082341,,,,,,,,,,,,,,,,,,,,,,,9,1,img/B01_09.jpg,GCNB,Press J if the face is NONBINARY and K if the face is GENDER-CONFORMING,Gender-conforming means that the face appears to be a typical example of its gender. Nonbinary means that the face does not conform to any particular gender norms.,KJ,,,,,,,,,,,,,,,,,,,,,,,,,,,,,,,,,,,,,,,,,,,,,,,,,,,,,318.5426,0,14,14,9,1,109,0,0,0,0,1,98,,,,,,,,,,,,,,,,,,,,,,,,,,,,,,,,,,,,,,,,,,,,,,,,,,,,,,,,,,,,,,,,,,,,,,,,
,,,,888710,001,2023-11-09_20h37.25.304,fluency,2022.2.4,MacIntel,59.84082341,,,,,,,,,,,,,,,,,,,,,,,,,,,,,,,,,,,,,,,,,,,,,,,,,,,,,,,,,,,,,,,,,,,,,,,,,,,,,,,,,,,,,,,,,0,0,0,0,1,,"[""k""]",[2.8100999999940086],1,"[""k""]",[2.8102000000029648],,,,,,,,,,,,,,,,,,,,,,,,,,,,,,,,,,,,,,,,,,,,,,,,,,,,,,,,,,,,,,,,,,,
,,,,888710,001,2023-11-09_20h37.25.304,fluency,2022.2.4,MacIntel,59.84082341,,,,,,,,,,,,,,,,,,,,,,,9,1,img/B01_09.jpg,GCNB,Press J if the face is NONBINARY and K if the face is GENDER-CONFORMING,Gender-conforming means that the face appears to be a typical example of its gender. Nonbinary means that the face does not conform to any particular gender norms.,KJ,,,,,,,,,,,,,,,,,,,,,,,,,,,,,,,,,,,,,,,4,1.9364,,,,,,,,,,,,,,0,14,14,9,1,,,,,,,,,,,,,space,0.878,,,,,,,,,,,,,,,,,,,,,,,,,,,,,,,,,,,,,,,,,,,,,,,,,,,,,,,,,,,,,,,,,
,,,,888710,001,2023-11-09_20h37.25.304,fluency,2022.2.4,MacIntel,59.84082341,,,,,,,,,,,,,,,,,,,,,,,9,10,img/B10_09.jpg,GCNB,Press J if the face is NONBINARY and K if the face is GENDER-CONFORMING,Gender-conforming means that the face appears to be a typical example of its gender. Nonbinary means that the face does not conform to any particular gender norms.,KJ,,,,,,,,,,,,,,,,,,,,,,,,,,,,,,,,,,,,,,,,,,,,,,,,,,,,,326.3961,0,15,15,108,1,109,0,0,0,0,1,98,,,,,,,,,,,,,,,,,,,,,,,,,,,,,,,,,,,,,,,,,,,,,,,,,,,,,,,,,,,,,,,,,,,,,,,,
,,,,888710,001,2023-11-09_20h37.25.304,fluency,2022.2.4,MacIntel,59.84082341,,,,,,,,,,,,,,,,,,,,,,,,,,,,,,,,,,,,,,,,,,,,,,,,,,,,,,,,,,,,,,,,,,,,,,,,,,,,,,,,,,,,,,,,,0,0,0,0,1,,"[""k""]",[2.0459999999999923],1,"[""k""]",[2.045900000005929],,,,,,,,,,,,,,,,,,,,,,,,,,,,,,,,,,,,,,,,,,,,,,,,,,,,,,,,,,,,,,,,,,,
,,,,888710,001,2023-11-09_20h37.25.304,fluency,2022.2.4,MacIntel,59.84082341,,,,,,,,,,,,,,,,,,,,,,,9,10,img/B10_09.jpg,GCNB,Press J if the face is NONBINARY and K if the face is GENDER-CONFORMING,Gender-conforming means that the face appears to be a typical example of its gender. Nonbinary means that the face does not conform to any particular gender norms.,KJ,,,,,,,,,,,,,,,,,,,,,,,,,,,,,,,,,,,,,,,6,0.6583,,,,,,,,,,,,,,0,15,15,108,1,,,,,,,,,,,,,space,0.8779,,,,,,,,,,,,,,,,,,,,,,,,,,,,,,,,,,,,,,,,,,,,,,,,,,,,,,,,,,,,,,,,,
,,,,888710,001,2023-11-09_20h37.25.304,fluency,2022.2.4,MacIntel,59.84082341,,,,,,,,,,,,,,,,,,,,,,,4,3,img/B03_04.jpg,GCNB,Press J if the face is NONBINARY and K if the face is GENDER-CONFORMING,Gender-conforming means that the face appears to be a typical example of its gender. Nonbinary means that the face does not conform to any particular gender norms.,KJ,,,,,,,,,,,,,,,,,,,,,,,,,,,,,,,,,,,,,,,,,,,,,,,,,,,,,331.9793,0,16,16,26,1,109,0,0,0,0,1,98,,,,,,,,,,,,,,,,,,,,,,,,,,,,,,,,,,,,,,,,,,,,,,,,,,,,,,,,,,,,,,,,,,,,,,,,
,,,,888710,001,2023-11-09_20h37.25.304,fluency,2022.2.4,MacIntel,59.84082341,,,,,,,,,,,,,,,,,,,,,,,,,,,,,,,,,,,,,,,,,,,,,,,,,,,,,,,,,,,,,,,,,,,,,,,,,,,,,,,,,,,,,,,,,0,0,0,0,1,,"[""j""]",[1.9987999999970043],1,"[""j""]",[1.9988999999910675],,,,,,,,,,,,,,,,,,,,,,,,,,,,,,,,,,,,,,,,,,,,,,,,,,,,,,,,,,,,,,,,,,,
,,,,888710,001,2023-11-09_20h37.25.304,fluency,2022.2.4,MacIntel,59.84082341,,,,,,,,,,,,,,,,,,,,,,,4,3,img/B03_04.jpg,GCNB,Press J if the face is NONBINARY and K if the face is GENDER-CONFORMING,Gender-conforming means that the face appears to be a typical example of its gender. Nonbinary means that the face does not conform to any particular gender norms.,KJ,,,,,,,,,,,,,,,,,,,,,,,,,,,,,,,,,,,,,,,4,1.5042,,,,,,,,,,,,,,0,16,16,26,1,,,,,,,,,,,,,space,1.4061,,,,,,,,,,,,,,,,,,,,,,,,,,,,,,,,,,,,,,,,,,,,,,,,,,,,,,,,,,,,,,,,,
,,,,888710,001,2023-11-09_20h37.25.304,fluency,2022.2.4,MacIntel,59.84082341,,,,,,,,,,,,,,,,,,,,,,,0,8,img/B08_00.jpg,GCNB,Press J if the face is NONBINARY and K if the face is GENDER-CONFORMING,Gender-conforming means that the face appears to be a typical example of its gender. Nonbinary means that the face does not conform to any particular gender norms.,KJ,,,,,,,,,,,,,,,,,,,,,,,,,,,,,,,,,,,,,,,,,,,,,,,,,,,,,338.9476,0,17,17,77,1,109,0,0,0,0,1,98,,,,,,,,,,,,,,,,,,,,,,,,,,,,,,,,,,,,,,,,,,,,,,,,,,,,,,,,,,,,,,,,,,,,,,,,
,,,,888710,001,2023-11-09_20h37.25.304,fluency,2022.2.4,MacIntel,59.84082341,,,,,,,,,,,,,,,,,,,,,,,,,,,,,,,,,,,,,,,,,,,,,,,,,,,,,,,,,,,,,,,,,,,,,,,,,,,,,,,,,,,,,,,,,0,0,0,0,1,,"[""j""]",[1.7475000000000023],1,"[""j""]",[1.747400000005939],,,,,,,,,,,,,,,,,,,,,,,,,,,,,,,,,,,,,,,,,,,,,,,,,,,,,,,,,,,,,,,,,,,
,,,,888710,001,2023-11-09_20h37.25.304,fluency,2022.2.4,MacIntel,59.84082341,,,,,,,,,,,,,,,,,,,,,,,0,8,img/B08_00.jpg,GCNB,Press J if the face is NONBINARY and K if the face is GENDER-CONFORMING,Gender-conforming means that the face appears to be a typical example of its gender. Nonbinary means that the face does not conform to any particular gender norms.,KJ,,,,,,,,,,,,,,,,,,,,,,,,,,,,,,,,,,,,,,,4,0.5497,,,,,,,,,,,,,,0,17,17,77,1,,,,,,,,,,,,,space,1.9087,,,,,,,,,,,,,,,,,,,,,,,,,,,,,,,,,,,,,,,,,,,,,,,,,,,,,,,,,,,,,,,,,
,,,,888710,001,2023-11-09_20h37.25.304,fluency,2022.2.4,MacIntel,59.84082341,,,,,,,,,,,,,,,,,,,,,,,10,6,img/B06_10.jpg,GCNB,Press J if the face is NONBINARY and K if the face is GENDER-CONFORMING,Gender-conforming means that the face appears to be a typical example of its gender. Nonbinary means that the face does not conform to any particular gender norms.,KJ,,,,,,,,,,,,,,,,,,,,,,,,,,,,,,,,,,,,,,,,,,,,,,,,,,,,,346.467,0,18,18,65,1,109,0,0,0,0,1,98,,,,,,,,,,,,,,,,,,,,,,,,,,,,,,,,,,,,,,,,,,,,,,,,,,,,,,,,,,,,,,,,,,,,,,,,
,,,,888710,001,2023-11-09_20h37.25.304,fluency,2022.2.4,MacIntel,59.84082341,,,,,,,,,,,,,,,,,,,,,,,,,,,,,,,,,,,,,,,,,,,,,,,,,,,,,,,,,,,,,,,,,,,,,,,,,,,,,,,,,,,,,,,,,0,0,0,0,1,,"[""k""]",[1.6327999999970189],1,"[""k""]",[1.6327999999970189],,,,,,,,,,,,,,,,,,,,,,,,,,,,,,,,,,,,,,,,,,,,,,,,,,,,,,,,,,,,,,,,,,,
,,,,888710,001,2023-11-09_20h37.25.304,fluency,2022.2.4,MacIntel,59.84082341,,,,,,,,,,,,,,,,,,,,,,,10,6,img/B06_10.jpg,GCNB,Press J if the face is NONBINARY and K if the face is GENDER-CONFORMING,Gender-conforming means that the face appears to be a typical example of its gender. Nonbinary means that the face does not conform to any particular gender norms.,KJ,,,,,,,,,,,,,,,,,,,,,,,,,,,,,,,,,,,,,,,6,0.7954,,,,,,,,,,,,,,0,18,18,65,1,,,,,,,,,,,,,space,0.6396,,,,,,,,,,,,,,,,,,,,,,,,,,,,,,,,,,,,,,,,,,,,,,,,,,,,,,,,,,,,,,,,,
,,,,888710,001,2023-11-09_20h37.25.304,fluency,2022.2.4,MacIntel,59.84082341,,,,,,,,,,,,,,,,,,,,,,,0,9,img/B09_00.jpg,GCNB,Press J if the face is NONBINARY and K if the face is GENDER-CONFORMING,Gender-conforming means that the face appears to be a typical example of its gender. Nonbinary means that the face does not conform to any particular gender norms.,KJ,,,,,,,,,,,,,,,,,,,,,,,,,,,,,,,,,,,,,,,,,,,,,,,,,,,,,351.9642,0,19,19,88,1,109,0,0,0,0,1,98,,,,,,,,,,,,,,,,,,,,,,,,,,,,,,,,,,,,,,,,,,,,,,,,,,,,,,,,,,,,,,,,,,,,,,,,
,,,,888710,001,2023-11-09_20h37.25.304,fluency,2022.2.4,MacIntel,59.84082341,,,,,,,,,,,,,,,,,,,,,,,,,,,,,,,,,,,,,,,,,,,,,,,,,,,,,,,,,,,,,,,,,,,,,,,,,,,,,,,,,,,,,,,,,0,0,0,0,1,,"[""k""]",[1.4920000000000186],1,"[""k""]",[1.4919000000060123],,,,,,,,,,,,,,,,,,,,,,,,,,,,,,,,,,,,,,,,,,,,,,,,,,,,,,,,,,,,,,,,,,,
,,,,888710,001,2023-11-09_20h37.25.304,fluency,2022.2.4,MacIntel,59.84082341,,,,,,,,,,,,,,,,,,,,,,,0,9,img/B09_00.jpg,GCNB,Press J if the face is NONBINARY and K if the face is GENDER-CONFORMING,Gender-conforming means that the face appears to be a typical example of its gender. Nonbinary means that the face does not conform to any particular gender norms.,KJ,,,,,,,,,,,,,,,,,,,,,,,,,,,,,,,,,,,,,,,5,0.8726,,,,,,,,,,,,,,0,19,19,88,1,,,,,,,,,,,,,space,0.4768,,,,,,,,,,,,,,,,,,,,,,,,,,,,,,,,,,,,,,,,,,,,,,,,,,,,,,,,,,,,,,,,,
,,,,888710,001,2023-11-09_20h37.25.304,fluency,2022.2.4,MacIntel,59.84082341,,,,,,,,,,,,,,,,,,,,,,,3,4,img/B04_03.jpg,GCNB,Press J if the face is NONBINARY and K if the face is GENDER-CONFORMING,Gender-conforming means that the face appears to be a typical example of its gender. Nonbinary means that the face does not conform to any particular gender norms.,KJ,,,,,,,,,,,,,,,,,,,,,,,,,,,,,,,,,,,,,,,,,,,,,,,,,,,,,358.3657,0,20,20,36,1,109,0,0,0,0,1,98,,,,,,,,,,,,,,,,,,,,,,,,,,,,,,,,,,,,,,,,,,,,,,,,,,,,,,,,,,,,,,,,,,,,,,,,
,,,,888710,001,2023-11-09_20h37.25.304,fluency,2022.2.4,MacIntel,59.84082341,,,,,,,,,,,,,,,,,,,,,,,,,,,,,,,,,,,,,,,,,,,,,,,,,,,,,,,,,,,,,,,,,,,,,,,,,,,,,,,,,,,,,,,,,0,0,0,0,1,,"[""k""]",[1.775400000005959],1,"[""k""]",[1.775400000005959],,,,,,,,,,,,,,,,,,,,,,,,,,,,,,,,,,,,,,,,,,,,,,,,,,,,,,,,,,,,,,,,,,,
,,,,888710,001,2023-11-09_20h37.25.304,fluency,2022.2.4,MacIntel,59.84082341,,,,,,,,,,,,,,,,,,,,,,,3,4,img/B04_03.jpg,GCNB,Press J if the face is NONBINARY and K if the face is GENDER-CONFORMING,Gender-conforming means that the face appears to be a typical example of its gender. Nonbinary means that the face does not conform to any particular gender norms.,KJ,,,,,,,,,,,,,,,,,,,,,,,,,,,,,,,,,,,,,,,7,0.4863,,,,,,,,,,,,,,0,20,20,36,1,,,,,,,,,,,,,space,0.6918,,,,,,,,,,,,,,,,,,,,,,,,,,,,,,,,,,,,,,,,,,,,,,,,,,,,,,,,,,,,,,,,,
,,,,888710,001,2023-11-09_20h37.25.304,fluency,2022.2.4,MacIntel,59.84082341,,,,,,,,,,,,,,,,,,,,,,,6,10,img/B10_06.jpg,GCNB,Press J if the face is NONBINARY and K if the face is GENDER-CONFORMING,Gender-conforming means that the face appears to be a typical example of its gender. Nonbinary means that the face does not conform to any particular gender norms.,KJ,,,,,,,,,,,,,,,,,,,,,,,,,,,,,,,,,,,,,,,,,,,,,,,,,,,,,363.5961,0,21,21,105,1,109,0,0,0,0,1,98,,,,,,,,,,,,,,,,,,,,,,,,,,,,,,,,,,,,,,,,,,,,,,,,,,,,,,,,,,,,,,,,,,,,,,,,
,,,,888710,001,2023-11-09_20h37.25.304,fluency,2022.2.4,MacIntel,59.84082341,,,,,,,,,,,,,,,,,,,,,,,,,,,,,,,,,,,,,,,,,,,,,,,,,,,,,,,,,,,,,,,,,,,,,,,,,,,,,,,,,,,,,,,,,0,0,0,0,1,,"[""j""]",[2.9503999999910775],1,"[""j""]",[2.9503999999910775],,,,,,,,,,,,,,,,,,,,,,,,,,,,,,,,,,,,,,,,,,,,,,,,,,,,,,,,,,,,,,,,,,,
,,,,888710,001,2023-11-09_20h37.25.304,fluency,2022.2.4,MacIntel,59.84082341,,,,,,,,,,,,,,,,,,,,,,,6,10,img/B10_06.jpg,GCNB,Press J if the face is NONBINARY and K if the face is GENDER-CONFORMING,Gender-conforming means that the face appears to be a typical example of its gender. Nonbinary means that the face does not conform to any particular gender norms.,KJ,,,,,,,,,,,,,,,,,,,,,,,,,,,,,,,,,,,,,,,5,1.6799,,,,,,,,,,,,,,0,21,21,105,1,,,,,,,,,,,,,space,0.5391,,,,,,,,,,,,,,,,,,,,,,,,,,,,,,,,,,,,,,,,,,,,,,,,,,,,,,,,,,,,,,,,,
,,,,888710,001,2023-11-09_20h37.25.304,fluency,2022.2.4,MacIntel,59.84082341,,,,,,,,,,,,,,,,,,,,,,,1,6,img/B06_01.jpg,GCNB,Press J if the face is NONBINARY and K if the face is GENDER-CONFORMING,Gender-conforming means that the face appears to be a typical example of its gender. Nonbinary means that the face does not conform to any particular gender norms.,KJ,,,,,,,,,,,,,,,,,,,,,,,,,,,,,,,,,,,,,,,,,,,,,,,,,,,,,370.8653,0,22,22,56,1,109,0,0,0,0,1,98,,,,,,,,,,,,,,,,,,,,,,,,,,,,,,,,,,,,,,,,,,,,,,,,,,,,,,,,,,,,,,,,,,,,,,,,
,,,,888710,001,2023-11-09_20h37.25.304,fluency,2022.2.4,MacIntel,59.84082341,,,,,,,,,,,,,,,,,,,,,,,,,,,,,,,,,,,,,,,,,,,,,,,,,,,,,,,,,,,,,,,,,,,,,,,,,,,,,,,,,,,,,,,,,0,0,0,0,1,,"[""k""]",[1.2837999999970293],1,"[""k""]",[1.2837000000029661],,,,,,,,,,,,,,,,,,,,,,,,,,,,,,,,,,,,,,,,,,,,,,,,,,,,,,,,,,,,,,,,,,,
,,,,888710,001,2023-11-09_20h37.25.304,fluency,2022.2.4,MacIntel,59.84082341,,,,,,,,,,,,,,,,,,,,,,,1,6,img/B06_01.jpg,GCNB,Press J if the face is NONBINARY and K if the face is GENDER-CONFORMING,Gender-conforming means that the face appears to be a typical example of its gender. Nonbinary means that the face does not conform to any particular gender norms.,KJ,,,,,,,,,,,,,,,,,,,,,,,,,,,,,,,,,,,,,,,4,0.4025,,,,,,,,,,,,,,0,22,22,56,1,,,,,,,,,,,,,space,0.6862,,,,,,,,,,,,,,,,,,,,,,,,,,,,,,,,,,,,,,,,,,,,,,,,,,,,,,,,,,,,,,,,,
,,,,888710,001,2023-11-09_20h37.25.304,fluency,2022.2.4,MacIntel,59.84082341,,,,,,,,,,,,,,,,,,,,,,,3,8,img/B08_03.jpg,GCNB,Press J if the face is NONBINARY and K if the face is GENDER-CONFORMING,Gender-conforming means that the face appears to be a typical example of its gender. Nonbinary means that the face does not conform to any particular gender norms.,KJ,,,,,,,,,,,,,,,,,,,,,,,,,,,,,,,,,,,,,,,,,,,,,,,,,,,,,376.0135,0,23,23,80,1,109,0,0,0,0,1,98,,,,,,,,,,,,,,,,,,,,,,,,,,,,,,,,,,,,,,,,,,,,,,,,,,,,,,,,,,,,,,,,,,,,,,,,
,,,,888710,001,2023-11-09_20h37.25.304,fluency,2022.2.4,MacIntel,59.84082341,,,,,,,,,,,,,,,,,,,,,,,,,,,,,,,,,,,,,,,,,,,,,,,,,,,,,,,,,,,,,,,,,,,,,,,,,,,,,,,,,,,,,,,,,0,0,0,0,1,,"[""j""]",[1.9137000000030184],1,"[""j""]",[1.9136000000089552],,,,,,,,,,,,,,,,,,,,,,,,,,,,,,,,,,,,,,,,,,,,,,,,,,,,,,,,,,,,,,,,,,,
,,,,888710,001,2023-11-09_20h37.25.304,fluency,2022.2.4,MacIntel,59.84082341,,,,,,,,,,,,,,,,,,,,,,,3,8,img/B08_03.jpg,GCNB,Press J if the face is NONBINARY and K if the face is GENDER-CONFORMING,Gender-conforming means that the face appears to be a typical example of its gender. Nonbinary means that the face does not conform to any particular gender norms.,KJ,,,,,,,,,,,,,,,,,,,,,,,,,,,,,,,,,,,,,,,4,0.8944,,,,,,,,,,,,,,0,23,23,80,1,,,,,,,,,,,,,space,0.4789,,,,,,,,,,,,,,,,,,,,,,,,,,,,,,,,,,,,,,,,,,,,,,,,,,,,,,,,,,,,,,,,,
,,,,888710,001,2023-11-09_20h37.25.304,fluency,2022.2.4,MacIntel,59.84082341,,,,,,,,,,,,,,,,,,,,,,,9,2,img/B02_09.jpg,GCNB,Press J if the face is NONBINARY and K if the face is GENDER-CONFORMING,Gender-conforming means that the face appears to be a typical example of its gender. Nonbinary means that the face does not conform to any particular gender norms.,KJ,,,,,,,,,,,,,,,,,,,,,,,,,,,,,,,,,,,,,,,,,,,,,,,,,,,,,382.4296,0,24,24,20,1,109,0,0,0,0,1,98,,,,,,,,,,,,,,,,,,,,,,,,,,,,,,,,,,,,,,,,,,,,,,,,,,,,,,,,,,,,,,,,,,,,,,,,
,,,,888710,001,2023-11-09_20h37.25.304,fluency,2022.2.4,MacIntel,59.84082341,,,,,,,,,,,,,,,,,,,,,,,,,,,,,,,,,,,,,,,,,,,,,,,,,,,,,,,,,,,,,,,,,,,,,,,,,,,,,,,,,,,,,,,,,0,0,0,0,1,,"[""k""]",[1.7963999999910811],1,"[""k""]",[1.796400000005974],,,,,,,,,,,,,,,,,,,,,,,,,,,,,,,,,,,,,,,,,,,,,,,,,,,,,,,,,,,,,,,,,,,
,,,,888710,001,2023-11-09_20h37.25.304,fluency,2022.2.4,MacIntel,59.84082341,,,,,,,,,,,,,,,,,,,,,,,9,2,img/B02_09.jpg,GCNB,Press J if the face is NONBINARY and K if the face is GENDER-CONFORMING,Gender-conforming means that the face appears to be a typical example of its gender. Nonbinary means that the face does not conform to any particular gender norms.,KJ,,,,,,,,,,,,,,,,,,,,,,,,,,,,,,,,,,,,,,,7,1.3081,,,,,,,,,,,,,,0,24,24,20,1,,,,,,,,,,,,,space,0.5441,,,,,,,,,,,,,,,,,,,,,,,,,,,,,,,,,,,,,,,,,,,,,,,,,,,,,,,,,,,,,,,,,
,,,,888710,001,2023-11-09_20h37.25.304,fluency,2022.2.4,MacIntel,59.84082341,,,,,,,,,,,,,,,,,,,,,,,0,7,img/B07_00.jpg,GCNB,Press J if the face is NONBINARY and K if the face is GENDER-CONFORMING,Gender-conforming means that the face appears to be a typical example of its gender. Nonbinary means that the face does not conform to any particular gender norms.,KJ,,,,,,,,,,,,,,,,,,,,,,,,,,,,,,,,,,,,,,,,,,,,,,,,,,,,,389.3312,0,25,25,66,1,109,0,0,0,0,1,98,,,,,,,,,,,,,,,,,,,,,,,,,,,,,,,,,,,,,,,,,,,,,,,,,,,,,,,,,,,,,,,,,,,,,,,,
,,,,888710,001,2023-11-09_20h37.25.304,fluency,2022.2.4,MacIntel,59.84082341,,,,,,,,,,,,,,,,,,,,,,,,,,,,,,,,,,,,,,,,,,,,,,,,,,,,,,,,,,,,,,,,,,,,,,,,,,,,,,,,,,,,,,,,,0,0,0,0,1,,"[""k""]",[1.6244000000059486],1,"[""k""]",[1.6244000000059486],,,,,,,,,,,,,,,,,,,,,,,,,,,,,,,,,,,,,,,,,,,,,,,,,,,,,,,,,,,,,,,,,,,
,,,,888710,001,2023-11-09_20h37.25.304,fluency,2022.2.4,MacIntel,59.84082341,,,,,,,,,,,,,,,,,,,,,,,0,7,img/B07_00.jpg,GCNB,Press J if the face is NONBINARY and K if the face is GENDER-CONFORMING,Gender-conforming means that the face appears to be a typical example of its gender. Nonbinary means that the face does not conform to any particular gender norms.,KJ,,,,,,,,,,,,,,,,,,,,,,,,,,,,,,,,,,,,,,,6,2.0347,,,,,,,,,,,,,,0,25,25,66,1,,,,,,,,,,,,,space,0.6441,,,,,,,,,,,,,,,,,,,,,,,,,,,,,,,,,,,,,,,,,,,,,,,,,,,,,,,,,,,,,,,,,
,,,,888710,001,2023-11-09_20h37.25.304,fluency,2022.2.4,MacIntel,59.84082341,,,,,,,,,,,,,,,,,,,,,,,7,10,img/B10_07.jpg,GCNB,Press J if the face is NONBINARY and K if the face is GENDER-CONFORMING,Gender-conforming means that the face appears to be a typical example of its gender. Nonbinary means that the face does not conform to any particular gender norms.,KJ,,,,,,,,,,,,,,,,,,,,,,,,,,,,,,,,,,,,,,,,,,,,,,,,,,,,,396.0663,0,26,26,106,1,109,0,0,0,0,1,98,,,,,,,,,,,,,,,,,,,,,,,,,,,,,,,,,,,,,,,,,,,,,,,,,,,,,,,,,,,,,,,,,,,,,,,,
,,,,888710,001,2023-11-09_20h37.25.304,fluency,2022.2.4,MacIntel,59.84082341,,,,,,,,,,,,,,,,,,,,,,,,,,,,,,,,,,,,,,,,,,,,,,,,,,,,,,,,,,,,,,,,,,,,,,,,,,,,,,,,,,,,,,,,,0,0,0,0,1,,"[""k""]",[1.6659000000059336],1,"[""k""]",[1.6659000000059336],,,,,,,,,,,,,,,,,,,,,,,,,,,,,,,,,,,,,,,,,,,,,,,,,,,,,,,,,,,,,,,,,,,
,,,,888710,001,2023-11-09_20h37.25.304,fluency,2022.2.4,MacIntel,59.84082341,,,,,,,,,,,,,,,,,,,,,,,7,10,img/B10_07.jpg,GCNB,Press J if the face is NONBINARY and K if the face is GENDER-CONFORMING,Gender-conforming means that the face appears to be a typical example of its gender. Nonbinary means that the face does not conform to any particular gender norms.,KJ,,,,,,,,,,,,,,,,,,,,,,,,,,,,,,,,,,,,,,,5,0.7925,,,,,,,,,,,,,,0,26,26,106,1,,,,,,,,,,,,,space,0.4407,,,,,,,,,,,,,,,,,,,,,,,,,,,,,,,,,,,,,,,,,,,,,,,,,,,,,,,,,,,,,,,,,
,,,,888710,001,2023-11-09_20h37.25.304,fluency,2022.2.4,MacIntel,59.84082341,,,,,,,,,,,,,,,,,,,,,,,3,10,img/B10_03.jpg,GCNB,Press J if the face is NONBINARY and K if the face is GENDER-CONFORMING,Gender-conforming means that the face appears to be a typical example of its gender. Nonbinary means that the face does not conform to any particular gender norms.,KJ,,,,,,,,,,,,,,,,,,,,,,,,,,,,,,,,,,,,,,,,,,,,,,,,,,,,,402.3341,0,27,27,102,1,109,0,0,0,0,1,98,,,,,,,,,,,,,,,,,,,,,,,,,,,,,,,,,,,,,,,,,,,,,,,,,,,,,,,,,,,,,,,,,,,,,,,,
,,,,888710,001,2023-11-09_20h37.25.304,fluency,2022.2.4,MacIntel,59.84082341,,,,,,,,,,,,,,,,,,,,,,,,,,,,,,,,,,,,,,,,,,,,,,,,,,,,,,,,,,,,,,,,,,,,,,,,,,,,,,,,,,,,,,,,,0,0,0,0,1,,"[""j""]",[2.732899999991048],1,"[""j""]",[2.732899999991048],,,,,,,,,,,,,,,,,,,,,,,,,,,,,,,,,,,,,,,,,,,,,,,,,,,,,,,,,,,,,,,,,,,
,,,,888710,001,2023-11-09_20h37.25.304,fluency,2022.2.4,MacIntel,59.84082341,,,,,,,,,,,,,,,,,,,,,,,3,10,img/B10_03.jpg,GCNB,Press J if the face is NONBINARY and K if the face is GENDER-CONFORMING,Gender-conforming means that the face appears to be a typical example of its gender. Nonbinary means that the face does not conform to any particular gender norms.,KJ,,,,,,,,,,,,,,,,,,,,,,,,,,,,,,,,,,,,,,,5,1.0092,,,,,,,,,,,,,,0,27,27,102,1,,,,,,,,,,,,,space,0.3957,,,,,,,,,,,,,,,,,,,,,,,,,,,,,,,,,,,,,,,,,,,,,,,,,,,,,,,,,,,,,,,,,
,,,,888710,001,2023-11-09_20h37.25.304,fluency,2022.2.4,MacIntel,59.84082341,,,,,,,,,,,,,,,,,,,,,,,7,3,img/B03_07.jpg,GCNB,Press J if the face is NONBINARY and K if the face is GENDER-CONFORMING,Gender-conforming means that the face appears to be a typical example of its gender. Nonbinary means that the face does not conform to any particular gender norms.,KJ,,,,,,,,,,,,,,,,,,,,,,,,,,,,,,,,,,,,,,,,,,,,,,,,,,,,,408.7811,0,28,28,29,1,109,0,0,0,0,1,98,,,,,,,,,,,,,,,,,,,,,,,,,,,,,,,,,,,,,,,,,,,,,,,,,,,,,,,,,,,,,,,,,,,,,,,,
,,,,888710,001,2023-11-09_20h37.25.304,fluency,2022.2.4,MacIntel,59.84082341,,,,,,,,,,,,,,,,,,,,,,,,,,,,,,,,,,,,,,,,,,,,,,,,,,,,,,,,,,,,,,,,,,,,,,,,,,,,,,,,,,,,,,,,,0,0,0,0,1,,"[""j""]",[1.929600000008918],1,"[""j""]",[1.9294999999999618],,,,,,,,,,,,,,,,,,,,,,,,,,,,,,,,,,,,,,,,,,,,,,,,,,,,,,,,,,,,,,,,,,,
,,,,888710,001,2023-11-09_20h37.25.304,fluency,2022.2.4,MacIntel,59.84082341,,,,,,,,,,,,,,,,,,,,,,,7,3,img/B03_07.jpg,GCNB,Press J if the face is NONBINARY and K if the face is GENDER-CONFORMING,Gender-conforming means that the face appears to be a typical example of its gender. Nonbinary means that the face does not conform to any particular gender norms.,KJ,,,,,,,,,,,,,,,,,,,,,,,,,,,,,,,,,,,,,,,5,0.414,,,,,,,,,,,,,,0,28,28,29,1,,,,,,,,,,,,,space,0.3935,,,,,,,,,,,,,,,,,,,,,,,,,,,,,,,,,,,,,,,,,,,,,,,,,,,,,,,,,,,,,,,,,
,,,,888710,001,2023-11-09_20h37.25.304,fluency,2022.2.4,MacIntel,59.84082341,,,,,,,,,,,,,,,,,,,,,,,4,4,img/B04_04.jpg,GCNB,Press J if the face is NONBINARY and K if the face is GENDER-CONFORMING,Gender-conforming means that the face appears to be a typical example of its gender. Nonbinary means that the face does not conform to any particular gender norms.,KJ,,,,,,,,,,,,,,,,,,,,,,,,,,,,,,,,,,,,,,,,,,,,,,,,,,,,,414.6342,0,29,29,37,1,109,0,0,0,0,1,98,,,,,,,,,,,,,,,,,,,,,,,,,,,,,,,,,,,,,,,,,,,,,,,,,,,,,,,,,,,,,,,,,,,,,,,,
,,,,888710,001,2023-11-09_20h37.25.304,fluency,2022.2.4,MacIntel,59.84082341,,,,,,,,,,,,,,,,,,,,,,,,,,,,,,,,,,,,,,,,,,,,,,,,,,,,,,,,,,,,,,,,,,,,,,,,,,,,,,,,,,,,,,,,,0,0,0,0,1,,"[""k""]",[2.6450000000000387],1,"[""k""]",[2.6448999999910825],,,,,,,,,,,,,,,,,,,,,,,,,,,,,,,,,,,,,,,,,,,,,,,,,,,,,,,,,,,,,,,,,,,
,,,,888710,001,2023-11-09_20h37.25.304,fluency,2022.2.4,MacIntel,59.84082341,,,,,,,,,,,,,,,,,,,,,,,4,4,img/B04_04.jpg,GCNB,Press J if the face is NONBINARY and K if the face is GENDER-CONFORMING,Gender-conforming means that the face appears to be a typical example of its gender. Nonbinary means that the face does not conform to any particular gender norms.,KJ,,,,,,,,,,,,,,,,,,,,,,,,,,,,,,,,,,,,,,,6,0.9279,,,,,,,,,,,,,,0,29,29,37,1,,,,,,,,,,,,,space,0.4052,,,,,,,,,,,,,,,,,,,,,,,,,,,,,,,,,,,,,,,,,,,,,,,,,,,,,,,,,,,,,,,,,
,,,,888710,001,2023-11-09_20h37.25.304,fluency,2022.2.4,MacIntel,59.84082341,,,,,,,,,,,,,,,,,,,,,,,7,2,img/B02_07.jpg,GCNB,Press J if the face is NONBINARY and K if the face is GENDER-CONFORMING,Gender-conforming means that the face appears to be a typical example of its gender. Nonbinary means that the face does not conform to any particular gender norms.,KJ,,,,,,,,,,,,,,,,,,,,,,,,,,,,,,,,,,,,,,,,,,,,,,,,,,,,,420.0309,0,30,30,18,1,109,0,0,0,0,1,98,,,,,,,,,,,,,,,,,,,,,,,,,,,,,,,,,,,,,,,,,,,,,,,,,,,,,,,,,,,,,,,,,,,,,,,,
,,,,888710,001,2023-11-09_20h37.25.304,fluency,2022.2.4,MacIntel,59.84082341,,,,,,,,,,,,,,,,,,,,,,,,,,,,,,,,,,,,,,,,,,,,,,,,,,,,,,,,,,,,,,,,,,,,,,,,,,,,,,,,,,,,,,,,,0,0,0,0,1,,"[""j""]",[1.6398000000119168],1,"[""j""]",[1.6397000000030175],,,,,,,,,,,,,,,,,,,,,,,,,,,,,,,,,,,,,,,,,,,,,,,,,,,,,,,,,,,,,,,,,,,
,,,,888710,001,2023-11-09_20h37.25.304,fluency,2022.2.4,MacIntel,59.84082341,,,,,,,,,,,,,,,,,,,,,,,7,2,img/B02_07.jpg,GCNB,Press J if the face is NONBINARY and K if the face is GENDER-CONFORMING,Gender-conforming means that the face appears to be a typical example of its gender. Nonbinary means that the face does not conform to any particular gender norms.,KJ,,,,,,,,,,,,,,,,,,,,,,,,,,,,,,,,,,,,,,,5,0.6193,,,,,,,,,,,,,,0,30,30,18,1,,,,,,,,,,,,,space,0.4223,,,,,,,,,,,,,,,,,,,,,,,,,,,,,,,,,,,,,,,,,,,,,,,,,,,,,,,,,,,,,,,,,
,,,,888710,001,2023-11-09_20h37.25.304,fluency,2022.2.4,MacIntel,59.84082341,,,,,,,,,,,,,,,,,,,,,,,7,5,img/B05_07.jpg,GCNB,Press J if the face is NONBINARY and K if the face is GENDER-CONFORMING,Gender-conforming means that the face appears to be a typical example of its gender. Nonbinary means that the face does not conform to any particular gender norms.,KJ,,,,,,,,,,,,,,,,,,,,,,,,,,,,,,,,,,,,,,,,,,,,,,,,,,,,,426.1304,0,31,31,51,1,109,0,0,0,0,1,98,,,,,,,,,,,,,,,,,,,,,,,,,,,,,,,,,,,,,,,,,,,,,,,,,,,,,,,,,,,,,,,,,,,,,,,,
,,,,888710,001,2023-11-09_20h37.25.304,fluency,2022.2.4,MacIntel,59.84082341,,,,,,,,,,,,,,,,,,,,,,,,,,,,,,,,,,,,,,,,,,,,,,,,,,,,,,,,,,,,,,,,,,,,,,,,,,,,,,,,,,,,,,,,,0,0,0,0,1,,"[""k""]",[1.6172000000029811],1,"[""k""]",[1.617099999994025],,,,,,,,,,,,,,,,,,,,,,,,,,,,,,,,,,,,,,,,,,,,,,,,,,,,,,,,,,,,,,,,,,,
,,,,888710,001,2023-11-09_20h37.25.304,fluency,2022.2.4,MacIntel,59.84082341,,,,,,,,,,,,,,,,,,,,,,,7,5,img/B05_07.jpg,GCNB,Press J if the face is NONBINARY and K if the face is GENDER-CONFORMING,Gender-conforming means that the face appears to be a typical example of its gender. Nonbinary means that the face does not conform to any particular gender norms.,KJ,,,,,,,,,,,,,,,,,,,,,,,,,,,,,,,,,,,,,,,6,0.3717,,,,,,,,,,,,,,0,31,31,51,1,,,,,,,,,,,,,space,0.3926,,,,,,,,,,,,,,,,,,,,,,,,,,,,,,,,,,,,,,,,,,,,,,,,,,,,,,,,,,,,,,,,,
,,,,888710,001,2023-11-09_20h37.25.304,fluency,2022.2.4,MacIntel,59.84082341,,,,,,,,,,,,,,,,,,,,,,,4,1,img/B01_04.jpg,GCNB,Press J if the face is NONBINARY and K if the face is GENDER-CONFORMING,Gender-conforming means that the face appears to be a typical example of its gender. Nonbinary means that the face does not conform to any particular gender norms.,KJ,,,,,,,,,,,,,,,,,,,,,,,,,,,,,,,,,,,,,,,,,,,,,,,,,,,,,431.9463,0,32,32,4,1,109,0,0,0,0,1,98,,,,,,,,,,,,,,,,,,,,,,,,,,,,,,,,,,,,,,,,,,,,,,,,,,,,,,,,,,,,,,,,,,,,,,,,
,,,,888710,001,2023-11-09_20h37.25.304,fluency,2022.2.4,MacIntel,59.84082341,,,,,,,,,,,,,,,,,,,,,,,,,,,,,,,,,,,,,,,,,,,,,,,,,,,,,,,,,,,,,,,,,,,,,,,,,,,,,,,,,,,,,,,,,0,0,0,0,1,,"[""j""]",[1.5967000000029543],1,"[""j""]",[1.5965999999939982],,,,,,,,,,,,,,,,,,,,,,,,,,,,,,,,,,,,,,,,,,,,,,,,,,,,,,,,,,,,,,,,,,,
,,,,888710,001,2023-11-09_20h37.25.304,fluency,2022.2.4,MacIntel,59.84082341,,,,,,,,,,,,,,,,,,,,,,,4,1,img/B01_04.jpg,GCNB,Press J if the face is NONBINARY and K if the face is GENDER-CONFORMING,Gender-conforming means that the face appears to be a typical example of its gender. Nonbinary means that the face does not conform to any particular gender norms.,KJ,,,,,,,,,,,,,,,,,,,,,,,,,,,,,,,,,,,,,,,4,0.5464,,,,,,,,,,,,,,0,32,32,4,1,,,,,,,,,,,,,space,0.9377,,,,,,,,,,,,,,,,,,,,,,,,,,,,,,,,,,,,,,,,,,,,,,,,,,,,,,,,,,,,,,,,,
,,,,888710,001,2023-11-09_20h37.25.304,fluency,2022.2.4,MacIntel,59.84082341,,,,,,,,,,,,,,,,,,,,,,,10,2,img/B02_10.jpg,GCNB,Press J if the face is NONBINARY and K if the face is GENDER-CONFORMING,Gender-conforming means that the face appears to be a typical example of its gender. Nonbinary means that the face does not conform to any particular gender norms.,KJ,,,,,,,,,,,,,,,,,,,,,,,,,,,,,,,,,,,,,,,,,,,,,,,,,,,,,437.4776,0,33,33,21,1,109,0,0,0,0,1,98,,,,,,,,,,,,,,,,,,,,,,,,,,,,,,,,,,,,,,,,,,,,,,,,,,,,,,,,,,,,,,,,,,,,,,,,
,,,,888710,001,2023-11-09_20h37.25.304,fluency,2022.2.4,MacIntel,59.84082341,,,,,,,,,,,,,,,,,,,,,,,,,,,,,,,,,,,,,,,,,,,,,,,,,,,,,,,,,,,,,,,,,,,,,,,,,,,,,,,,,,,,,,,,,0,0,0,0,1,,"[""k""]",[1.4405000000000427],1,"[""k""]",[1.4404000000059796],,,,,,,,,,,,,,,,,,,,,,,,,,,,,,,,,,,,,,,,,,,,,,,,,,,,,,,,,,,,,,,,,,,
,,,,888710,001,2023-11-09_20h37.25.304,fluency,2022.2.4,MacIntel,59.84082341,,,,,,,,,,,,,,,,,,,,,,,10,2,img/B02_10.jpg,GCNB,Press J if the face is NONBINARY and K if the face is GENDER-CONFORMING,Gender-conforming means that the face appears to be a typical example of its gender. Nonbinary means that the face does not conform to any particular gender norms.,KJ,,,,,,,,,,,,,,,,,,,,,,,,,,,,,,,,,,,,,,,7,1.1435,,,,,,,,,,,,,,0,33,33,21,1,,,,,,,,,,,,,space,0.6755,,,,,,,,,,,,,,,,,,,,,,,,,,,,,,,,,,,,,,,,,,,,,,,,,,,,,,,,,,,,,,,,,
,,,,888710,001,2023-11-09_20h37.25.304,fluency,2022.2.4,MacIntel,59.84082341,,,,,,,,,,,,,,,,,,,,,,,9,9,img/B09_09.jpg,GCNB,Press J if the face is NONBINARY and K if the face is GENDER-CONFORMING,Gender-conforming means that the face appears to be a typical example of its gender. Nonbinary means that the face does not conform to any particular gender norms.,KJ,,,,,,,,,,,,,,,,,,,,,,,,,,,,,,,,,,,,,,,,,,,,,,,,,,,,,444.36,0,34,34,97,1,109,0,0,0,0,1,98,,,,,,,,,,,,,,,,,,,,,,,,,,,,,,,,,,,,,,,,,,,,,,,,,,,,,,,,,,,,,,,,,,,,,,,,
,,,,888710,001,2023-11-09_20h37.25.304,fluency,2022.2.4,MacIntel,59.84082341,,,,,,,,,,,,,,,,,,,,,,,,,,,,,,,,,,,,,,,,,,,,,,,,,,,,,,,,,,,,,,,,,,,,,,,,,,,,,,,,,,,,,,,,,0,0,0,0,1,,"[""k""]",[1.877999999999986],1,"[""k""]",[1.878099999994049],,,,,,,,,,,,,,,,,,,,,,,,,,,,,,,,,,,,,,,,,,,,,,,,,,,,,,,,,,,,,,,,,,,
,,,,888710,001,2023-11-09_20h37.25.304,fluency,2022.2.4,MacIntel,59.84082341,,,,,,,,,,,,,,,,,,,,,,,9,9,img/B09_09.jpg,GCNB,Press J if the face is NONBINARY and K if the face is GENDER-CONFORMING,Gender-conforming means that the face appears to be a typical example of its gender. Nonbinary means that the face does not conform to any particular gender norms.,KJ,,,,,,,,,,,,,,,,,,,,,,,,,,,,,,,,,,,,,,,8,1.8214,,,,,,,,,,,,,,0,34,34,97,1,,,,,,,,,,,,,space,0.6897,,,,,,,,,,,,,,,,,,,,,,,,,,,,,,,,,,,,,,,,,,,,,,,,,,,,,,,,,,,,,,,,,
,,,,888710,001,2023-11-09_20h37.25.304,fluency,2022.2.4,MacIntel,59.84082341,,,,,,,,,,,,,,,,,,,,,,,9,4,img/B04_09.jpg,GCNB,Press J if the face is NONBINARY and K if the face is GENDER-CONFORMING,Gender-conforming means that the face appears to be a typical example of its gender. Nonbinary means that the face does not conform to any particular gender norms.,KJ,,,,,,,,,,,,,,,,,,,,,,,,,,,,,,,,,,,,,,,,,,,,,,,,,,,,,451.9319,0,35,35,42,1,109,0,0,0,0,1,98,,,,,,,,,,,,,,,,,,,,,,,,,,,,,,,,,,,,,,,,,,,,,,,,,,,,,,,,,,,,,,,,,,,,,,,,
,,,,888710,001,2023-11-09_20h37.25.304,fluency,2022.2.4,MacIntel,59.84082341,,,,,,,,,,,,,,,,,,,,,,,,,,,,,,,,,,,,,,,,,,,,,,,,,,,,,,,,,,,,,,,,,,,,,,,,,,,,,,,,,,,,,,,,,0,0,0,0,1,,"[""k""]",[1.4927999999969757],1,"[""k""]",[1.4927000000029693],,,,,,,,,,,,,,,,,,,,,,,,,,,,,,,,,,,,,,,,,,,,,,,,,,,,,,,,,,,,,,,,,,,
,,,,888710,001,2023-11-09_20h37.25.304,fluency,2022.2.4,MacIntel,59.84082341,,,,,,,,,,,,,,,,,,,,,,,9,4,img/B04_09.jpg,GCNB,Press J if the face is NONBINARY and K if the face is GENDER-CONFORMING,Gender-conforming means that the face appears to be a typical example of its gender. Nonbinary means that the face does not conform to any particular gender norms.,KJ,,,,,,,,,,,,,,,,,,,,,,,,,,,,,,,,,,,,,,,5,1.2381,,,,,,,,,,,,,,0,35,35,42,1,,,,,,,,,,,,,space,0.6382,,,,,,,,,,,,,,,,,,,,,,,,,,,,,,,,,,,,,,,,,,,,,,,,,,,,,,,,,,,,,,,,,
,,,,888710,001,2023-11-09_20h37.25.304,fluency,2022.2.4,MacIntel,59.84082341,,,,,,,,,,,,,,,,,,,,,,,0,3,img/B03_00.jpg,GCNB,Press J if the face is NONBINARY and K if the face is GENDER-CONFORMING,Gender-conforming means that the face appears to be a typical example of its gender. Nonbinary means that the face does not conform to any particular gender norms.,KJ,,,,,,,,,,,,,,,,,,,,,,,,,,,,,,,,,,,,,,,,,,,,,,,,,,,,,458.8663,0,36,36,22,1,109,0,0,0,0,1,98,,,,,,,,,,,,,,,,,,,,,,,,,,,,,,,,,,,,,,,,,,,,,,,,,,,,,,,,,,,,,,,,,,,,,,,,
,,,,888710,001,2023-11-09_20h37.25.304,fluency,2022.2.4,MacIntel,59.84082341,,,,,,,,,,,,,,,,,,,,,,,,,,,,,,,,,,,,,,,,,,,,,,,,,,,,,,,,,,,,,,,,,,,,,,,,,,,,,,,,,,,,,,,,,0,0,0,0,1,,"[""k""]",[1.4487000000029866],1,"[""k""]",[1.448799999996993],,,,,,,,,,,,,,,,,,,,,,,,,,,,,,,,,,,,,,,,,,,,,,,,,,,,,,,,,,,,,,,,,,,
,,,,888710,001,2023-11-09_20h37.25.304,fluency,2022.2.4,MacIntel,59.84082341,,,,,,,,,,,,,,,,,,,,,,,0,3,img/B03_00.jpg,GCNB,Press J if the face is NONBINARY and K if the face is GENDER-CONFORMING,Gender-conforming means that the face appears to be a typical example of its gender. Nonbinary means that the face does not conform to any particular gender norms.,KJ,,,,,,,,,,,,,,,,,,,,,,,,,,,,,,,,,,,,,,,3,0.3561,,,,,,,,,,,,,,0,36,36,22,1,,,,,,,,,,,,,space,0.5267,,,,,,,,,,,,,,,,,,,,,,,,,,,,,,,,,,,,,,,,,,,,,,,,,,,,,,,,,,,,,,,,,
,,,,888710,001,2023-11-09_20h37.25.304,fluency,2022.2.4,MacIntel,59.84082341,,,,,,,,,,,,,,,,,,,,,,,8,6,img/B06_08.jpg,GCNB,Press J if the face is NONBINARY and K if the face is GENDER-CONFORMING,Gender-conforming means that the face appears to be a typical example of its gender. Nonbinary means that the face does not conform to any particular gender norms.,KJ,,,,,,,,,,,,,,,,,,,,,,,,,,,,,,,,,,,,,,,,,,,,,,,,,,,,,464.8001,0,37,37,63,1,109,0,0,0,0,1,98,,,,,,,,,,,,,,,,,,,,,,,,,,,,,,,,,,,,,,,,,,,,,,,,,,,,,,,,,,,,,,,,,,,,,,,,
,,,,888710,001,2023-11-09_20h37.25.304,fluency,2022.2.4,MacIntel,59.84082341,,,,,,,,,,,,,,,,,,,,,,,,,,,,,,,,,,,,,,,,,,,,,,,,,,,,,,,,,,,,,,,,,,,,,,,,,,,,,,,,,,,,,,,,,0,0,0,0,1,,"[""k""]",[1.5767999999970357],1,"[""k""]",[1.5767999999970357],,,,,,,,,,,,,,,,,,,,,,,,,,,,,,,,,,,,,,,,,,,,,,,,,,,,,,,,,,,,,,,,,,,
,,,,888710,001,2023-11-09_20h37.25.304,fluency,2022.2.4,MacIntel,59.84082341,,,,,,,,,,,,,,,,,,,,,,,8,6,img/B06_08.jpg,GCNB,Press J if the face is NONBINARY and K if the face is GENDER-CONFORMING,Gender-conforming means that the face appears to be a typical example of its gender. Nonbinary means that the face does not conform to any particular gender norms.,KJ,,,,,,,,,,,,,,,,,,,,,,,,,,,,,,,,,,,,,,,5,0.3617,,,,,,,,,,,,,,0,37,37,63,1,,,,,,,,,,,,,space,0.4037,,,,,,,,,,,,,,,,,,,,,,,,,,,,,,,,,,,,,,,,,,,,,,,,,,,,,,,,,,,,,,,,,
,,,,888710,001,2023-11-09_20h37.25.304,fluency,2022.2.4,MacIntel,59.84082341,,,,,,,,,,,,,,,,,,,,,,,1,4,img/B04_01.jpg,GCNB,Press J if the face is NONBINARY and K if the face is GENDER-CONFORMING,Gender-conforming means that the face appears to be a typical example of its gender. Nonbinary means that the face does not conform to any particular gender norms.,KJ,,,,,,,,,,,,,,,,,,,,,,,,,,,,,,,,,,,,,,,,,,,,,,,,,,,,,469.6288,0,38,38,34,1,109,0,0,0,0,1,98,,,,,,,,,,,,,,,,,,,,,,,,,,,,,,,,,,,,,,,,,,,,,,,,,,,,,,,,,,,,,,,,,,,,,,,,
,,,,888710,001,2023-11-09_20h37.25.304,fluency,2022.2.4,MacIntel,59.84082341,,,,,,,,,,,,,,,,,,,,,,,,,,,,,,,,,,,,,,,,,,,,,,,,,,,,,,,,,,,,,,,,,,,,,,,,,,,,,,,,,,,,,,,,,0,0,0,0,1,,"[""k""]",[1.3254000000059136],1,"[""k""]",[1.3252999999970143],,,,,,,,,,,,,,,,,,,,,,,,,,,,,,,,,,,,,,,,,,,,,,,,,,,,,,,,,,,,,,,,,,,
,,,,888710,001,2023-11-09_20h37.25.304,fluency,2022.2.4,MacIntel,59.84082341,,,,,,,,,,,,,,,,,,,,,,,1,4,img/B04_01.jpg,GCNB,Press J if the face is NONBINARY and K if the face is GENDER-CONFORMING,Gender-conforming means that the face appears to be a typical example of its gender. Nonbinary means that the face does not conform to any particular gender norms.,KJ,,,,,,,,,,,,,,,,,,,,,,,,,,,,,,,,,,,,,,,6,0.3295,,,,,,,,,,,,,,0,38,38,34,1,,,,,,,,,,,,,space,0.3075,,,,,,,,,,,,,,,,,,,,,,,,,,,,,,,,,,,,,,,,,,,,,,,,,,,,,,,,,,,,,,,,,
,,,,888710,001,2023-11-09_20h37.25.304,fluency,2022.2.4,MacIntel,59.84082341,,,,,,,,,,,,,,,,,,,,,,,7,7,img/B07_07.jpg,GCNB,Press J if the face is NONBINARY and K if the face is GENDER-CONFORMING,Gender-conforming means that the face appears to be a typical example of its gender. Nonbinary means that the face does not conform to any particular gender norms.,KJ,,,,,,,,,,,,,,,,,,,,,,,,,,,,,,,,,,,,,,,,,,,,,,,,,,,,,475.3113,0,39,39,73,1,109,0,0,0,0,1,98,,,,,,,,,,,,,,,,,,,,,,,,,,,,,,,,,,,,,,,,,,,,,,,,,,,,,,,,,,,,,,,,,,,,,,,,
,,,,888710,001,2023-11-09_20h37.25.304,fluency,2022.2.4,MacIntel,59.84082341,,,,,,,,,,,,,,,,,,,,,,,,,,,,,,,,,,,,,,,,,,,,,,,,,,,,,,,,,,,,,,,,,,,,,,,,,,,,,,,,,,,,,,,,,0,0,0,0,1,,"[""j""]",[1.5766999999880795],1,"[""j""]",[1.5765999999940163],,,,,,,,,,,,,,,,,,,,,,,,,,,,,,,,,,,,,,,,,,,,,,,,,,,,,,,,,,,,,,,,,,,
,,,,888710,001,2023-11-09_20h37.25.304,fluency,2022.2.4,MacIntel,59.84082341,,,,,,,,,,,,,,,,,,,,,,,7,7,img/B07_07.jpg,GCNB,Press J if the face is NONBINARY and K if the face is GENDER-CONFORMING,Gender-conforming means that the face appears to be a typical example of its gender. Nonbinary means that the face does not conform to any particular gender norms.,KJ,,,,,,,,,,,,,,,,,,,,,,,,,,,,,,,,,,,,,,,5,1.4214,,,,,,,,,,,,,,0,39,39,73,1,,,,,,,,,,,,,space,0.3623,,,,,,,,,,,,,,,,,,,,,,,,,,,,,,,,,,,,,,,,,,,,,,,,,,,,,,,,,,,,,,,,,
,,,,888710,001,2023-11-09_20h37.25.304,fluency,2022.2.4,MacIntel,59.84082341,,,,,,,,,,,,,,,,,,,,,,,2,5,img/B05_02.jpg,GCNB,Press J if the face is NONBINARY and K if the face is GENDER-CONFORMING,Gender-conforming means that the face appears to be a typical example of its gender. Nonbinary means that the face does not conform to any particular gender norms.,KJ,,,,,,,,,,,,,,,,,,,,,,,,,,,,,,,,,,,,,,,,,,,,,,,,,,,,,481.1428,0,40,40,46,1,109,0,0,0,0,1,98,,,,,,,,,,,,,,,,,,,,,,,,,,,,,,,,,,,,,,,,,,,,,,,,,,,,,,,,,,,,,,,,,,,,,,,,
,,,,888710,001,2023-11-09_20h37.25.304,fluency,2022.2.4,MacIntel,59.84082341,,,,,,,,,,,,,,,,,,,,,,,,,,,,,,,,,,,,,,,,,,,,,,,,,,,,,,,,,,,,,,,,,,,,,,,,,,,,,,,,,,,,,,,,,0,0,0,0,1,,"[""k""]",[2.1467000000029657],1,"[""k""]",[2.1467000000029657],,,,,,,,,,,,,,,,,,,,,,,,,,,,,,,,,,,,,,,,,,,,,,,,,,,,,,,,,,,,,,,,,,,
,,,,888710,001,2023-11-09_20h37.25.304,fluency,2022.2.4,MacIntel,59.84082341,,,,,,,,,,,,,,,,,,,,,,,2,5,img/B05_02.jpg,GCNB,Press J if the face is NONBINARY and K if the face is GENDER-CONFORMING,Gender-conforming means that the face appears to be a typical example of its gender. Nonbinary means that the face does not conform to any particular gender norms.,KJ,,,,,,,,,,,,,,,,,,,,,,,,,,,,,,,,,,,,,,,5,1.0192,,,,,,,,,,,,,,0,40,40,46,1,,,,,,,,,,,,,space,0.3039,,,,,,,,,,,,,,,,,,,,,,,,,,,,,,,,,,,,,,,,,,,,,,,,,,,,,,,,,,,,,,,,,
,,,,888710,001,2023-11-09_20h37.25.304,fluency,2022.2.4,MacIntel,59.84082341,,,,,,,,,,,,,,,,,,,,,,,5,9,img/B09_05.jpg,GCNB,Press J if the face is NONBINARY and K if the face is GENDER-CONFORMING,Gender-conforming means that the face appears to be a typical example of its gender. Nonbinary means that the face does not conform to any particular gender norms.,KJ,,,,,,,,,,,,,,,,,,,,,,,,,,,,,,,,,,,,,,,,,,,,,,,,,,,,,487.5252,0,41,41,93,1,109,0,0,0,0,1,98,,,,,,,,,,,,,,,,,,,,,,,,,,,,,,,,,,,,,,,,,,,,,,,,,,,,,,,,,,,,,,,,,,,,,,,,
,,,,888710,001,2023-11-09_20h37.25.304,fluency,2022.2.4,MacIntel,59.84082341,,,,,,,,,,,,,,,,,,,,,,,,,,,,,,,,,,,,,,,,,,,,,,,,,,,,,,,,,,,,,,,,,,,,,,,,,,,,,,,,,,,,,,,,,0,0,0,0,1,,"[""j""]",[1.443599999994035],1,"[""j""]",[1.443599999994035],,,,,,,,,,,,,,,,,,,,,,,,,,,,,,,,,,,,,,,,,,,,,,,,,,,,,,,,,,,,,,,,,,,
,,,,888710,001,2023-11-09_20h37.25.304,fluency,2022.2.4,MacIntel,59.84082341,,,,,,,,,,,,,,,,,,,,,,,5,9,img/B09_05.jpg,GCNB,Press J if the face is NONBINARY and K if the face is GENDER-CONFORMING,Gender-conforming means that the face appears to be a typical example of its gender. Nonbinary means that the face does not conform to any particular gender norms.,KJ,,,,,,,,,,,,,,,,,,,,,,,,,,,,,,,,,,,,,,,6,1.1786,,,,,,,,,,,,,,0,41,41,93,1,,,,,,,,,,,,,space,0.3706,,,,,,,,,,,,,,,,,,,,,,,,,,,,,,,,,,,,,,,,,,,,,,,,,,,,,,,,,,,,,,,,,
,,,,888710,001,2023-11-09_20h37.25.304,fluency,2022.2.4,MacIntel,59.84082341,,,,,,,,,,,,,,,,,,,,,,,9,7,img/B07_09.jpg,GCNB,Press J if the face is NONBINARY and K if the face is GENDER-CONFORMING,Gender-conforming means that the face appears to be a typical example of its gender. Nonbinary means that the face does not conform to any particular gender norms.,KJ,,,,,,,,,,,,,,,,,,,,,,,,,,,,,,,,,,,,,,,,,,,,,,,,,,,,,493.1424,0,42,42,75,1,109,0,0,0,0,1,98,,,,,,,,,,,,,,,,,,,,,,,,,,,,,,,,,,,,,,,,,,,,,,,,,,,,,,,,,,,,,,,,,,,,,,,,
,,,,888710,001,2023-11-09_20h37.25.304,fluency,2022.2.4,MacIntel,59.84082341,,,,,,,,,,,,,,,,,,,,,,,,,,,,,,,,,,,,,,,,,,,,,,,,,,,,,,,,,,,,,,,,,,,,,,,,,,,,,,,,,,,,,,,,,0,0,0,0,1,,"[""k""]",[1.2826000000089266],1,"[""k""]",[1.2826000000089266],,,,,,,,,,,,,,,,,,,,,,,,,,,,,,,,,,,,,,,,,,,,,,,,,,,,,,,,,,,,,,,,,,,
,,,,888710,001,2023-11-09_20h37.25.304,fluency,2022.2.4,MacIntel,59.84082341,,,,,,,,,,,,,,,,,,,,,,,9,7,img/B07_09.jpg,GCNB,Press J if the face is NONBINARY and K if the face is GENDER-CONFORMING,Gender-conforming means that the face appears to be a typical example of its gender. Nonbinary means that the face does not conform to any particular gender norms.,KJ,,,,,,,,,,,,,,,,,,,,,,,,,,,,,,,,,,,,,,,7,0.3191,,,,,,,,,,,,,,0,42,42,75,1,,,,,,,,,,,,,space,0.3378,,,,,,,,,,,,,,,,,,,,,,,,,,,,,,,,,,,,,,,,,,,,,,,,,,,,,,,,,,,,,,,,,
,,,,888710,001,2023-11-09_20h37.25.304,fluency,2022.2.4,MacIntel,59.84082341,,,,,,,,,,,,,,,,,,,,,,,6,1,img/B01_06.jpg,GCNB,Press J if the face is NONBINARY and K if the face is GENDER-CONFORMING,Gender-conforming means that the face appears to be a typical example of its gender. Nonbinary means that the face does not conform to any particular gender norms.,KJ,,,,,,,,,,,,,,,,,,,,,,,,,,,,,,,,,,,,,,,,,,,,,,,,,,,,,497.853,0,43,43,6,1,109,0,0,0,0,1,98,,,,,,,,,,,,,,,,,,,,,,,,,,,,,,,,,,,,,,,,,,,,,,,,,,,,,,,,,,,,,,,,,,,,,,,,
,,,,888710,001,2023-11-09_20h37.25.304,fluency,2022.2.4,MacIntel,59.84082341,,,,,,,,,,,,,,,,,,,,,,,,,,,,,,,,,,,,,,,,,,,,,,,,,,,,,,,,,,,,,,,,,,,,,,,,,,,,,,,,,,,,,,,,,0,0,0,0,1,,"[""j""]",[1.3514000000060378],1,"[""j""]",[1.3514000000060378],,,,,,,,,,,,,,,,,,,,,,,,,,,,,,,,,,,,,,,,,,,,,,,,,,,,,,,,,,,,,,,,,,,
,,,,888710,001,2023-11-09_20h37.25.304,fluency,2022.2.4,MacIntel,59.84082341,,,,,,,,,,,,,,,,,,,,,,,6,1,img/B01_06.jpg,GCNB,Press J if the face is NONBINARY and K if the face is GENDER-CONFORMING,Gender-conforming means that the face appears to be a typical example of its gender. Nonbinary means that the face does not conform to any particular gender norms.,KJ,,,,,,,,,,,,,,,,,,,,,,,,,,,,,,,,,,,,,,,5,0.9916,,,,,,,,,,,,,,0,43,43,6,1,,,,,,,,,,,,,space,0.2923,,,,,,,,,,,,,,,,,,,,,,,,,,,,,,,,,,,,,,,,,,,,,,,,,,,,,,,,,,,,,,,,,
,,,,888710,001,2023-11-09_20h37.25.304,fluency,2022.2.4,MacIntel,59.84082341,,,,,,,,,,,,,,,,,,,,,,,5,5,img/B05_05.jpg,GCNB,Press J if the face is NONBINARY and K if the face is GENDER-CONFORMING,Gender-conforming means that the face appears to be a typical example of its gender. Nonbinary means that the face does not conform to any particular gender norms.,KJ,,,,,,,,,,,,,,,,,,,,,,,,,,,,,,,,,,,,,,,,,,,,,,,,,,,,,503.1865,0,44,44,49,1,109,0,0,0,0,1,98,,,,,,,,,,,,,,,,,,,,,,,,,,,,,,,,,,,,,,,,,,,,,,,,,,,,,,,,,,,,,,,,,,,,,,,,
,,,,888710,001,2023-11-09_20h37.25.304,fluency,2022.2.4,MacIntel,59.84082341,,,,,,,,,,,,,,,,,,,,,,,,,,,,,,,,,,,,,,,,,,,,,,,,,,,,,,,,,,,,,,,,,,,,,,,,,,,,,,,,,,,,,,,,,0,0,0,0,1,,"[""j""]",[1.6160999999940486],1,"[""j""]",[1.6159999999999854],,,,,,,,,,,,,,,,,,,,,,,,,,,,,,,,,,,,,,,,,,,,,,,,,,,,,,,,,,,,,,,,,,,
,,,,888710,001,2023-11-09_20h37.25.304,fluency,2022.2.4,MacIntel,59.84082341,,,,,,,,,,,,,,,,,,,,,,,5,5,img/B05_05.jpg,GCNB,Press J if the face is NONBINARY and K if the face is GENDER-CONFORMING,Gender-conforming means that the face appears to be a typical example of its gender. Nonbinary means that the face does not conform to any particular gender norms.,KJ,,,,,,,,,,,,,,,,,,,,,,,,,,,,,,,,,,,,,,,5,0.3387,,,,,,,,,,,,,,0,44,44,49,1,,,,,,,,,,,,,space,0.3236,,,,,,,,,,,,,,,,,,,,,,,,,,,,,,,,,,,,,,,,,,,,,,,,,,,,,,,,,,,,,,,,,
,,,,888710,001,2023-11-09_20h37.25.304,fluency,2022.2.4,MacIntel,59.84082341,,,,,,,,,,,,,,,,,,,,,,,7,8,img/B08_07.jpg,GCNB,Press J if the face is NONBINARY and K if the face is GENDER-CONFORMING,Gender-conforming means that the face appears to be a typical example of its gender. Nonbinary means that the face does not conform to any particular gender norms.,KJ,,,,,,,,,,,,,,,,,,,,,,,,,,,,,,,,,,,,,,,,,,,,,,,,,,,,,508.9167,0,45,45,84,1,109,0,0,0,0,1,98,,,,,,,,,,,,,,,,,,,,,,,,,,,,,,,,,,,,,,,,,,,,,,,,,,,,,,,,,,,,,,,,,,,,,,,,
,,,,888710,001,2023-11-09_20h37.25.304,fluency,2022.2.4,MacIntel,59.84082341,,,,,,,,,,,,,,,,,,,,,,,,,,,,,,,,,,,,,,,,,,,,,,,,,,,,,,,,,,,,,,,,,,,,,,,,,,,,,,,,,,,,,,,,,0,0,0,0,1,,"[""k""]",[1.8157000000029484],1,"[""k""]",[1.8156000000088852],,,,,,,,,,,,,,,,,,,,,,,,,,,,,,,,,,,,,,,,,,,,,,,,,,,,,,,,,,,,,,,,,,,
,,,,888710,001,2023-11-09_20h37.25.304,fluency,2022.2.4,MacIntel,59.84082341,,,,,,,,,,,,,,,,,,,,,,,7,8,img/B08_07.jpg,GCNB,Press J if the face is NONBINARY and K if the face is GENDER-CONFORMING,Gender-conforming means that the face appears to be a typical example of its gender. Nonbinary means that the face does not conform to any particular gender norms.,KJ,,,,,,,,,,,,,,,,,,,,,,,,,,,,,,,,,,,,,,,4,0.3802,,,,,,,,,,,,,,0,45,45,84,1,,,,,,,,,,,,,space,0.2867,,,,,,,,,,,,,,,,,,,,,,,,,,,,,,,,,,,,,,,,,,,,,,,,,,,,,,,,,,,,,,,,,
,,,,888710,001,2023-11-09_20h37.25.304,fluency,2022.2.4,MacIntel,59.84082341,,,,,,,,,,,,,,,,,,,,,,,8,1,img/B01_08.jpg,GCNB,Press J if the face is NONBINARY and K if the face is GENDER-CONFORMING,Gender-conforming means that the face appears to be a typical example of its gender. Nonbinary means that the face does not conform to any particular gender norms.,KJ,,,,,,,,,,,,,,,,,,,,,,,,,,,,,,,,,,,,,,,,,,,,,,,,,,,,,514.6496,0,46,46,8,1,109,0,0,0,0,1,98,,,,,,,,,,,,,,,,,,,,,,,,,,,,,,,,,,,,,,,,,,,,,,,,,,,,,,,,,,,,,,,,,,,,,,,,
,,,,888710,001,2023-11-09_20h37.25.304,fluency,2022.2.4,MacIntel,59.84082341,,,,,,,,,,,,,,,,,,,,,,,,,,,,,,,,,,,,,,,,,,,,,,,,,,,,,,,,,,,,,,,,,,,,,,,,,,,,,,,,,,,,,,,,,0,0,0,0,1,,"[""j""]",[2.3119000000059486],1,"[""j""]",[2.3119000000059486],,,,,,,,,,,,,,,,,,,,,,,,,,,,,,,,,,,,,,,,,,,,,,,,,,,,,,,,,,,,,,,,,,,
,,,,888710,001,2023-11-09_20h37.25.304,fluency,2022.2.4,MacIntel,59.84082341,,,,,,,,,,,,,,,,,,,,,,,8,1,img/B01_08.jpg,GCNB,Press J if the face is NONBINARY and K if the face is GENDER-CONFORMING,Gender-conforming means that the face appears to be a typical example of its gender. Nonbinary means that the face does not conform to any particular gender norms.,KJ,,,,,,,,,,,,,,,,,,,,,,,,,,,,,,,,,,,,,,,5,0.4893,,,,,,,,,,,,,,0,46,46,8,1,,,,,,,,,,,,,space,0.3601,,,,,,,,,,,,,,,,,,,,,,,,,,,,,,,,,,,,,,,,,,,,,,,,,,,,,,,,,,,,,,,,,
,,,,888710,001,2023-11-09_20h37.25.304,fluency,2022.2.4,MacIntel,59.84082341,,,,,,,,,,,,,,,,,,,,,,,2,1,img/B01_02.jpg,GCNB,Press J if the face is NONBINARY and K if the face is GENDER-CONFORMING,Gender-conforming means that the face appears to be a typical example of its gender. Nonbinary means that the face does not conform to any particular gender norms.,KJ,,,,,,,,,,,,,,,,,,,,,,,,,,,,,,,,,,,,,,,,,,,,,,,,,,,,,520.5319,0,47,47,2,1,109,0,0,0,0,1,98,,,,,,,,,,,,,,,,,,,,,,,,,,,,,,,,,,,,,,,,,,,,,,,,,,,,,,,,,,,,,,,,,,,,,,,,
,,,,888710,001,2023-11-09_20h37.25.304,fluency,2022.2.4,MacIntel,59.84082341,,,,,,,,,,,,,,,,,,,,,,,,,,,,,,,,,,,,,,,,,,,,,,,,,,,,,,,,,,,,,,,,,,,,,,,,,,,,,,,,,,,,,,,,,0,0,0,0,1,,"[""k""]",[1.3902999999970689],1,"[""k""]",[1.3902999999970689],,,,,,,,,,,,,,,,,,,,,,,,,,,,,,,,,,,,,,,,,,,,,,,,,,,,,,,,,,,,,,,,,,,
,,,,888710,001,2023-11-09_20h37.25.304,fluency,2022.2.4,MacIntel,59.84082341,,,,,,,,,,,,,,,,,,,,,,,2,1,img/B01_02.jpg,GCNB,Press J if the face is NONBINARY and K if the face is GENDER-CONFORMING,Gender-conforming means that the face appears to be a typical example of its gender. Nonbinary means that the face does not conform to any particular gender norms.,KJ,,,,,,,,,,,,,,,,,,,,,,,,,,,,,,,,,,,,,,,4,0.3379,,,,,,,,,,,,,,0,47,47,2,1,,,,,,,,,,,,,space,0.3726,,,,,,,,,,,,,,,,,,,,,,,,,,,,,,,,,,,,,,,,,,,,,,,,,,,,,,,,,,,,,,,,,
,,,,888710,001,2023-11-09_20h37.25.304,fluency,2022.2.4,MacIntel,59.84082341,,,,,,,,,,,,,,,,,,,,,,,9,3,img/B03_09.jpg,GCNB,Press J if the face is NONBINARY and K if the face is GENDER-CONFORMING,Gender-conforming means that the face appears to be a typical example of its gender. Nonbinary means that the face does not conform to any particular gender norms.,KJ,,,,,,,,,,,,,,,,,,,,,,,,,,,,,,,,,,,,,,,,,,,,,,,,,,,,,525.2936,0,48,48,31,1,109,0,0,0,0,1,98,,,,,,,,,,,,,,,,,,,,,,,,,,,,,,,,,,,,,,,,,,,,,,,,,,,,,,,,,,,,,,,,,,,,,,,,
,,,,888710,001,2023-11-09_20h37.25.304,fluency,2022.2.4,MacIntel,59.84082341,,,,,,,,,,,,,,,,,,,,,,,,,,,,,,,,,,,,,,,,,,,,,,,,,,,,,,,,,,,,,,,,,,,,,,,,,,,,,,,,,,,,,,,,,0,0,0,0,1,,"[""j""]",[1.2577999999970189],1,"[""j""]",[1.2577999999970189],,,,,,,,,,,,,,,,,,,,,,,,,,,,,,,,,,,,,,,,,,,,,,,,,,,,,,,,,,,,,,,,,,,
,,,,888710,001,2023-11-09_20h37.25.304,fluency,2022.2.4,MacIntel,59.84082341,,,,,,,,,,,,,,,,,,,,,,,9,3,img/B03_09.jpg,GCNB,Press J if the face is NONBINARY and K if the face is GENDER-CONFORMING,Gender-conforming means that the face appears to be a typical example of its gender. Nonbinary means that the face does not conform to any particular gender norms.,KJ,,,,,,,,,,,,,,,,,,,,,,,,,,,,,,,,,,,,,,,6,0.3645,,,,,,,,,,,,,,0,48,48,31,1,,,,,,,,,,,,,space,0.3262,,,,,,,,,,,,,,,,,,,,,,,,,,,,,,,,,,,,,,,,,,,,,,,,,,,,,,,,,,,,,,,,,
,,,,888710,001,2023-11-09_20h37.25.304,fluency,2022.2.4,MacIntel,59.84082341,,,,,,,,,,,,,,,,,,,,,,,9,8,img/B08_09.jpg,GCNB,Press J if the face is NONBINARY and K if the face is GENDER-CONFORMING,Gender-conforming means that the face appears to be a typical example of its gender. Nonbinary means that the face does not conform to any particular gender norms.,KJ,,,,,,,,,,,,,,,,,,,,,,,,,,,,,,,,,,,,,,,,,,,,,,,,,,,,,531.0267,0,49,49,86,1,109,0,0,0,0,1,98,,,,,,,,,,,,,,,,,,,,,,,,,,,,,,,,,,,,,,,,,,,,,,,,,,,,,,,,,,,,,,,,,,,,,,,,
,,,,888710,001,2023-11-09_20h37.25.304,fluency,2022.2.4,MacIntel,59.84082341,,,,,,,,,,,,,,,,,,,,,,,,,,,,,,,,,,,,,,,,,,,,,,,,,,,,,,,,,,,,,,,,,,,,,,,,,,,,,,,,,,,,,,,,,0,0,0,0,1,,"[""k""]",[1.043399999991152],1,"[""k""]",[1.043299999997089],,,,,,,,,,,,,,,,,,,,,,,,,,,,,,,,,,,,,,,,,,,,,,,,,,,,,,,,,,,,,,,,,,,
,,,,888710,001,2023-11-09_20h37.25.304,fluency,2022.2.4,MacIntel,59.84082341,,,,,,,,,,,,,,,,,,,,,,,9,8,img/B08_09.jpg,GCNB,Press J if the face is NONBINARY and K if the face is GENDER-CONFORMING,Gender-conforming means that the face appears to be a typical example of its gender. Nonbinary means that the face does not conform to any particular gender norms.,KJ,,,,,,,,,,,,,,,,,,,,,,,,,,,,,,,,,,,,,,,4,0.3456,,,,,,,,,,,,,,0,49,49,86,1,,,,,,,,,,,,,space,0.5195,,,,,,,,,,,,,,,,,,,,,,,,,,,,,,,,,,,,,,,,,,,,,,,,,,,,,,,,,,,,,,,,,
,,,,888710,001,2023-11-09_20h37.25.304,fluency,2022.2.4,MacIntel,59.84082341,,,,,,,,,,,,,,,,,,,,,,,8,3,img/B03_08.jpg,GCNB,Press J if the face is NONBINARY and K if the face is GENDER-CONFORMING,Gender-conforming means that the face appears to be a typical example of its gender. Nonbinary means that the face does not conform to any particular gender norms.,KJ,,,,,,,,,,,,,,,,,,,,,,,,,,,,,,,,,,,,,,,,,,,,,,,,,,,,,535.9565,0,50,50,30,1,109,0,0,0,0,1,98,,,,,,,,,,,,,,,,,,,,,,,,,,,,,,,,,,,,,,,,,,,,,,,,,,,,,,,,,,,,,,,,,,,,,,,,
,,,,888710,001,2023-11-09_20h37.25.304,fluency,2022.2.4,MacIntel,59.84082341,,,,,,,,,,,,,,,,,,,,,,,,,,,,,,,,,,,,,,,,,,,,,,,,,,,,,,,,,,,,,,,,,,,,,,,,,,,,,,,,,,,,,,,,,0,0,0,0,1,,"[""j""]",[0.7928999999910502],1,"[""j""]",[0.7928999999910502],,,,,,,,,,,,,,,,,,,,,,,,,,,,,,,,,,,,,,,,,,,,,,,,,,,,,,,,,,,,,,,,,,,
,,,,888710,001,2023-11-09_20h37.25.304,fluency,2022.2.4,MacIntel,59.84082341,,,,,,,,,,,,,,,,,,,,,,,8,3,img/B03_08.jpg,GCNB,Press J if the face is NONBINARY and K if the face is GENDER-CONFORMING,Gender-conforming means that the face appears to be a typical example of its gender. Nonbinary means that the face does not conform to any particular gender norms.,KJ,,,,,,,,,,,,,,,,,,,,,,,,,,,,,,,,,,,,,,,4,1.5825,,,,,,,,,,,,,,0,50,50,30,1,,,,,,,,,,,,,space,0.3705,,,,,,,,,,,,,,,,,,,,,,,,,,,,,,,,,,,,,,,,,,,,,,,,,,,,,,,,,,,,,,,,,
,,,,888710,001,2023-11-09_20h37.25.304,fluency,2022.2.4,MacIntel,59.84082341,,,,,,,,,,,,,,,,,,,,,,,0,6,img/B06_00.jpg,GCNB,Press J if the face is NONBINARY and K if the face is GENDER-CONFORMING,Gender-conforming means that the face appears to be a typical example of its gender. Nonbinary means that the face does not conform to any particular gender norms.,KJ,,,,,,,,,,,,,,,,,,,,,,,,,,,,,,,,,,,,,,,,,,,,,,,,,,,,,542.9424,0,51,51,55,1,109,0,0,0,0,1,98,,,,,,,,,,,,,,,,,,,,,,,,,,,,,,,,,,,,,,,,,,,,,,,,,,,,,,,,,,,,,,,,,,,,,,,,
,,,,888710,001,2023-11-09_20h37.25.304,fluency,2022.2.4,MacIntel,59.84082341,,,,,,,,,,,,,,,,,,,,,,,,,,,,,,,,,,,,,,,,,,,,,,,,,,,,,,,,,,,,,,,,,,,,,,,,,,,,,,,,,,,,,,,,,0,0,0,0,1,,"[""k""]",[0.9245999999940295],1,"[""k""]",[0.9245999999940295],,,,,,,,,,,,,,,,,,,,,,,,,,,,,,,,,,,,,,,,,,,,,,,,,,,,,,,,,,,,,,,,,,,
,,,,888710,001,2023-11-09_20h37.25.304,fluency,2022.2.4,MacIntel,59.84082341,,,,,,,,,,,,,,,,,,,,,,,0,6,img/B06_00.jpg,GCNB,Press J if the face is NONBINARY and K if the face is GENDER-CONFORMING,Gender-conforming means that the face appears to be a typical example of its gender. Nonbinary means that the face does not conform to any particular gender norms.,KJ,,,,,,,,,,,,,,,,,,,,,,,,,,,,,,,,,,,,,,,4,0.9337,,,,,,,,,,,,,,0,51,51,55,1,,,,,,,,,,,,,space,0.4685,,,,,,,,,,,,,,,,,,,,,,,,,,,,,,,,,,,,,,,,,,,,,,,,,,,,,,,,,,,,,,,,,
,,,,888710,001,2023-11-09_20h37.25.304,fluency,2022.2.4,MacIntel,59.84082341,,,,,,,,,,,,,,,,,,,,,,,8,5,img/B05_08.jpg,GCNB,Press J if the face is NONBINARY and K if the face is GENDER-CONFORMING,Gender-conforming means that the face appears to be a typical example of its gender. Nonbinary means that the face does not conform to any particular gender norms.,KJ,,,,,,,,,,,,,,,,,,,,,,,,,,,,,,,,,,,,,,,,,,,,,,,,,,,,,548.4069,0,52,52,52,1,109,0,0,0,0,1,98,,,,,,,,,,,,,,,,,,,,,,,,,,,,,,,,,,,,,,,,,,,,,,,,,,,,,,,,,,,,,,,,,,,,,,,,
,,,,888710,001,2023-11-09_20h37.25.304,fluency,2022.2.4,MacIntel,59.84082341,,,,,,,,,,,,,,,,,,,,,,,,,,,,,,,,,,,,,,,,,,,,,,,,,,,,,,,,,,,,,,,,,,,,,,,,,,,,,,,,,,,,,,,,,0,0,0,0,1,,"[""k""]",[2.6478999999910684],1,"[""k""]",[2.6479000000059614],,,,,,,,,,,,,,,,,,,,,,,,,,,,,,,,,,,,,,,,,,,,,,,,,,,,,,,,,,,,,,,,,,,
,,,,888710,001,2023-11-09_20h37.25.304,fluency,2022.2.4,MacIntel,59.84082341,,,,,,,,,,,,,,,,,,,,,,,8,5,img/B05_08.jpg,GCNB,Press J if the face is NONBINARY and K if the face is GENDER-CONFORMING,Gender-conforming means that the face appears to be a typical example of its gender. Nonbinary means that the face does not conform to any particular gender norms.,KJ,,,,,,,,,,,,,,,,,,,,,,,,,,,,,,,,,,,,,,,6,1.3907,,,,,,,,,,,,,,0,52,52,52,1,,,,,,,,,,,,,space,0.3613,,,,,,,,,,,,,,,,,,,,,,,,,,,,,,,,,,,,,,,,,,,,,,,,,,,,,,,,,,,,,,,,,
,,,,888710,001,2023-11-09_20h37.25.304,fluency,2022.2.4,MacIntel,59.84082341,,,,,,,,,,,,,,,,,,,,,,,8,7,img/B07_08.jpg,GCNB,Press J if the face is NONBINARY and K if the face is GENDER-CONFORMING,Gender-conforming means that the face appears to be a typical example of its gender. Nonbinary means that the face does not conform to any particular gender norms.,KJ,,,,,,,,,,,,,,,,,,,,,,,,,,,,,,,,,,,,,,,,,,,,,,,,,,,,,555.1913,0,53,53,74,1,109,0,0,0,0,1,98,,,,,,,,,,,,,,,,,,,,,,,,,,,,,,,,,,,,,,,,,,,,,,,,,,,,,,,,,,,,,,,,,,,,,,,,
,,,,888710,001,2023-11-09_20h37.25.304,fluency,2022.2.4,MacIntel,59.84082341,,,,,,,,,,,,,,,,,,,,,,,,,,,,,,,,,,,,,,,,,,,,,,,,,,,,,,,,,,,,,,,,,,,,,,,,,,,,,,,,,,,,,,,,,0,0,0,0,1,,"[""j""]",[0.8804999999999836],1,"[""j""]",[0.8804999999999836],,,,,,,,,,,,,,,,,,,,,,,,,,,,,,,,,,,,,,,,,,,,,,,,,,,,,,,,,,,,,,,,,,,
,,,,888710,001,2023-11-09_20h37.25.304,fluency,2022.2.4,MacIntel,59.84082341,,,,,,,,,,,,,,,,,,,,,,,8,7,img/B07_08.jpg,GCNB,Press J if the face is NONBINARY and K if the face is GENDER-CONFORMING,Gender-conforming means that the face appears to be a typical example of its gender. Nonbinary means that the face does not conform to any particular gender norms.,KJ,,,,,,,,,,,,,,,,,,,,,,,,,,,,,,,,,,,,,,,6,0.3158,,,,,,,,,,,,,,0,53,53,74,1,,,,,,,,,,,,,space,0.3194,,,,,,,,,,,,,,,,,,,,,,,,,,,,,,,,,,,,,,,,,,,,,,,,,,,,,,,,,,,,,,,,,
,,,,888710,001,2023-11-09_20h37.25.304,fluency,2022.2.4,MacIntel,59.84082341,,,,,,,,,,,,,,,,,,,,,,,5,6,img/B06_05.jpg,GCNB,Press J if the face is NONBINARY and K if the face is GENDER-CONFORMING,Gender-conforming means that the face appears to be a typical example of its gender. Nonbinary means that the face does not conform to any particular gender norms.,KJ,,,,,,,,,,,,,,,,,,,,,,,,,,,,,,,,,,,,,,,,,,,,,,,,,,,,,559.8851,0,54,54,60,1,109,0,0,0,0,1,98,,,,,,,,,,,,,,,,,,,,,,,,,,,,,,,,,,,,,,,,,,,,,,,,,,,,,,,,,,,,,,,,,,,,,,,,
,,,,888710,001,2023-11-09_20h37.25.304,fluency,2022.2.4,MacIntel,59.84082341,,,,,,,,,,,,,,,,,,,,,,,,,,,,,,,,,,,,,,,,,,,,,,,,,,,,,,,,,,,,,,,,,,,,,,,,,,,,,,,,,,,,,,,,,0,0,0,0,1,,"[""j""]",[1.5850999999939859],1,"[""j""]",[1.5850000000000364],,,,,,,,,,,,,,,,,,,,,,,,,,,,,,,,,,,,,,,,,,,,,,,,,,,,,,,,,,,,,,,,,,,
,,,,888710,001,2023-11-09_20h37.25.304,fluency,2022.2.4,MacIntel,59.84082341,,,,,,,,,,,,,,,,,,,,,,,5,6,img/B06_05.jpg,GCNB,Press J if the face is NONBINARY and K if the face is GENDER-CONFORMING,Gender-conforming means that the face appears to be a typical example of its gender. Nonbinary means that the face does not conform to any particular gender norms.,KJ,,,,,,,,,,,,,,,,,,,,,,,,,,,,,,,,,,,,,,,5,0.337,,,,,,,,,,,,,,0,54,54,60,1,,,,,,,,,,,,,space,0.3202,,,,,,,,,,,,,,,,,,,,,,,,,,,,,,,,,,,,,,,,,,,,,,,,,,,,,,,,,,,,,,,,,
,,,,888710,001,2023-11-09_20h37.25.304,fluency,2022.2.4,MacIntel,59.84082341,,,,,,,,,,,,,,,,,,,,,,,3,7,img/B07_03.jpg,GCNB,Press J if the face is NONBINARY and K if the face is GENDER-CONFORMING,Gender-conforming means that the face appears to be a typical example of its gender. Nonbinary means that the face does not conform to any particular gender norms.,KJ,,,,,,,,,,,,,,,,,,,,,,,,,,,,,,,,,,,,,,,,,,,,,,,,,,,,,565.6017,0,55,55,69,1,109,0,0,0,0,1,98,,,,,,,,,,,,,,,,,,,,,,,,,,,,,,,,,,,,,,,,,,,,,,,,,,,,,,,,,,,,,,,,,,,,,,,,
,,,,888710,001,2023-11-09_20h37.25.304,fluency,2022.2.4,MacIntel,59.84082341,,,,,,,,,,,,,,,,,,,,,,,,,,,,,,,,,,,,,,,,,,,,,,,,,,,,,,,space,4.2801,,,,,,,,,,,,,,,,,,,,,,,,,,,,,,,,,,,,,,,,,2,,,,,0,0,0,0,1,,,,,,,,,,,,,,,,,,,,,,,,,,,,,,,,,,,,,,,,,,,,,,,,,,,,,,,,,,,,
,,,,888710,001,2023-11-09_20h37.25.304,fluency,2022.2.4,MacIntel,59.84082341,,,,,,,,,,,,,,,,,,,,,,,,,,,,,,,,,,,,,,,,,,,,,,,,,,,,,,,,,,,,,,,,,,,,,,,,,,,,,,,,,,,,,,,,,0,0,0,0,1,,,,,,,,,,,,,,,,,,,,,,,,,,,,,,,,,,,,,,,,,,,,,,,,,,,,,,,,,,,,,,,,,,,,,,,,,
,,,,888710,001,2023-11-09_20h37.25.304,fluency,2022.2.4,MacIntel,59.84082341,,,,,,,,,,,,,,,,,,,,,,,3,7,img/B07_03.jpg,GCNB,Press J if the face is NONBINARY and K if the face is GENDER-CONFORMING,Gender-conforming means that the face appears to be a typical example of its gender. Nonbinary means that the face does not conform to any particular gender norms.,KJ,,,,,,,,,,,,,,,,,,,,,,,,,,,,,,,,,,,,,,,,,,,,,,,,,,,,,573.9393,0,55,55,69,1,109,1,0,1,0,1,98,,,,,,,,,,,,,,,,,,,,,,,,,,,,,,,,,,,,,,,,,,,,,,,,,,,,,,,,,,,,,,,,,,,,,,,,
,,,,888710,001,2023-11-09_20h37.25.304,fluency,2022.2.4,MacIntel,59.84082341,,,,,,,,,,,,,,,,,,,,,,,,,,,,,,,,,,,,,,,,,,,,,,,,,,,,,,,,,,,,,,,,,,,,,,,,,,,,,,,,,,,,,,,,,1,0,1,0,1,,"[""k""]",[0.39520000000300115],2,"[""k""]",[0.39510000000893797],,,,,,,,,,,,,,,,,,,,,,,,,,,,,,,,,,,,,,,,,,,,,,,,,,,,,,,,,,,,,,,,,,,
,,,,888710,001,2023-11-09_20h37.25.304,fluency,2022.2.4,MacIntel,59.84082341,,,,,,,,,,,,,,,,,,,,,,,3,7,img/B07_03.jpg,GCNB,Press J if the face is NONBINARY and K if the face is GENDER-CONFORMING,Gender-conforming means that the face appears to be a typical example of its gender. Nonbinary means that the face does not conform to any particular gender norms.,KJ,,,,,,,,,,,,,,,,,,,,,,,,,,,,,,,,,,,,,,,6,0.8369,,,,,,,,,,,,,,0,55,55,69,1,,,,,,,,,,,,,space,0.6866,,,,,,,,,,,,,,,,,,,,,,,,,,,,,,,,,,,,,,,,,,,,,,,,,,,,,,,,,,,,,,,,,
,,,,888710,001,2023-11-09_20h37.25.304,fluency,2022.2.4,MacIntel,59.84082341,,,,,,,,,,,,,,,,,,,,,,,1,2,img/B02_01.jpg,GCNB,Press J if the face is NONBINARY and K if the face is GENDER-CONFORMING,Gender-conforming means that the face appears to be a typical example of its gender. Nonbinary means that the face does not conform to any particular gender norms.,KJ,,,,,,,,,,,,,,,,,,,,,,,,,,,,,,,,,,,,,,,,,,,,,,,,,,,,,580.5087,0,56,56,12,1,109,0,0,0,0,1,98,,,,,,,,,,,,,,,,,,,,,,,,,,,,,,,,,,,,,,,,,,,,,,,,,,,,,,,,,,,,,,,,,,,,,,,,
,,,,888710,001,2023-11-09_20h37.25.304,fluency,2022.2.4,MacIntel,59.84082341,,,,,,,,,,,,,,,,,,,,,,,,,,,,,,,,,,,,,,,,,,,,,,,,,,,,,,,,,,,,,,,,,,,,,,,,,,,,,,,,,,,,,,,,,0,0,0,0,1,,"[""j""]",[1.846200000003023],2,"[""j""]",[1.8460999999940668],,,,,,,,,,,,,,,,,,,,,,,,,,,,,,,,,,,,,,,,,,,,,,,,,,,,,,,,,,,,,,,,,,,
,,,,888710,001,2023-11-09_20h37.25.304,fluency,2022.2.4,MacIntel,59.84082341,,,,,,,,,,,,,,,,,,,,,,,1,2,img/B02_01.jpg,GCNB,Press J if the face is NONBINARY and K if the face is GENDER-CONFORMING,Gender-conforming means that the face appears to be a typical example of its gender. Nonbinary means that the face does not conform to any particular gender norms.,KJ,,,,,,,,,,,,,,,,,,,,,,,,,,,,,,,,,,,,,,,3,1.361,,,,,,,,,,,,,,0,56,56,12,1,,,,,,,,,,,,,space,0.4197,,,,,,,,,,,,,,,,,,,,,,,,,,,,,,,,,,,,,,,,,,,,,,,,,,,,,,,,,,,,,,,,,
,,,,888710,001,2023-11-09_20h37.25.304,fluency,2022.2.4,MacIntel,59.84082341,,,,,,,,,,,,,,,,,,,,,,,6,6,img/B06_06.jpg,GCNB,Press J if the face is NONBINARY and K if the face is GENDER-CONFORMING,Gender-conforming means that the face appears to be a typical example of its gender. Nonbinary means that the face does not conform to any particular gender norms.,KJ,,,,,,,,,,,,,,,,,,,,,,,,,,,,,,,,,,,,,,,,,,,,,,,,,,,,,587.343,0,57,57,61,1,109,0,0,0,0,1,98,,,,,,,,,,,,,,,,,,,,,,,,,,,,,,,,,,,,,,,,,,,,,,,,,,,,,,,,,,,,,,,,,,,,,,,,
,,,,888710,001,2023-11-09_20h37.25.304,fluency,2022.2.4,MacIntel,59.84082341,,,,,,,,,,,,,,,,,,,,,,,,,,,,,,,,,,,,,,,,,,,,,,,,,,,,,,,,,,,,,,,,,,,,,,,,,,,,,,,,,,,,,,,,,0,0,0,0,1,,"[""j""]",[0.7739000000059377],2,"[""j""]",[0.7739000000059377],,,,,,,,,,,,,,,,,,,,,,,,,,,,,,,,,,,,,,,,,,,,,,,,,,,,,,,,,,,,,,,,,,,
,,,,888710,001,2023-11-09_20h37.25.304,fluency,2022.2.4,MacIntel,59.84082341,,,,,,,,,,,,,,,,,,,,,,,6,6,img/B06_06.jpg,GCNB,Press J if the face is NONBINARY and K if the face is GENDER-CONFORMING,Gender-conforming means that the face appears to be a typical example of its gender. Nonbinary means that the face does not conform to any particular gender norms.,KJ,,,,,,,,,,,,,,,,,,,,,,,,,,,,,,,,,,,,,,,4,0.3294,,,,,,,,,,,,,,0,57,57,61,1,,,,,,,,,,,,,space,0.3683,,,,,,,,,,,,,,,,,,,,,,,,,,,,,,,,,,,,,,,,,,,,,,,,,,,,,,,,,,,,,,,,,
,,,,888710,001,2023-11-09_20h37.25.304,fluency,2022.2.4,MacIntel,59.84082341,,,,,,,,,,,,,,,,,,,,,,,8,9,img/B09_08.jpg,GCNB,Press J if the face is NONBINARY and K if the face is GENDER-CONFORMING,Gender-conforming means that the face appears to be a typical example of its gender. Nonbinary means that the face does not conform to any particular gender norms.,KJ,,,,,,,,,,,,,,,,,,,,,,,,,,,,,,,,,,,,,,,,,,,,,,,,,,,,,592.1083,0,58,58,96,1,109,0,0,0,0,1,98,,,,,,,,,,,,,,,,,,,,,,,,,,,,,,,,,,,,,,,,,,,,,,,,,,,,,,,,,,,,,,,,,,,,,,,,
,,,,888710,001,2023-11-09_20h37.25.304,fluency,2022.2.4,MacIntel,59.84082341,,,,,,,,,,,,,,,,,,,,,,,,,,,,,,,,,,,,,,,,,,,,,,,,,,,,,,,,,,,,,,,,,,,,,,,,,,,,,,,,,,,,,,,,,0,0,0,0,1,,"[""k""]",[1.9305999999940013],2,"[""k""]",[1.9306999999880645],,,,,,,,,,,,,,,,,,,,,,,,,,,,,,,,,,,,,,,,,,,,,,,,,,,,,,,,,,,,,,,,,,,
,,,,888710,001,2023-11-09_20h37.25.304,fluency,2022.2.4,MacIntel,59.84082341,,,,,,,,,,,,,,,,,,,,,,,8,9,img/B09_08.jpg,GCNB,Press J if the face is NONBINARY and K if the face is GENDER-CONFORMING,Gender-conforming means that the face appears to be a typical example of its gender. Nonbinary means that the face does not conform to any particular gender norms.,KJ,,,,,,,,,,,,,,,,,,,,,,,,,,,,,,,,,,,,,,,6,1.2937,,,,,,,,,,,,,,0,58,58,96,1,,,,,,,,,,,,,space,0.3606,,,,,,,,,,,,,,,,,,,,,,,,,,,,,,,,,,,,,,,,,,,,,,,,,,,,,,,,,,,,,,,,,
,,,,888710,001,2023-11-09_20h37.25.304,fluency,2022.2.4,MacIntel,59.84082341,,,,,,,,,,,,,,,,,,,,,,,6,8,img/B08_06.jpg,GCNB,Press J if the face is NONBINARY and K if the face is GENDER-CONFORMING,Gender-conforming means that the face appears to be a typical example of its gender. Nonbinary means that the face does not conform to any particular gender norms.,KJ,,,,,,,,,,,,,,,,,,,,,,,,,,,,,,,,,,,,,,,,,,,,,,,,,,,,,598.8074,0,59,59,83,1,109,0,0,0,0,1,98,,,,,,,,,,,,,,,,,,,,,,,,,,,,,,,,,,,,,,,,,,,,,,,,,,,,,,,,,,,,,,,,,,,,,,,,
,,,,888710,001,2023-11-09_20h37.25.304,fluency,2022.2.4,MacIntel,59.84082341,,,,,,,,,,,,,,,,,,,,,,,,,,,,,,,,,,,,,,,,,,,,,,,,,,,,,,,,,,,,,,,,,,,,,,,,,,,,,,,,,,,,,,,,,0,0,0,0,1,,"[""k""]",[1.3961999999880845],2,"[""k""]",[1.3944000000059305],,,,,,,,,,,,,,,,,,,,,,,,,,,,,,,,,,,,,,,,,,,,,,,,,,,,,,,,,,,,,,,,,,,
,,,,888710,001,2023-11-09_20h37.25.304,fluency,2022.2.4,MacIntel,59.84082341,,,,,,,,,,,,,,,,,,,,,,,6,8,img/B08_06.jpg,GCNB,Press J if the face is NONBINARY and K if the face is GENDER-CONFORMING,Gender-conforming means that the face appears to be a typical example of its gender. Nonbinary means that the face does not conform to any particular gender norms.,KJ,,,,,,,,,,,,,,,,,,,,,,,,,,,,,,,,,,,,,,,5,0.9581,,,,,,,,,,,,,,0,59,59,83,1,,,,,,,,,,,,,space,0.2715,,,,,,,,,,,,,,,,,,,,,,,,,,,,,,,,,,,,,,,,,,,,,,,,,,,,,,,,,,,,,,,,,
,,,,888710,001,2023-11-09_20h37.25.304,fluency,2022.2.4,MacIntel,59.84082341,,,,,,,,,,,,,,,,,,,,,,,5,8,img/B08_05.jpg,GCNB,Press J if the face is NONBINARY and K if the face is GENDER-CONFORMING,Gender-conforming means that the face appears to be a typical example of its gender. Nonbinary means that the face does not conform to any particular gender norms.,KJ,,,,,,,,,,,,,,,,,,,,,,,,,,,,,,,,,,,,,,,,,,,,,,,,,,,,,604.089,0,60,60,82,1,109,0,0,0,0,1,98,,,,,,,,,,,,,,,,,,,,,,,,,,,,,,,,,,,,,,,,,,,,,,,,,,,,,,,,,,,,,,,,,,,,,,,,
,,,,888710,001,2023-11-09_20h37.25.304,fluency,2022.2.4,MacIntel,59.84082341,,,,,,,,,,,,,,,,,,,,,,,,,,,,,,,,,,,,,,,,,,,,,,,,,,,,,,,,,,,,,,,,,,,,,,,,,,,,,,,,,,,,,,,,,0,0,0,0,1,,"[""k""]",[0.9145000000000891],2,"[""k""]",[0.914399999991133],,,,,,,,,,,,,,,,,,,,,,,,,,,,,,,,,,,,,,,,,,,,,,,,,,,,,,,,,,,,,,,,,,,
,,,,888710,001,2023-11-09_20h37.25.304,fluency,2022.2.4,MacIntel,59.84082341,,,,,,,,,,,,,,,,,,,,,,,5,8,img/B08_05.jpg,GCNB,Press J if the face is NONBINARY and K if the face is GENDER-CONFORMING,Gender-conforming means that the face appears to be a typical example of its gender. Nonbinary means that the face does not conform to any particular gender norms.,KJ,,,,,,,,,,,,,,,,,,,,,,,,,,,,,,,,,,,,,,,5,0.3692,,,,,,,,,,,,,,0,60,60,82,1,,,,,,,,,,,,,space,0.4013,,,,,,,,,,,,,,,,,,,,,,,,,,,,,,,,,,,,,,,,,,,,,,,,,,,,,,,,,,,,,,,,,
,,,,888710,001,2023-11-09_20h37.25.304,fluency,2022.2.4,MacIntel,59.84082341,,,,,,,,,,,,,,,,,,,,,,,6,4,img/B04_06.jpg,GCNB,Press J if the face is NONBINARY and K if the face is GENDER-CONFORMING,Gender-conforming means that the face appears to be a typical example of its gender. Nonbinary means that the face does not conform to any particular gender norms.,KJ,,,,,,,,,,,,,,,,,,,,,,,,,,,,,,,,,,,,,,,,,,,,,,,,,,,,,609.9221,0,61,61,39,1,109,0,0,0,0,1,98,,,,,,,,,,,,,,,,,,,,,,,,,,,,,,,,,,,,,,,,,,,,,,,,,,,,,,,,,,,,,,,,,,,,,,,,
,,,,888710,001,2023-11-09_20h37.25.304,fluency,2022.2.4,MacIntel,59.84082341,,,,,,,,,,,,,,,,,,,,,,,,,,,,,,,,,,,,,,,,,,,,,,,,,,,,,,,,,,,,,,,,,,,,,,,,,,,,,,,,,,,,,,,,,0,0,0,0,1,,"[""k""]",[1.7796000000089407],2,"[""k""]",[1.7796000000089407],,,,,,,,,,,,,,,,,,,,,,,,,,,,,,,,,,,,,,,,,,,,,,,,,,,,,,,,,,,,,,,,,,,
,,,,888710,001,2023-11-09_20h37.25.304,fluency,2022.2.4,MacIntel,59.84082341,,,,,,,,,,,,,,,,,,,,,,,6,4,img/B04_06.jpg,GCNB,Press J if the face is NONBINARY and K if the face is GENDER-CONFORMING,Gender-conforming means that the face appears to be a typical example of its gender. Nonbinary means that the face does not conform to any particular gender norms.,KJ,,,,,,,,,,,,,,,,,,,,,,,,,,,,,,,,,,,,,,,4,0.4641,,,,,,,,,,,,,,0,61,61,39,1,,,,,,,,,,,,,space,0.4503,,,,,,,,,,,,,,,,,,,,,,,,,,,,,,,,,,,,,,,,,,,,,,,,,,,,,,,,,,,,,,,,,
,,,,888710,001,2023-11-09_20h37.25.304,fluency,2022.2.4,MacIntel,59.84082341,,,,,,,,,,,,,,,,,,,,,,,7,9,img/B09_07.jpg,GCNB,Press J if the face is NONBINARY and K if the face is GENDER-CONFORMING,Gender-conforming means that the face appears to be a typical example of its gender. Nonbinary means that the face does not conform to any particular gender norms.,KJ,,,,,,,,,,,,,,,,,,,,,,,,,,,,,,,,,,,,,,,,,,,,,,,,,,,,,614.9001,0,62,62,95,1,109,0,0,0,0,1,98,,,,,,,,,,,,,,,,,,,,,,,,,,,,,,,,,,,,,,,,,,,,,,,,,,,,,,,,,,,,,,,,,,,,,,,,
,,,,888710,001,2023-11-09_20h37.25.304,fluency,2022.2.4,MacIntel,59.84082341,,,,,,,,,,,,,,,,,,,,,,,,,,,,,,,,,,,,,,,,,,,,,,,,,,,,,,,,,,,,,,,,,,,,,,,,,,,,,,,,,,,,,,,,,0,0,0,0,1,,"[""k""]",[0.5927999999969416],2,"[""k""]",[0.5927999999969416],,,,,,,,,,,,,,,,,,,,,,,,,,,,,,,,,,,,,,,,,,,,,,,,,,,,,,,,,,,,,,,,,,,
,,,,888710,001,2023-11-09_20h37.25.304,fluency,2022.2.4,MacIntel,59.84082341,,,,,,,,,,,,,,,,,,,,,,,7,9,img/B09_07.jpg,GCNB,Press J if the face is NONBINARY and K if the face is GENDER-CONFORMING,Gender-conforming means that the face appears to be a typical example of its gender. Nonbinary means that the face does not conform to any particular gender norms.,KJ,,,,,,,,,,,,,,,,,,,,,,,,,,,,,,,,,,,,,,,6,0.9436,,,,,,,,,,,,,,0,62,62,95,1,,,,,,,,,,,,,space,0.3227,,,,,,,,,,,,,,,,,,,,,,,,,,,,,,,,,,,,,,,,,,,,,,,,,,,,,,,,,,,,,,,,,
,,,,888710,001,2023-11-09_20h37.25.304,fluency,2022.2.4,MacIntel,59.84082341,,,,,,,,,,,,,,,,,,,,,,,8,4,img/B04_08.jpg,GCNB,Press J if the face is NONBINARY and K if the face is GENDER-CONFORMING,Gender-conforming means that the face appears to be a typical example of its gender. Nonbinary means that the face does not conform to any particular gender norms.,KJ,,,,,,,,,,,,,,,,,,,,,,,,,,,,,,,,,,,,,,,,,,,,,,,,,,,,,621.2164,0,63,63,41,1,109,0,0,0,0,1,98,,,,,,,,,,,,,,,,,,,,,,,,,,,,,,,,,,,,,,,,,,,,,,,,,,,,,,,,,,,,,,,,,,,,,,,,
,,,,888710,001,2023-11-09_20h37.25.304,fluency,2022.2.4,MacIntel,59.84082341,,,,,,,,,,,,,,,,,,,,,,,,,,,,,,,,,,,,,,,,,,,,,,,,,,,,,,,,,,,,,,,,,,,,,,,,,,,,,,,,,,,,,,,,,0,0,0,0,1,,"[""j""]",[1.2280000000000655],2,"[""j""]",[1.2268000000119628],,,,,,,,,,,,,,,,,,,,,,,,,,,,,,,,,,,,,,,,,,,,,,,,,,,,,,,,,,,,,,,,,,,
,,,,888710,001,2023-11-09_20h37.25.304,fluency,2022.2.4,MacIntel,59.84082341,,,,,,,,,,,,,,,,,,,,,,,8,4,img/B04_08.jpg,GCNB,Press J if the face is NONBINARY and K if the face is GENDER-CONFORMING,Gender-conforming means that the face appears to be a typical example of its gender. Nonbinary means that the face does not conform to any particular gender norms.,KJ,,,,,,,,,,,,,,,,,,,,,,,,,,,,,,,,,,,,,,,3,1.1171,,,,,,,,,,,,,,0,63,63,41,1,,,,,,,,,,,,,space,0.4022,,,,,,,,,,,,,,,,,,,,,,,,,,,,,,,,,,,,,,,,,,,,,,,,,,,,,,,,,,,,,,,,,
,,,,888710,001,2023-11-09_20h37.25.304,fluency,2022.2.4,MacIntel,59.84082341,,,,,,,,,,,,,,,,,,,,,,,10,3,img/B03_10.jpg,GCNB,Press J if the face is NONBINARY and K if the face is GENDER-CONFORMING,Gender-conforming means that the face appears to be a typical example of its gender. Nonbinary means that the face does not conform to any particular gender norms.,KJ,,,,,,,,,,,,,,,,,,,,,,,,,,,,,,,,,,,,,,,,,,,,,,,,,,,,,626.8004,0,64,64,32,1,109,0,0,0,0,1,98,,,,,,,,,,,,,,,,,,,,,,,,,,,,,,,,,,,,,,,,,,,,,,,,,,,,,,,,,,,,,,,,,,,,,,,,
,,,,888710,001,2023-11-09_20h37.25.304,fluency,2022.2.4,MacIntel,59.84082341,,,,,,,,,,,,,,,,,,,,,,,,,,,,,,,,,,,,,,,,,,,,,,,,,,,,,,,,,,,,,,,,,,,,,,,,,,,,,,,,,,,,,,,,,0,0,0,0,1,,"[""j""]",[0.8273999999910302],2,"[""j""]",[0.8274999999999864],,,,,,,,,,,,,,,,,,,,,,,,,,,,,,,,,,,,,,,,,,,,,,,,,,,,,,,,,,,,,,,,,,,
,,,,888710,001,2023-11-09_20h37.25.304,fluency,2022.2.4,MacIntel,59.84082341,,,,,,,,,,,,,,,,,,,,,,,10,3,img/B03_10.jpg,GCNB,Press J if the face is NONBINARY and K if the face is GENDER-CONFORMING,Gender-conforming means that the face appears to be a typical example of its gender. Nonbinary means that the face does not conform to any particular gender norms.,KJ,,,,,,,,,,,,,,,,,,,,,,,,,,,,,,,,,,,,,,,6,0.37,,,,,,,,,,,,,,0,64,64,32,1,,,,,,,,,,,,,space,0.3533,,,,,,,,,,,,,,,,,,,,,,,,,,,,,,,,,,,,,,,,,,,,,,,,,,,,,,,,,,,,,,,,,
,,,,888710,001,2023-11-09_20h37.25.304,fluency,2022.2.4,MacIntel,59.84082341,,,,,,,,,,,,,,,,,,,,,,,3,2,img/B02_03.jpg,GCNB,Press J if the face is NONBINARY and K if the face is GENDER-CONFORMING,Gender-conforming means that the face appears to be a typical example of its gender. Nonbinary means that the face does not conform to any particular gender norms.,KJ,,,,,,,,,,,,,,,,,,,,,,,,,,,,,,,,,,,,,,,,,,,,,,,,,,,,,632.5809,0,65,65,14,1,109,0,0,0,0,1,98,,,,,,,,,,,,,,,,,,,,,,,,,,,,,,,,,,,,,,,,,,,,,,,,,,,,,,,,,,,,,,,,,,,,,,,,
,,,,888710,001,2023-11-09_20h37.25.304,fluency,2022.2.4,MacIntel,59.84082341,,,,,,,,,,,,,,,,,,,,,,,,,,,,,,,,,,,,,,,,,,,,,,,,,,,,,,,,,,,,,,,,,,,,,,,,,,,,,,,,,,,,,,,,,0,0,0,0,1,,"[""k""]",[2.344900000005964],2,"[""k""]",[2.344899999991071],,,,,,,,,,,,,,,,,,,,,,,,,,,,,,,,,,,,,,,,,,,,,,,,,,,,,,,,,,,,,,,,,,,
,,,,888710,001,2023-11-09_20h37.25.304,fluency,2022.2.4,MacIntel,59.84082341,,,,,,,,,,,,,,,,,,,,,,,3,2,img/B02_03.jpg,GCNB,Press J if the face is NONBINARY and K if the face is GENDER-CONFORMING,Gender-conforming means that the face appears to be a typical example of its gender. Nonbinary means that the face does not conform to any particular gender norms.,KJ,,,,,,,,,,,,,,,,,,,,,,,,,,,,,,,,,,,,,,,3,1.0701,,,,,,,,,,,,,,0,65,65,14,1,,,,,,,,,,,,,space,0.3365,,,,,,,,,,,,,,,,,,,,,,,,,,,,,,,,,,,,,,,,,,,,,,,,,,,,,,,,,,,,,,,,,
,,,,888710,001,2023-11-09_20h37.25.304,fluency,2022.2.4,MacIntel,59.84082341,,,,,,,,,,,,,,,,,,,,,,,3,5,img/B05_03.jpg,GCNB,Press J if the face is NONBINARY and K if the face is GENDER-CONFORMING,Gender-conforming means that the face appears to be a typical example of its gender. Nonbinary means that the face does not conform to any particular gender norms.,KJ,,,,,,,,,,,,,,,,,,,,,,,,,,,,,,,,,,,,,,,,,,,,,,,,,,,,,639.0331,0,66,66,47,1,109,0,0,0,0,1,98,,,,,,,,,,,,,,,,,,,,,,,,,,,,,,,,,,,,,,,,,,,,,,,,,,,,,,,,,,,,,,,,,,,,,,,,
,,,,888710,001,2023-11-09_20h37.25.304,fluency,2022.2.4,MacIntel,59.84082341,,,,,,,,,,,,,,,,,,,,,,,,,,,,,,,,,,,,,,,,,,,,,,,,,,,,,,,,,,,,,,,,,,,,,,,,,,,,,,,,,,,,,,,,,0,0,0,0,1,,"[""k""]",[1.2113999999910448],2,"[""k""]",[1.211500000000001],,,,,,,,,,,,,,,,,,,,,,,,,,,,,,,,,,,,,,,,,,,,,,,,,,,,,,,,,,,,,,,,,,,
,,,,888710,001,2023-11-09_20h37.25.304,fluency,2022.2.4,MacIntel,59.84082341,,,,,,,,,,,,,,,,,,,,,,,3,5,img/B05_03.jpg,GCNB,Press J if the face is NONBINARY and K if the face is GENDER-CONFORMING,Gender-conforming means that the face appears to be a typical example of its gender. Nonbinary means that the face does not conform to any particular gender norms.,KJ,,,,,,,,,,,,,,,,,,,,,,,,,,,,,,,,,,,,,,,4,0.4042,,,,,,,,,,,,,,0,66,66,47,1,,,,,,,,,,,,,space,0.3593,,,,,,,,,,,,,,,,,,,,,,,,,,,,,,,,,,,,,,,,,,,,,,,,,,,,,,,,,,,,,,,,,
,,,,888710,001,2023-11-09_20h37.25.304,fluency,2022.2.4,MacIntel,59.84082341,,,,,,,,,,,,,,,,,,,,,,,10,10,img/B10_10.jpg,GCNB,Press J if the face is NONBINARY and K if the face is GENDER-CONFORMING,Gender-conforming means that the face appears to be a typical example of its gender. Nonbinary means that the face does not conform to any particular gender norms.,KJ,,,,,,,,,,,,,,,,,,,,,,,,,,,,,,,,,,,,,,,,,,,,,,,,,,,,,644.834,0,67,67,109,1,109,0,0,0,0,1,98,,,,,,,,,,,,,,,,,,,,,,,,,,,,,,,,,,,,,,,,,,,,,,,,,,,,,,,,,,,,,,,,,,,,,,,,
,,,,888710,001,2023-11-09_20h37.25.304,fluency,2022.2.4,MacIntel,59.84082341,,,,,,,,,,,,,,,,,,,,,,,,,,,,,,,,,,,,,,,,,,,,,,,,,,,,,,,,,,,,,,,,,,,,,,,,,,,,,,,,,,,,,,,,,0,0,0,0,1,,"[""j""]",[1.2397999999969898],2,"[""j""]",[1.239600000008977],,,,,,,,,,,,,,,,,,,,,,,,,,,,,,,,,,,,,,,,,,,,,,,,,,,,,,,,,,,,,,,,,,,
