idTextbox.text,welcomeDone.numClicks,welcomeDone.timesOn,welcomeDone.timesOff,participant,session,date,expName,psychopyVersion,OS,frameRate,consent_advance.keys,consent_advance.rt,consent_advance_2.keys,consent_advance_2.rt,consentClick.x,consentClick.y,consentClick.leftButton,consentClick.midButton,consentClick.rightButton,consentClick.time,consentClick.clicked_name,instr_advance_3.keys,instr_advance_3.rt,spec_instr_adv.keys,spec_instr_adv.rt,spec_instr_adv2.keys,spec_instr_adv2.rt,instrLoop.thisRepN,instrLoop.thisTrialN,instrLoop.thisN,instrLoop.thisIndex,instrLoop.ran,steps,fams,face_file,cond,instr,term,key_map,attnKeyResp1.keys,attnKeyResp1.rt,q1.thisRepN,q1.thisTrialN,q1.thisN,q1.thisIndex,q1.ran,attnKeyResp2.keys,attnKeyResp2.rt,q2.thisRepN,q2.thisTrialN,q2.thisN,q2.thisIndex,q2.ran,attnKeyResp3.keys,attnKeyResp3.rt,q3.thisRepN,q3.thisTrialN,q3.thisN,q3.thisIndex,q3.ran,practiceStart.keys,practiceStart.rt,practiceResp.keys,timesRedone,redo_keypress.keys,redo_keypress.rt,practiceFailed.thisRepN,practiceFailed.thisTrialN,practiceFailed.thisN,practiceFailed.thisIndex,practiceFailed.ran,practiceRepeat.thisRepN,practiceRepeat.thisTrialN,practiceRepeat.thisN,practiceRepeat.thisIndex,practiceRepeat.ran,practiceResp.rt,attrRating.keys,attrRating.rt,practiceTrial.thisRepN,practiceTrial.thisTrialN,practiceTrial.thisN,practiceTrial.thisIndex,practiceTrial.ran,key_resp_3.keys,key_resp_3.rt,attnChecker.thisRepN,attnChecker.thisTrialN,attnChecker.thisN,attnChecker.thisIndex,attnChecker.ran,faceOnsetTime,trials.thisRepN,trials.thisTrialN,trials.thisN,trials.thisIndex,trials.ran,trials.order,repeat_loop.thisRepN,repeat_loop.thisTrialN,repeat_loop.thisN,repeat_loop.thisIndex,repeat_loop.ran,repeat_loop.order,catResp.keys,catResp.rt,globalTimesRedone,catAllKeys.keys,catAllKeys.rt,contResp.keys,contResp.rt,redo_feedback_loop.thisRepN,redo_feedback_loop.thisTrialN,redo_feedback_loop.thisN,redo_feedback_loop.thisIndex,redo_feedback_loop.ran,contResp_2.keys,contResp_2.rt,respQ1.response,respQ1.rt,respQ2.response,respQ2.rt,respQ3.response,respQ3.rt,respQ4.response,respQ4.rt,surveyContinue1.numClicks,surveyContinue1.timesOn,surveyContinue1.timesOff,respQ5.response,respQ5.rt,respQ6.response,respQ6.rt,respQ7.response,respQ7.rt,respQ8.response,respQ8.rt,surveyContinue2.numClicks,surveyContinue2.timesOn,surveyContinue2.timesOff,respQ9.response,respQ9.rt,respQ10.response,respQ10.rt,respQ11.response,respQ11.rt,respQ12.response,respQ12.rt,surveyContinue3.numClicks,surveyContinue3.timesOn,surveyContinue3.timesOff,respQ13.response,respQ13.rt,respQ14.response,respQ14.rt,respQ15.response,respQ15.rt,surveyContinue4.numClicks,surveyContinue4.timesOn,surveyContinue4.timesOff,respAge.response,respAge.rt,genderResp1.response,genderResp1.rt,genderResp2.text,demogexitClick.numClicks,demogexitClick.timesOn,demogexitClick.timesOff,textbox.text,openAnswerClick.numClicks,openAnswerClick.timesOn,openAnswerClick.timesOff,debriefEnd.keys,debriefEnd.rt,exitKey.keys,exitKey.rt
5fd97d5b40332e276ea58209,1,[30.764000000000003],[30.764000000000003],992485,001,2023-10-09_17h51.10.025,fluency,2022.2.4,Win32,59.95203837,,,,,,,,,,,,,,,,,,,,,,,,,,,,,,,,,,,,,,,,,,,,,,,,,,,,,,,,,,,,,,,,,,,,,,,,,,,,,,,,,,,,,,,,,,,,,,,,,,,,,,,,,,,,,,,,,,,,,,,,,,,,,,,,,,,,,,,,,,,,,,,,,,,,,,,,,,,,,,,,,,,,,,
,,,,992485,001,2023-10-09_17h51.10.025,fluency,2022.2.4,Win32,59.95203837,space,27.247,,,,,,,,,,,,,,,,,,,,,,,,,,,,,,,,,,,,,,,,,,,,,,,,,,,,,,,,,,,,,,,,,,,,,,,,,,,,,,,,,,,,,,,,,,,,,,,,,,,,,,,,,,,,,,,,,,,,,,,,,,,,,,,,,,,,,,,,,,,,,,,,,,,,,,,,,,,,,,,,,,,,
,,,,992485,001,2023-10-09_17h51.10.025,fluency,2022.2.4,Win32,59.95203837,,,space,6.378,,,,,,,,,,,,,,,,,,,,,,,,,,,,,,,,,,,,,,,,,,,,,,,,,,,,,,,,,,,,,,,,,,,,,,,,,,,,,,,,,,,,,,,,,,,,,,,,,,,,,,,,,,,,,,,,,,,,,,,,,,,,,,,,,,,,,,,,,,,,,,,,,,,,,,,,,,,,,,,,,,
,,,,992485,001,2023-10-09_17h51.10.025,fluency,2022.2.4,Win32,59.95203837,,,,,0.284816754,-0.336649215,1,0,0,33.247,iAgree,,,,,,,,,,,,,,,,,,,,,,,,,,,,,,,,,,,,,,,,,,,,,,,,,,,,,,,,,,,,,,,,,,,,,,,,,,,,,,,,,,,,,,,,,,,,,,,,,,,,,,,,,,,,,,,,,,,,,,,,,,,,,,,,,,,,,,,,,,,,,,,,,,,,,,,,,,,
,,,,992485,001,2023-10-09_17h51.10.025,fluency,2022.2.4,Win32,59.95203837,,,,,,,,,,,,space,21.894,,,,,,,,,,,,,,,,,,,,,,,,,,,,,,,,,,,,,,,,,,,,,,,,,,,,,,,,,,,,,,,,,,,,,,,,,,,,,,,,,,,,,,,,,,,,,,,,,,,,,,,,,,,,,,,,,,,,,,,,,,,,,,,,,,,,,,,,,,,,,,,,,,,,,,,,,
,,,,992485,001,2023-10-09_17h51.10.025,fluency,2022.2.4,Win32,59.95203837,,,,,,,,,,,,,,space,17.658,space,13.826,0,0,0,1,1,1,1,img/B01_01.jpg,MF,Press J if the face is FEMALE and K if the face is MALE, ,KJ,,,,,,,,,,,,,,,,,,,,,,,,,,,,,,,,,,,,,,,,,,,,,,,,,,,,,,,,,,,,,,,,,,,,,,,,,,,,,,,,,,,,,,,,,,,,,,,,,,,,,,,,,,,,,,,,,,,,,,,,,,,,,,,,,,,,,,,,,
,,,,992485,001,2023-10-09_17h51.10.025,fluency,2022.2.4,Win32,59.95203837,,,,,,,,,,,,,,,,,,,,,,,,,,,,,,c,10.285,0,0,0,0,1,,,,,,,,,,,,,,,,,,,,,,,,,,,,,,,,,,,,,,,,,,,,,,,,,,,,,,,,,,,,,,,,,,,,,,,,,,,,,,,,,,,,,,,,,,,,,,,,,,,,,,,,,,,,,,,,,,,,,,,,,,,,,,,,,,
,,,,992485,001,2023-10-09_17h51.10.025,fluency,2022.2.4,Win32,59.95203837,,,,,,,,,,,,,,,,,,,,,,,,,,,,,,,,,,,,,a,6.261,0,0,0,0,1,,,,,,,,,,,,,,,,,,,,,,,,,,,,,,,,,,,,,,,,,,,,,,,,,,,,,,,,,,,,,,,,,,,,,,,,,,,,,,,,,,,,,,,,,,,,,,,,,,,,,,,,,,,,,,,,,,,,,,,,,,,
,,,,992485,001,2023-10-09_17h51.10.025,fluency,2022.2.4,Win32,59.95203837,,,,,,,,,,,,,,,,,,,,,,,,,,,,,,,,,,,,,,,,,,,,c,6.704,0,0,0,0,1,,,,,,,,,,,,,,,,,,,,,,,,,,,,,,,,,,,,,,,,,,,,,,,,,,,,,,,,,,,,,,,,,,,,,,,,,,,,,,,,,,,,,,,,,,,,,,,,,,,,,,,,,,,,,,,,,,,,
,,,,992485,001,2023-10-09_17h51.10.025,fluency,2022.2.4,Win32,59.95203837,,,,,,,,,,,,,,,,,,,,,,,,,,,,,,,,,,,,,,,,,,,,,,,,,,,space,4.282,,1,space,4.731,0,0,0,0,1,,,,,,,,,,,,,,,,,,,,,,,,,,,,,,,,,,,,,,,,,,,,,,,,,,,,,,,,,,,,,,,,,,,,,,,,,,,,,,,,,,,,,,,,,,,,,,,,,,,,,,,,,
,,,,992485,001,2023-10-09_17h51.10.025,fluency,2022.2.4,Win32,59.95203837,,,,,,,,,,,,,,,,,,,,,,,,,,,,,,,,,,,,,,,,,,,,,,,,,,,,,,,,,,,,,,0,0,0,0,1,,,,,,,,,,,,,,,,,,,,,,,,,,,,,,,,,,,,,,,,,,,,,,,,,,,,,,,,,,,,,,,,,,,,,,,,,,,,,,,,,,,,,,,,,,,,,,,,,,,,
,,,,992485,001,2023-10-09_17h51.10.025,fluency,2022.2.4,Win32,59.95203837,,,,,,,,,,,,,,,,,,,,,,,,,,,,,,,,,,,,,,,,,,,,,,,,,,,,,k,1,,,,,,,,1,0,1,0,1,0.591,,,,,,,,,,,,,,,,,,,,,,,,,,,,,,,,,,,,,,,,,,,,,,,,,,,,,,,,,,,,,,,,,,,,,,,,,,,,,,,,,,,,,,,,,,,,,,,,,,,
,,,,992485,001,2023-10-09_17h51.10.025,fluency,2022.2.4,Win32,59.95203837,,,,,,,,,,,,,,,,,,,,,,,,,,,,,,,,,,,,,,,,,,,,,,,,,,,,,,,,,,,,,,,,,,,,5,7.856,0,0,0,0,1,,,,,,,,,,,,,,,,,,,,,,,,,,,,,,,,,,,,,,,,,,,,,,,,,,,,,,,,,,,,,,,,,,,,,,,,,,,,,,,,,,,,,,,,,,,,
,,,,992485,001,2023-10-09_17h51.10.025,fluency,2022.2.4,Win32,59.95203837,,,,,,,,,,,,,,,,,,,,,,,,,,,,,,,,,,,,,,,,,,,,,,,,,,,,,,,,,,,,,,,,,,,,,,,,,,,space,5.214,0,0,0,0,1,,,,,,,,,,,,,,,,,,,,,,,,,,,,,,,,,,,,,,,,,,,,,,,,,,,,,,,,,,,,,,,,,,,,,,,,,,,,,,,,,,,,,
,,,,992485,001,2023-10-09_17h51.10.025,fluency,2022.2.4,Win32,59.95203837,,,,,,,,,,,,,,,,,,,,,,,7,6,img/B06_07.jpg,MF,Press J if the face is FEMALE and K if the face is MALE, ,KJ,,,,,,,,,,,,,,,,,,,,,,,,,,,,,,,,,,,,,,,,,,,,,,,,,,,,,225.591,0,0,0,62,1,109,0,0,0,0,1,98,,,,,,,,,,,,,,,,,,,,,,,,,,,,,,,,,,,,,,,,,,,,,,,,,,,,,,,,,,,,,,,,,,,,,,,,
,,,,992485,001,2023-10-09_17h51.10.025,fluency,2022.2.4,Win32,59.95203837,,,,,,,,,,,,,,,,,,,,,,,,,,,,,,,,,,,,,,,,,,,,,,,,,,,,,,,,,,,,,,,,,,,,,,,,,,,,,,,,,,,,,,,,,0,0,0,0,1,,"[""j""]",[0.6800000000000068],1,"[""j""]",[0.6800000000000068],,,,,,,,,,,,,,,,,,,,,,,,,,,,,,,,,,,,,,,,,,,,,,,,,,,,,,,,,,,,,,,,,,,
,,,,992485,001,2023-10-09_17h51.10.025,fluency,2022.2.4,Win32,59.95203837,,,,,,,,,,,,,,,,,,,,,,,7,6,img/B06_07.jpg,MF,Press J if the face is FEMALE and K if the face is MALE, ,KJ,,,,,,,,,,,,,,,,,,,,,,,,,,,,,,,,,,,,,,,5,2.119,,,,,,,,,,,,,,0,0,0,62,1,,,,,,,,,,,,,space,9.866,,,,,,,,,,,,,,,,,,,,,,,,,,,,,,,,,,,,,,,,,,,,,,,,,,,,,,,,,,,,,,,,,
,,,,992485,001,2023-10-09_17h51.10.025,fluency,2022.2.4,Win32,59.95203837,,,,,,,,,,,,,,,,,,,,,,,3,3,img/B03_03.jpg,MF,Press J if the face is FEMALE and K if the face is MALE, ,KJ,,,,,,,,,,,,,,,,,,,,,,,,,,,,,,,,,,,,,,,,,,,,,,,,,,,,,242.608,0,1,1,25,1,109,0,0,0,0,1,98,,,,,,,,,,,,,,,,,,,,,,,,,,,,,,,,,,,,,,,,,,,,,,,,,,,,,,,,,,,,,,,,,,,,,,,,
,,,,992485,001,2023-10-09_17h51.10.025,fluency,2022.2.4,Win32,59.95203837,,,,,,,,,,,,,,,,,,,,,,,,,,,,,,,,,,,,,,,,,,,,,,,,,,,,,,,space,3.061,,,,,,,,,,,,,,,,,,,,,,,,,,,,,,,,,,,,,,,,,2,,,,,0,0,0,0,1,,,,,,,,,,,,,,,,,,,,,,,,,,,,,,,,,,,,,,,,,,,,,,,,,,,,,,,,,,,,
,,,,992485,001,2023-10-09_17h51.10.025,fluency,2022.2.4,Win32,59.95203837,,,,,,,,,,,,,,,,,,,,,,,,,,,,,,,,,,,,,,,,,,,,,,,,,,,,,,,,,,,,,,,,,,,,,,,,,,,,,,,,,,,,,,,,,0,0,0,0,1,,,,,,,,,,,,,,,,,,,,,,,,,,,,,,,,,,,,,,,,,,,,,,,,,,,,,,,,,,,,,,,,,,,,,,,,,
,,,,992485,001,2023-10-09_17h51.10.025,fluency,2022.2.4,Win32,59.95203837,,,,,,,,,,,,,,,,,,,,,,,3,3,img/B03_03.jpg,MF,Press J if the face is FEMALE and K if the face is MALE, ,KJ,,,,,,,,,,,,,,,,,,,,,,,,,,,,,,,,,,,,,,,,,,,,,,,,,,,,,250.683,0,1,1,25,1,109,1,0,1,0,1,98,,,,,,,,,,,,,,,,,,,,,,,,,,,,,,,,,,,,,,,,,,,,,,,,,,,,,,,,,,,,,,,,,,,,,,,,
,,,,992485,001,2023-10-09_17h51.10.025,fluency,2022.2.4,Win32,59.95203837,,,,,,,,,,,,,,,,,,,,,,,,,,,,,,,,,,,,,,,,,,,,,,,,,,,,,,,,,,,,,,,,,,,,,,,,,,,,,,,,,,,,,,,,,1,0,1,0,1,,"[""k""]",[0.6959999999999695],2,"[""k""]",[0.6959999999999695],,,,,,,,,,,,,,,,,,,,,,,,,,,,,,,,,,,,,,,,,,,,,,,,,,,,,,,,,,,,,,,,,,,
,,,,992485,001,2023-10-09_17h51.10.025,fluency,2022.2.4,Win32,59.95203837,,,,,,,,,,,,,,,,,,,,,,,3,3,img/B03_03.jpg,MF,Press J if the face is FEMALE and K if the face is MALE, ,KJ,,,,,,,,,,,,,,,,,,,,,,,,,,,,,,,,,,,,,,,3,4.373,,,,,,,,,,,,,,0,1,1,25,1,,,,,,,,,,,,,space,1.568,,,,,,,,,,,,,,,,,,,,,,,,,,,,,,,,,,,,,,,,,,,,,,,,,,,,,,,,,,,,,,,,,
,,,,992485,001,2023-10-09_17h51.10.025,fluency,2022.2.4,Win32,59.95203837,,,,,,,,,,,,,,,,,,,,,,,7,2,img/B02_07.jpg,MF,Press J if the face is FEMALE and K if the face is MALE, ,KJ,,,,,,,,,,,,,,,,,,,,,,,,,,,,,,,,,,,,,,,,,,,,,,,,,,,,,261.66,0,2,2,18,1,109,0,0,0,0,1,98,,,,,,,,,,,,,,,,,,,,,,,,,,,,,,,,,,,,,,,,,,,,,,,,,,,,,,,,,,,,,,,,,,,,,,,,
,,,,992485,001,2023-10-09_17h51.10.025,fluency,2022.2.4,Win32,59.95203837,,,,,,,,,,,,,,,,,,,,,,,,,,,,,,,,,,,,,,,,,,,,,,,,,,,,,,,,,,,,,,,,,,,,,,,,,,,,,,,,,,,,,,,,,0,0,0,0,1,,"[""j""]",[1.531000000000006],2,"[""j""]",[1.531000000000006],,,,,,,,,,,,,,,,,,,,,,,,,,,,,,,,,,,,,,,,,,,,,,,,,,,,,,,,,,,,,,,,,,,
,,,,992485,001,2023-10-09_17h51.10.025,fluency,2022.2.4,Win32,59.95203837,,,,,,,,,,,,,,,,,,,,,,,7,2,img/B02_07.jpg,MF,Press J if the face is FEMALE and K if the face is MALE, ,KJ,,,,,,,,,,,,,,,,,,,,,,,,,,,,,,,,,,,,,,,3,3.803,,,,,,,,,,,,,,0,2,2,18,1,,,,,,,,,,,,,space,1.212,,,,,,,,,,,,,,,,,,,,,,,,,,,,,,,,,,,,,,,,,,,,,,,,,,,,,,,,,,,,,,,,,
,,,,992485,001,2023-10-09_17h51.10.025,fluency,2022.2.4,Win32,59.95203837,,,,,,,,,,,,,,,,,,,,,,,9,4,img/B04_09.jpg,MF,Press J if the face is FEMALE and K if the face is MALE, ,KJ,,,,,,,,,,,,,,,,,,,,,,,,,,,,,,,,,,,,,,,,,,,,,,,,,,,,,270.703,0,3,3,42,1,109,0,0,0,0,1,98,,,,,,,,,,,,,,,,,,,,,,,,,,,,,,,,,,,,,,,,,,,,,,,,,,,,,,,,,,,,,,,,,,,,,,,,
,,,,992485,001,2023-10-09_17h51.10.025,fluency,2022.2.4,Win32,59.95203837,,,,,,,,,,,,,,,,,,,,,,,,,,,,,,,,,,,,,,,,,,,,,,,,,,,,,,,,,,,,,,,,,,,,,,,,,,,,,,,,,,,,,,,,,0,0,0,0,1,,"[""j""]",[2.2309999999999945],2,"[""j""]",[2.2309999999999945],,,,,,,,,,,,,,,,,,,,,,,,,,,,,,,,,,,,,,,,,,,,,,,,,,,,,,,,,,,,,,,,,,,
,,,,992485,001,2023-10-09_17h51.10.025,fluency,2022.2.4,Win32,59.95203837,,,,,,,,,,,,,,,,,,,,,,,9,4,img/B04_09.jpg,MF,Press J if the face is FEMALE and K if the face is MALE, ,KJ,,,,,,,,,,,,,,,,,,,,,,,,,,,,,,,,,,,,,,,2,2.239,,,,,,,,,,,,,,0,3,3,42,1,,,,,,,,,,,,,space,1.146,,,,,,,,,,,,,,,,,,,,,,,,,,,,,,,,,,,,,,,,,,,,,,,,,,,,,,,,,,,,,,,,,
,,,,992485,001,2023-10-09_17h51.10.025,fluency,2022.2.4,Win32,59.95203837,,,,,,,,,,,,,,,,,,,,,,,1,3,img/B03_01.jpg,MF,Press J if the face is FEMALE and K if the face is MALE, ,KJ,,,,,,,,,,,,,,,,,,,,,,,,,,,,,,,,,,,,,,,,,,,,,,,,,,,,,279.111,0,4,4,23,1,109,0,0,0,0,1,98,,,,,,,,,,,,,,,,,,,,,,,,,,,,,,,,,,,,,,,,,,,,,,,,,,,,,,,,,,,,,,,,,,,,,,,,
,,,,992485,001,2023-10-09_17h51.10.025,fluency,2022.2.4,Win32,59.95203837,,,,,,,,,,,,,,,,,,,,,,,,,,,,,,,,,,,,,,,,,,,,,,,,,,,,,,,,,,,,,,,,,,,,,,,,,,,,,,,,,,,,,,,,,0,0,0,0,1,,"[""k""]",[0.7169999999999845],2,"[""k""]",[0.7169999999999845],,,,,,,,,,,,,,,,,,,,,,,,,,,,,,,,,,,,,,,,,,,,,,,,,,,,,,,,,,,,,,,,,,,
,,,,992485,001,2023-10-09_17h51.10.025,fluency,2022.2.4,Win32,59.95203837,,,,,,,,,,,,,,,,,,,,,,,1,3,img/B03_01.jpg,MF,Press J if the face is FEMALE and K if the face is MALE, ,KJ,,,,,,,,,,,,,,,,,,,,,,,,,,,,,,,,,,,,,,,6,1.152,,,,,,,,,,,,,,0,4,4,23,1,,,,,,,,,,,,,space,0.862,,,,,,,,,,,,,,,,,,,,,,,,,,,,,,,,,,,,,,,,,,,,,,,,,,,,,,,,,,,,,,,,,
,,,,992485,001,2023-10-09_17h51.10.025,fluency,2022.2.4,Win32,59.95203837,,,,,,,,,,,,,,,,,,,,,,,9,9,img/B09_09.jpg,MF,Press J if the face is FEMALE and K if the face is MALE, ,KJ,,,,,,,,,,,,,,,,,,,,,,,,,,,,,,,,,,,,,,,,,,,,,,,,,,,,,286.151,0,5,5,97,1,109,0,0,0,0,1,98,,,,,,,,,,,,,,,,,,,,,,,,,,,,,,,,,,,,,,,,,,,,,,,,,,,,,,,,,,,,,,,,,,,,,,,,
,,,,992485,001,2023-10-09_17h51.10.025,fluency,2022.2.4,Win32,59.95203837,,,,,,,,,,,,,,,,,,,,,,,,,,,,,,,,,,,,,,,,,,,,,,,,,,,,,,,,,,,,,,,,,,,,,,,,,,,,,,,,,,,,,,,,,0,0,0,0,1,,"[""j""]",[1.4139999999999873],2,"[""j""]",[1.4139999999999873],,,,,,,,,,,,,,,,,,,,,,,,,,,,,,,,,,,,,,,,,,,,,,,,,,,,,,,,,,,,,,,,,,,
,,,,992485,001,2023-10-09_17h51.10.025,fluency,2022.2.4,Win32,59.95203837,,,,,,,,,,,,,,,,,,,,,,,9,9,img/B09_09.jpg,MF,Press J if the face is FEMALE and K if the face is MALE, ,KJ,,,,,,,,,,,,,,,,,,,,,,,,,,,,,,,,,,,,,,,4,1.48,,,,,,,,,,,,,,0,5,5,97,1,,,,,,,,,,,,,space,0.824,,,,,,,,,,,,,,,,,,,,,,,,,,,,,,,,,,,,,,,,,,,,,,,,,,,,,,,,,,,,,,,,,
,,,,992485,001,2023-10-09_17h51.10.025,fluency,2022.2.4,Win32,59.95203837,,,,,,,,,,,,,,,,,,,,,,,10,2,img/B02_10.jpg,MF,Press J if the face is FEMALE and K if the face is MALE, ,KJ,,,,,,,,,,,,,,,,,,,,,,,,,,,,,,,,,,,,,,,,,,,,,,,,,,,,,293.492,0,6,6,21,1,109,0,0,0,0,1,98,,,,,,,,,,,,,,,,,,,,,,,,,,,,,,,,,,,,,,,,,,,,,,,,,,,,,,,,,,,,,,,,,,,,,,,,
,,,,992485,001,2023-10-09_17h51.10.025,fluency,2022.2.4,Win32,59.95203837,,,,,,,,,,,,,,,,,,,,,,,,,,,,,,,,,,,,,,,,,,,,,,,,,,,,,,,,,,,,,,,,,,,,,,,,,,,,,,,,,,,,,,,,,0,0,0,0,1,,"[""j""]",[1.3199999999999932],2,"[""j""]",[1.3199999999999932],,,,,,,,,,,,,,,,,,,,,,,,,,,,,,,,,,,,,,,,,,,,,,,,,,,,,,,,,,,,,,,,,,,
,,,,992485,001,2023-10-09_17h51.10.025,fluency,2022.2.4,Win32,59.95203837,,,,,,,,,,,,,,,,,,,,,,,10,2,img/B02_10.jpg,MF,Press J if the face is FEMALE and K if the face is MALE, ,KJ,,,,,,,,,,,,,,,,,,,,,,,,,,,,,,,,,,,,,,,3,3.381,,,,,,,,,,,,,,0,6,6,21,1,,,,,,,,,,,,,space,0.901,,,,,,,,,,,,,,,,,,,,,,,,,,,,,,,,,,,,,,,,,,,,,,,,,,,,,,,,,,,,,,,,,
,,,,992485,001,2023-10-09_17h51.10.025,fluency,2022.2.4,Win32,59.95203837,,,,,,,,,,,,,,,,,,,,,,,5,4,img/B04_05.jpg,MF,Press J if the face is FEMALE and K if the face is MALE, ,KJ,,,,,,,,,,,,,,,,,,,,,,,,,,,,,,,,,,,,,,,,,,,,,,,,,,,,,302.819,0,7,7,38,1,109,0,0,0,0,1,98,,,,,,,,,,,,,,,,,,,,,,,,,,,,,,,,,,,,,,,,,,,,,,,,,,,,,,,,,,,,,,,,,,,,,,,,
,,,,992485,001,2023-10-09_17h51.10.025,fluency,2022.2.4,Win32,59.95203837,,,,,,,,,,,,,,,,,,,,,,,,,,,,,,,,,,,,,,,,,,,,,,,,,,,,,,,,,,,,,,,,,,,,,,,,,,,,,,,,,,,,,,,,,0,0,0,0,1,,"[""k""]",[1.968999999999994],2,"[""k""]",[1.968999999999994],,,,,,,,,,,,,,,,,,,,,,,,,,,,,,,,,,,,,,,,,,,,,,,,,,,,,,,,,,,,,,,,,,,
,,,,992485,001,2023-10-09_17h51.10.025,fluency,2022.2.4,Win32,59.95203837,,,,,,,,,,,,,,,,,,,,,,,5,4,img/B04_05.jpg,MF,Press J if the face is FEMALE and K if the face is MALE, ,KJ,,,,,,,,,,,,,,,,,,,,,,,,,,,,,,,,,,,,,,,4,9.012,,,,,,,,,,,,,,0,7,7,38,1,,,,,,,,,,,,,space,0.771,,,,,,,,,,,,,,,,,,,,,,,,,,,,,,,,,,,,,,,,,,,,,,,,,,,,,,,,,,,,,,,,,
,,,,992485,001,2023-10-09_17h51.10.025,fluency,2022.2.4,Win32,59.95203837,,,,,,,,,,,,,,,,,,,,,,,10,7,img/B07_10.jpg,MF,Press J if the face is FEMALE and K if the face is MALE, ,KJ,,,,,,,,,,,,,,,,,,,,,,,,,,,,,,,,,,,,,,,,,,,,,,,,,,,,,316.632,0,8,8,76,1,109,0,0,0,0,1,98,,,,,,,,,,,,,,,,,,,,,,,,,,,,,,,,,,,,,,,,,,,,,,,,,,,,,,,,,,,,,,,,,,,,,,,,
,,,,992485,001,2023-10-09_17h51.10.025,fluency,2022.2.4,Win32,59.95203837,,,,,,,,,,,,,,,,,,,,,,,,,,,,,,,,,,,,,,,,,,,,,,,,,,,,,,,,,,,,,,,,,,,,,,,,,,,,,,,,,,,,,,,,,0,0,0,0,1,,"[""j""]",[1.0930000000000177],2,"[""j""]",[1.0930000000000177],,,,,,,,,,,,,,,,,,,,,,,,,,,,,,,,,,,,,,,,,,,,,,,,,,,,,,,,,,,,,,,,,,,
,,,,992485,001,2023-10-09_17h51.10.025,fluency,2022.2.4,Win32,59.95203837,,,,,,,,,,,,,,,,,,,,,,,10,7,img/B07_10.jpg,MF,Press J if the face is FEMALE and K if the face is MALE, ,KJ,,,,,,,,,,,,,,,,,,,,,,,,,,,,,,,,,,,,,,,4,1.599,,,,,,,,,,,,,,0,8,8,76,1,,,,,,,,,,,,,space,1.475,,,,,,,,,,,,,,,,,,,,,,,,,,,,,,,,,,,,,,,,,,,,,,,,,,,,,,,,,,,,,,,,,
,,,,992485,001,2023-10-09_17h51.10.025,fluency,2022.2.4,Win32,59.95203837,,,,,,,,,,,,,,,,,,,,,,,10,4,img/B04_10.jpg,MF,Press J if the face is FEMALE and K if the face is MALE, ,KJ,,,,,,,,,,,,,,,,,,,,,,,,,,,,,,,,,,,,,,,,,,,,,,,,,,,,,324.74,0,9,9,43,1,109,0,0,0,0,1,98,,,,,,,,,,,,,,,,,,,,,,,,,,,,,,,,,,,,,,,,,,,,,,,,,,,,,,,,,,,,,,,,,,,,,,,,
,,,,992485,001,2023-10-09_17h51.10.025,fluency,2022.2.4,Win32,59.95203837,,,,,,,,,,,,,,,,,,,,,,,,,,,,,,,,,,,,,,,,,,,,,,,,,,,,,,,,,,,,,,,,,,,,,,,,,,,,,,,,,,,,,,,,,0,0,0,0,1,,"[""j""]",[1.032000000000039],2,"[""j""]",[1.032000000000039],,,,,,,,,,,,,,,,,,,,,,,,,,,,,,,,,,,,,,,,,,,,,,,,,,,,,,,,,,,,,,,,,,,
,,,,992485,001,2023-10-09_17h51.10.025,fluency,2022.2.4,Win32,59.95203837,,,,,,,,,,,,,,,,,,,,,,,10,4,img/B04_10.jpg,MF,Press J if the face is FEMALE and K if the face is MALE, ,KJ,,,,,,,,,,,,,,,,,,,,,,,,,,,,,,,,,,,,,,,2,1.859,,,,,,,,,,,,,,0,9,9,43,1,,,,,,,,,,,,,space,0.844,,,,,,,,,,,,,,,,,,,,,,,,,,,,,,,,,,,,,,,,,,,,,,,,,,,,,,,,,,,,,,,,,
,,,,992485,001,2023-10-09_17h51.10.025,fluency,2022.2.4,Win32,59.95203837,,,,,,,,,,,,,,,,,,,,,,,6,9,img/B09_06.jpg,MF,Press J if the face is FEMALE and K if the face is MALE, ,KJ,,,,,,,,,,,,,,,,,,,,,,,,,,,,,,,,,,,,,,,,,,,,,,,,,,,,,331.464,0,10,10,94,1,109,0,0,0,0,1,98,,,,,,,,,,,,,,,,,,,,,,,,,,,,,,,,,,,,,,,,,,,,,,,,,,,,,,,,,,,,,,,,,,,,,,,,
,,,,992485,001,2023-10-09_17h51.10.025,fluency,2022.2.4,Win32,59.95203837,,,,,,,,,,,,,,,,,,,,,,,,,,,,,,,,,,,,,,,,,,,,,,,,,,,,,,,,,,,,,,,,,,,,,,,,,,,,,,,,,,,,,,,,,0,0,0,0,1,,"[""j""]",[1.0610000000000355],2,"[""j""]",[1.0610000000000355],,,,,,,,,,,,,,,,,,,,,,,,,,,,,,,,,,,,,,,,,,,,,,,,,,,,,,,,,,,,,,,,,,,
,,,,992485,001,2023-10-09_17h51.10.025,fluency,2022.2.4,Win32,59.95203837,,,,,,,,,,,,,,,,,,,,,,,6,9,img/B09_06.jpg,MF,Press J if the face is FEMALE and K if the face is MALE, ,KJ,,,,,,,,,,,,,,,,,,,,,,,,,,,,,,,,,,,,,,,4,6.159,,,,,,,,,,,,,,0,10,10,94,1,,,,,,,,,,,,,space,1.946,,,,,,,,,,,,,,,,,,,,,,,,,,,,,,,,,,,,,,,,,,,,,,,,,,,,,,,,,,,,,,,,,
,,,,992485,001,2023-10-09_17h51.10.025,fluency,2022.2.4,Win32,59.95203837,,,,,,,,,,,,,,,,,,,,,,,8,1,img/B01_08.jpg,MF,Press J if the face is FEMALE and K if the face is MALE, ,KJ,,,,,,,,,,,,,,,,,,,,,,,,,,,,,,,,,,,,,,,,,,,,,,,,,,,,,343.593,0,11,11,8,1,109,0,0,0,0,1,98,,,,,,,,,,,,,,,,,,,,,,,,,,,,,,,,,,,,,,,,,,,,,,,,,,,,,,,,,,,,,,,,,,,,,,,,
,,,,992485,001,2023-10-09_17h51.10.025,fluency,2022.2.4,Win32,59.95203837,,,,,,,,,,,,,,,,,,,,,,,,,,,,,,,,,,,,,,,,,,,,,,,,,,,,,,,,,,,,,,,,,,,,,,,,,,,,,,,,,,,,,,,,,0,0,0,0,1,,"[""j""]",[1.1719999999999686],2,"[""j""]",[1.1719999999999686],,,,,,,,,,,,,,,,,,,,,,,,,,,,,,,,,,,,,,,,,,,,,,,,,,,,,,,,,,,,,,,,,,,
,,,,992485,001,2023-10-09_17h51.10.025,fluency,2022.2.4,Win32,59.95203837,,,,,,,,,,,,,,,,,,,,,,,8,1,img/B01_08.jpg,MF,Press J if the face is FEMALE and K if the face is MALE, ,KJ,,,,,,,,,,,,,,,,,,,,,,,,,,,,,,,,,,,,,,,4,2.529,,,,,,,,,,,,,,0,11,11,8,1,,,,,,,,,,,,,space,0.972,,,,,,,,,,,,,,,,,,,,,,,,,,,,,,,,,,,,,,,,,,,,,,,,,,,,,,,,,,,,,,,,,
,,,,992485,001,2023-10-09_17h51.10.025,fluency,2022.2.4,Win32,59.95203837,,,,,,,,,,,,,,,,,,,,,,,8,2,img/B02_08.jpg,MF,Press J if the face is FEMALE and K if the face is MALE, ,KJ,,,,,,,,,,,,,,,,,,,,,,,,,,,,,,,,,,,,,,,,,,,,,,,,,,,,,352.134,0,12,12,19,1,109,0,0,0,0,1,98,,,,,,,,,,,,,,,,,,,,,,,,,,,,,,,,,,,,,,,,,,,,,,,,,,,,,,,,,,,,,,,,,,,,,,,,
,,,,992485,001,2023-10-09_17h51.10.025,fluency,2022.2.4,Win32,59.95203837,,,,,,,,,,,,,,,,,,,,,,,,,,,,,,,,,,,,,,,,,,,,,,,,,,,,,,,,,,,,,,,,,,,,,,,,,,,,,,,,,,,,,,,,,0,0,0,0,1,,"[""j""]",[1.5980000000000132],2,"[""j""]",[1.5980000000000132],,,,,,,,,,,,,,,,,,,,,,,,,,,,,,,,,,,,,,,,,,,,,,,,,,,,,,,,,,,,,,,,,,,
,,,,992485,001,2023-10-09_17h51.10.025,fluency,2022.2.4,Win32,59.95203837,,,,,,,,,,,,,,,,,,,,,,,8,2,img/B02_08.jpg,MF,Press J if the face is FEMALE and K if the face is MALE, ,KJ,,,,,,,,,,,,,,,,,,,,,,,,,,,,,,,,,,,,,,,3,4.715,,,,,,,,,,,,,,0,12,12,19,1,,,,,,,,,,,,,space,2.94,,,,,,,,,,,,,,,,,,,,,,,,,,,,,,,,,,,,,,,,,,,,,,,,,,,,,,,,,,,,,,,,,
,,,,992485,001,2023-10-09_17h51.10.025,fluency,2022.2.4,Win32,59.95203837,,,,,,,,,,,,,,,,,,,,,,,3,6,img/B06_03.jpg,MF,Press J if the face is FEMALE and K if the face is MALE, ,KJ,,,,,,,,,,,,,,,,,,,,,,,,,,,,,,,,,,,,,,,,,,,,,,,,,,,,,363.829,0,13,13,58,1,109,0,0,0,0,1,98,,,,,,,,,,,,,,,,,,,,,,,,,,,,,,,,,,,,,,,,,,,,,,,,,,,,,,,,,,,,,,,,,,,,,,,,
,,,,992485,001,2023-10-09_17h51.10.025,fluency,2022.2.4,Win32,59.95203837,,,,,,,,,,,,,,,,,,,,,,,,,,,,,,,,,,,,,,,,,,,,,,,,,,,,,,,,,,,,,,,,,,,,,,,,,,,,,,,,,,,,,,,,,0,0,0,0,1,,"[""k""]",[1.3759999999999764],2,"[""k""]",[1.3759999999999764],,,,,,,,,,,,,,,,,,,,,,,,,,,,,,,,,,,,,,,,,,,,,,,,,,,,,,,,,,,,,,,,,,,
,,,,992485,001,2023-10-09_17h51.10.025,fluency,2022.2.4,Win32,59.95203837,,,,,,,,,,,,,,,,,,,,,,,3,6,img/B06_03.jpg,MF,Press J if the face is FEMALE and K if the face is MALE, ,KJ,,,,,,,,,,,,,,,,,,,,,,,,,,,,,,,,,,,,,,,5,2.387,,,,,,,,,,,,,,0,13,13,58,1,,,,,,,,,,,,,space,0.725,,,,,,,,,,,,,,,,,,,,,,,,,,,,,,,,,,,,,,,,,,,,,,,,,,,,,,,,,,,,,,,,,
,,,,992485,001,2023-10-09_17h51.10.025,fluency,2022.2.4,Win32,59.95203837,,,,,,,,,,,,,,,,,,,,,,,1,5,img/B05_01.jpg,MF,Press J if the face is FEMALE and K if the face is MALE, ,KJ,,,,,,,,,,,,,,,,,,,,,,,,,,,,,,,,,,,,,,,,,,,,,,,,,,,,,370.969,0,14,14,45,1,109,0,0,0,0,1,98,,,,,,,,,,,,,,,,,,,,,,,,,,,,,,,,,,,,,,,,,,,,,,,,,,,,,,,,,,,,,,,,,,,,,,,,
,,,,992485,001,2023-10-09_17h51.10.025,fluency,2022.2.4,Win32,59.95203837,,,,,,,,,,,,,,,,,,,,,,,,,,,,,,,,,,,,,,,,,,,,,,,,,,,,,,,,,,,,,,,,,,,,,,,,,,,,,,,,,,,,,,,,,0,0,0,0,1,,"[""k""]",[1.8280000000000314],2,"[""k""]",[1.8280000000000314],,,,,,,,,,,,,,,,,,,,,,,,,,,,,,,,,,,,,,,,,,,,,,,,,,,,,,,,,,,,,,,,,,,
,,,,992485,001,2023-10-09_17h51.10.025,fluency,2022.2.4,Win32,59.95203837,,,,,,,,,,,,,,,,,,,,,,,1,5,img/B05_01.jpg,MF,Press J if the face is FEMALE and K if the face is MALE, ,KJ,,,,,,,,,,,,,,,,,,,,,,,,,,,,,,,,,,,,,,,4,1.998,,,,,,,,,,,,,,0,14,14,45,1,,,,,,,,,,,,,space,0.937,,,,,,,,,,,,,,,,,,,,,,,,,,,,,,,,,,,,,,,,,,,,,,,,,,,,,,,,,,,,,,,,,
,,,,992485,001,2023-10-09_17h51.10.025,fluency,2022.2.4,Win32,59.95203837,,,,,,,,,,,,,,,,,,,,,,,4,1,img/B01_04.jpg,MF,Press J if the face is FEMALE and K if the face is MALE, ,KJ,,,,,,,,,,,,,,,,,,,,,,,,,,,,,,,,,,,,,,,,,,,,,,,,,,,,,378.944,0,15,15,4,1,109,0,0,0,0,1,98,,,,,,,,,,,,,,,,,,,,,,,,,,,,,,,,,,,,,,,,,,,,,,,,,,,,,,,,,,,,,,,,,,,,,,,,
,,,,992485,001,2023-10-09_17h51.10.025,fluency,2022.2.4,Win32,59.95203837,,,,,,,,,,,,,,,,,,,,,,,,,,,,,,,,,,,,,,,,,,,,,,,,,,,,,,,,,,,,,,,,,,,,,,,,,,,,,,,,,,,,,,,,,0,0,0,0,1,,"[""k""]",[1.76400000000001],2,"[""k""]",[1.7650000000000432],,,,,,,,,,,,,,,,,,,,,,,,,,,,,,,,,,,,,,,,,,,,,,,,,,,,,,,,,,,,,,,,,,,
,,,,992485,001,2023-10-09_17h51.10.025,fluency,2022.2.4,Win32,59.95203837,,,,,,,,,,,,,,,,,,,,,,,4,1,img/B01_04.jpg,MF,Press J if the face is FEMALE and K if the face is MALE, ,KJ,,,,,,,,,,,,,,,,,,,,,,,,,,,,,,,,,,,,,,,3,3.343,,,,,,,,,,,,,,0,15,15,4,1,,,,,,,,,,,,,space,1.939,,,,,,,,,,,,,,,,,,,,,,,,,,,,,,,,,,,,,,,,,,,,,,,,,,,,,,,,,,,,,,,,,
,,,,992485,001,2023-10-09_17h51.10.025,fluency,2022.2.4,Win32,59.95203837,,,,,,,,,,,,,,,,,,,,,,,4,8,img/B08_04.jpg,MF,Press J if the face is FEMALE and K if the face is MALE, ,KJ,,,,,,,,,,,,,,,,,,,,,,,,,,,,,,,,,,,,,,,,,,,,,,,,,,,,,389.255,0,16,16,81,1,109,0,0,0,0,1,98,,,,,,,,,,,,,,,,,,,,,,,,,,,,,,,,,,,,,,,,,,,,,,,,,,,,,,,,,,,,,,,,,,,,,,,,
,,,,992485,001,2023-10-09_17h51.10.025,fluency,2022.2.4,Win32,59.95203837,,,,,,,,,,,,,,,,,,,,,,,,,,,,,,,,,,,,,,,,,,,,,,,,,,,,,,,,,,,,,,,,,,,,,,,,,,,,,,,,,,,,,,,,,0,0,0,0,1,,"[""j""]",[1.6159999999999854],2,"[""j""]",[1.6159999999999854],,,,,,,,,,,,,,,,,,,,,,,,,,,,,,,,,,,,,,,,,,,,,,,,,,,,,,,,,,,,,,,,,,,
,,,,992485,001,2023-10-09_17h51.10.025,fluency,2022.2.4,Win32,59.95203837,,,,,,,,,,,,,,,,,,,,,,,4,8,img/B08_04.jpg,MF,Press J if the face is FEMALE and K if the face is MALE, ,KJ,,,,,,,,,,,,,,,,,,,,,,,,,,,,,,,,,,,,,,,4,2.409,,,,,,,,,,,,,,0,16,16,81,1,,,,,,,,,,,,,space,1.18,,,,,,,,,,,,,,,,,,,,,,,,,,,,,,,,,,,,,,,,,,,,,,,,,,,,,,,,,,,,,,,,,
,,,,992485,001,2023-10-09_17h51.10.025,fluency,2022.2.4,Win32,59.95203837,,,,,,,,,,,,,,,,,,,,,,,5,2,img/B02_05.jpg,MF,Press J if the face is FEMALE and K if the face is MALE, ,KJ,,,,,,,,,,,,,,,,,,,,,,,,,,,,,,,,,,,,,,,,,,,,,,,,,,,,,396.863,0,17,17,16,1,109,0,0,0,0,1,98,,,,,,,,,,,,,,,,,,,,,,,,,,,,,,,,,,,,,,,,,,,,,,,,,,,,,,,,,,,,,,,,,,,,,,,,
,,,,992485,001,2023-10-09_17h51.10.025,fluency,2022.2.4,Win32,59.95203837,,,,,,,,,,,,,,,,,,,,,,,,,,,,,,,,,,,,,,,,,,,,,,,,,,,,,,,,,,,,,,,,,,,,,,,,,,,,,,,,,,,,,,,,,0,0,0,0,1,,"[""j""]",[1.231999999999971],2,"[""j""]",[1.231999999999971],,,,,,,,,,,,,,,,,,,,,,,,,,,,,,,,,,,,,,,,,,,,,,,,,,,,,,,,,,,,,,,,,,,
,,,,992485,001,2023-10-09_17h51.10.025,fluency,2022.2.4,Win32,59.95203837,,,,,,,,,,,,,,,,,,,,,,,5,2,img/B02_05.jpg,MF,Press J if the face is FEMALE and K if the face is MALE, ,KJ,,,,,,,,,,,,,,,,,,,,,,,,,,,,,,,,,,,,,,,3,4.241,,,,,,,,,,,,,,0,17,17,16,1,,,,,,,,,,,,,space,3.089,,,,,,,,,,,,,,,,,,,,,,,,,,,,,,,,,,,,,,,,,,,,,,,,,,,,,,,,,,,,,,,,,
,,,,992485,001,2023-10-09_17h51.10.025,fluency,2022.2.4,Win32,59.95203837,,,,,,,,,,,,,,,,,,,,,,,3,1,img/B01_03.jpg,MF,Press J if the face is FEMALE and K if the face is MALE, ,KJ,,,,,,,,,,,,,,,,,,,,,,,,,,,,,,,,,,,,,,,,,,,,,,,,,,,,,409.224,0,18,18,3,1,109,0,0,0,0,1,98,,,,,,,,,,,,,,,,,,,,,,,,,,,,,,,,,,,,,,,,,,,,,,,,,,,,,,,,,,,,,,,,,,,,,,,,
,,,,992485,001,2023-10-09_17h51.10.025,fluency,2022.2.4,Win32,59.95203837,,,,,,,,,,,,,,,,,,,,,,,,,,,,,,,,,,,,,,,,,,,,,,,,,,,,,,,,,,,,,,,,,,,,,,,,,,,,,,,,,,,,,,,,,0,0,0,0,1,,"[""k""]",[2.8600000000000136],2,"[""k""]",[2.8600000000000136],,,,,,,,,,,,,,,,,,,,,,,,,,,,,,,,,,,,,,,,,,,,,,,,,,,,,,,,,,,,,,,,,,,
,,,,992485,001,2023-10-09_17h51.10.025,fluency,2022.2.4,Win32,59.95203837,,,,,,,,,,,,,,,,,,,,,,,3,1,img/B01_03.jpg,MF,Press J if the face is FEMALE and K if the face is MALE, ,KJ,,,,,,,,,,,,,,,,,,,,,,,,,,,,,,,,,,,,,,,3,4.484,,,,,,,,,,,,,,0,18,18,3,1,,,,,,,,,,,,,space,0.924,,,,,,,,,,,,,,,,,,,,,,,,,,,,,,,,,,,,,,,,,,,,,,,,,,,,,,,,,,,,,,,,,
,,,,992485,001,2023-10-09_17h51.10.025,fluency,2022.2.4,Win32,59.95203837,,,,,,,,,,,,,,,,,,,,,,,6,6,img/B06_06.jpg,MF,Press J if the face is FEMALE and K if the face is MALE, ,KJ,,,,,,,,,,,,,,,,,,,,,,,,,,,,,,,,,,,,,,,,,,,,,,,,,,,,,418.667,0,19,19,61,1,109,0,0,0,0,1,98,,,,,,,,,,,,,,,,,,,,,,,,,,,,,,,,,,,,,,,,,,,,,,,,,,,,,,,,,,,,,,,,,,,,,,,,
,,,,992485,001,2023-10-09_17h51.10.025,fluency,2022.2.4,Win32,59.95203837,,,,,,,,,,,,,,,,,,,,,,,,,,,,,,,,,,,,,,,,,,,,,,,,,,,,,,,space,1.989,,,,,,,,,,,,,,,,,,,,,,,,,,,,,,,,,,,,,,,,,3,,,,,0,0,0,0,1,,,,,,,,,,,,,,,,,,,,,,,,,,,,,,,,,,,,,,,,,,,,,,,,,,,,,,,,,,,,
,,,,992485,001,2023-10-09_17h51.10.025,fluency,2022.2.4,Win32,59.95203837,,,,,,,,,,,,,,,,,,,,,,,,,,,,,,,,,,,,,,,,,,,,,,,,,,,,,,,,,,,,,,,,,,,,,,,,,,,,,,,,,,,,,,,,,0,0,0,0,1,,,,,,,,,,,,,,,,,,,,,,,,,,,,,,,,,,,,,,,,,,,,,,,,,,,,,,,,,,,,,,,,,,,,,,,,,
,,,,992485,001,2023-10-09_17h51.10.025,fluency,2022.2.4,Win32,59.95203837,,,,,,,,,,,,,,,,,,,,,,,6,6,img/B06_06.jpg,MF,Press J if the face is FEMALE and K if the face is MALE, ,KJ,,,,,,,,,,,,,,,,,,,,,,,,,,,,,,,,,,,,,,,,,,,,,,,,,,,,,425.675,0,19,19,61,1,109,1,0,1,0,1,98,,,,,,,,,,,,,,,,,,,,,,,,,,,,,,,,,,,,,,,,,,,,,,,,,,,,,,,,,,,,,,,,,,,,,,,,
,,,,992485,001,2023-10-09_17h51.10.025,fluency,2022.2.4,Win32,59.95203837,,,,,,,,,,,,,,,,,,,,,,,,,,,,,,,,,,,,,,,,,,,,,,,,,,,,,,,,,,,,,,,,,,,,,,,,,,,,,,,,,,,,,,,,,1,0,1,0,1,,"[""k""]",[0.9900000000000091],3,"[""k""]",[0.9900000000000091],,,,,,,,,,,,,,,,,,,,,,,,,,,,,,,,,,,,,,,,,,,,,,,,,,,,,,,,,,,,,,,,,,,
,,,,992485,001,2023-10-09_17h51.10.025,fluency,2022.2.4,Win32,59.95203837,,,,,,,,,,,,,,,,,,,,,,,6,6,img/B06_06.jpg,MF,Press J if the face is FEMALE and K if the face is MALE, ,KJ,,,,,,,,,,,,,,,,,,,,,,,,,,,,,,,,,,,,,,,3,3.205,,,,,,,,,,,,,,0,19,19,61,1,,,,,,,,,,,,,space,0.753,,,,,,,,,,,,,,,,,,,,,,,,,,,,,,,,,,,,,,,,,,,,,,,,,,,,,,,,,,,,,,,,,
,,,,992485,001,2023-10-09_17h51.10.025,fluency,2022.2.4,Win32,59.95203837,,,,,,,,,,,,,,,,,,,,,,,10,8,img/B08_10.jpg,MF,Press J if the face is FEMALE and K if the face is MALE, ,KJ,,,,,,,,,,,,,,,,,,,,,,,,,,,,,,,,,,,,,,,,,,,,,,,,,,,,,434.667,0,20,20,87,1,109,0,0,0,0,1,98,,,,,,,,,,,,,,,,,,,,,,,,,,,,,,,,,,,,,,,,,,,,,,,,,,,,,,,,,,,,,,,,,,,,,,,,
,,,,992485,001,2023-10-09_17h51.10.025,fluency,2022.2.4,Win32,59.95203837,,,,,,,,,,,,,,,,,,,,,,,,,,,,,,,,,,,,,,,,,,,,,,,,,,,,,,,,,,,,,,,,,,,,,,,,,,,,,,,,,,,,,,,,,0,0,0,0,1,,"[""k""]",[1.475999999999999],3,"[""k""]",[1.475999999999999],,,,,,,,,,,,,,,,,,,,,,,,,,,,,,,,,,,,,,,,,,,,,,,,,,,,,,,,,,,,,,,,,,,
,,,,992485,001,2023-10-09_17h51.10.025,fluency,2022.2.4,Win32,59.95203837,,,,,,,,,,,,,,,,,,,,,,,10,8,img/B08_10.jpg,MF,Press J if the face is FEMALE and K if the face is MALE, ,KJ,,,,,,,,,,,,,,,,,,,,,,,,,,,,,,,,,,,,,,,4,7.235,,,,,,,,,,,,,,0,20,20,87,1,,,,,,,,,,,,,space,0.689,,,,,,,,,,,,,,,,,,,,,,,,,,,,,,,,,,,,,,,,,,,,,,,,,,,,,,,,,,,,,,,,,
,,,,992485,001,2023-10-09_17h51.10.025,fluency,2022.2.4,Win32,59.95203837,,,,,,,,,,,,,,,,,,,,,,,0,5,img/B05_00.jpg,MF,Press J if the face is FEMALE and K if the face is MALE, ,KJ,,,,,,,,,,,,,,,,,,,,,,,,,,,,,,,,,,,,,,,,,,,,,,,,,,,,,446.629,0,21,21,44,1,109,0,0,0,0,1,98,,,,,,,,,,,,,,,,,,,,,,,,,,,,,,,,,,,,,,,,,,,,,,,,,,,,,,,,,,,,,,,,,,,,,,,,
,,,,992485,001,2023-10-09_17h51.10.025,fluency,2022.2.4,Win32,59.95203837,,,,,,,,,,,,,,,,,,,,,,,,,,,,,,,,,,,,,,,,,,,,,,,,,,,,,,,,,,,,,,,,,,,,,,,,,,,,,,,,,,,,,,,,,0,0,0,0,1,,"[""k""]",[1.4239999999999782],3,"[""k""]",[1.4239999999999782],,,,,,,,,,,,,,,,,,,,,,,,,,,,,,,,,,,,,,,,,,,,,,,,,,,,,,,,,,,,,,,,,,,
,,,,992485,001,2023-10-09_17h51.10.025,fluency,2022.2.4,Win32,59.95203837,,,,,,,,,,,,,,,,,,,,,,,0,5,img/B05_00.jpg,MF,Press J if the face is FEMALE and K if the face is MALE, ,KJ,,,,,,,,,,,,,,,,,,,,,,,,,,,,,,,,,,,,,,,4,1.906,,,,,,,,,,,,,,0,21,21,44,1,,,,,,,,,,,,,space,0.65,,,,,,,,,,,,,,,,,,,,,,,,,,,,,,,,,,,,,,,,,,,,,,,,,,,,,,,,,,,,,,,,,
,,,,992485,001,2023-10-09_17h51.10.025,fluency,2022.2.4,Win32,59.95203837,,,,,,,,,,,,,,,,,,,,,,,4,4,img/B04_04.jpg,MF,Press J if the face is FEMALE and K if the face is MALE, ,KJ,,,,,,,,,,,,,,,,,,,,,,,,,,,,,,,,,,,,,,,,,,,,,,,,,,,,,453.219,0,22,22,37,1,109,0,0,0,0,1,98,,,,,,,,,,,,,,,,,,,,,,,,,,,,,,,,,,,,,,,,,,,,,,,,,,,,,,,,,,,,,,,,,,,,,,,,
,,,,992485,001,2023-10-09_17h51.10.025,fluency,2022.2.4,Win32,59.95203837,,,,,,,,,,,,,,,,,,,,,,,,,,,,,,,,,,,,,,,,,,,,,,,,,,,,,,,,,,,,,,,,,,,,,,,,,,,,,,,,,,,,,,,,,0,0,0,0,1,,"[""k""]",[1.7700000000000387],3,"[""k""]",[1.7700000000000387],,,,,,,,,,,,,,,,,,,,,,,,,,,,,,,,,,,,,,,,,,,,,,,,,,,,,,,,,,,,,,,,,,,
,,,,992485,001,2023-10-09_17h51.10.025,fluency,2022.2.4,Win32,59.95203837,,,,,,,,,,,,,,,,,,,,,,,4,4,img/B04_04.jpg,MF,Press J if the face is FEMALE and K if the face is MALE, ,KJ,,,,,,,,,,,,,,,,,,,,,,,,,,,,,,,,,,,,,,,4,4.069,,,,,,,,,,,,,,0,22,22,37,1,,,,,,,,,,,,,space,0.97,,,,,,,,,,,,,,,,,,,,,,,,,,,,,,,,,,,,,,,,,,,,,,,,,,,,,,,,,,,,,,,,,
,,,,992485,001,2023-10-09_17h51.10.025,fluency,2022.2.4,Win32,59.95203837,,,,,,,,,,,,,,,,,,,,,,,10,6,img/B06_10.jpg,MF,Press J if the face is FEMALE and K if the face is MALE, ,KJ,,,,,,,,,,,,,,,,,,,,,,,,,,,,,,,,,,,,,,,,,,,,,,,,,,,,,463.295,0,23,23,65,1,109,0,0,0,0,1,98,,,,,,,,,,,,,,,,,,,,,,,,,,,,,,,,,,,,,,,,,,,,,,,,,,,,,,,,,,,,,,,,,,,,,,,,
,,,,992485,001,2023-10-09_17h51.10.025,fluency,2022.2.4,Win32,59.95203837,,,,,,,,,,,,,,,,,,,,,,,,,,,,,,,,,,,,,,,,,,,,,,,,,,,,,,,,,,,,,,,,,,,,,,,,,,,,,,,,,,,,,,,,,0,0,0,0,1,,"[""j""]",[0.9989999999999668],3,"[""j""]",[0.9989999999999668],,,,,,,,,,,,,,,,,,,,,,,,,,,,,,,,,,,,,,,,,,,,,,,,,,,,,,,,,,,,,,,,,,,
,,,,992485,001,2023-10-09_17h51.10.025,fluency,2022.2.4,Win32,59.95203837,,,,,,,,,,,,,,,,,,,,,,,10,6,img/B06_10.jpg,MF,Press J if the face is FEMALE and K if the face is MALE, ,KJ,,,,,,,,,,,,,,,,,,,,,,,,,,,,,,,,,,,,,,,4,2.624,,,,,,,,,,,,,,0,23,23,65,1,,,,,,,,,,,,,space,0.528,,,,,,,,,,,,,,,,,,,,,,,,,,,,,,,,,,,,,,,,,,,,,,,,,,,,,,,,,,,,,,,,,
,,,,992485,001,2023-10-09_17h51.10.025,fluency,2022.2.4,Win32,59.95203837,,,,,,,,,,,,,,,,,,,,,,,3,8,img/B08_03.jpg,MF,Press J if the face is FEMALE and K if the face is MALE, ,KJ,,,,,,,,,,,,,,,,,,,,,,,,,,,,,,,,,,,,,,,,,,,,,,,,,,,,,470.469,0,24,24,80,1,109,0,0,0,0,1,98,,,,,,,,,,,,,,,,,,,,,,,,,,,,,,,,,,,,,,,,,,,,,,,,,,,,,,,,,,,,,,,,,,,,,,,,
,,,,992485,001,2023-10-09_17h51.10.025,fluency,2022.2.4,Win32,59.95203837,,,,,,,,,,,,,,,,,,,,,,,,,,,,,,,,,,,,,,,,,,,,,,,,,,,,,,,,,,,,,,,,,,,,,,,,,,,,,,,,,,,,,,,,,0,0,0,0,1,,"[""j""]",[1.0480000000000018],3,"[""j""]",[1.0480000000000018],,,,,,,,,,,,,,,,,,,,,,,,,,,,,,,,,,,,,,,,,,,,,,,,,,,,,,,,,,,,,,,,,,,
,,,,992485,001,2023-10-09_17h51.10.025,fluency,2022.2.4,Win32,59.95203837,,,,,,,,,,,,,,,,,,,,,,,3,8,img/B08_03.jpg,MF,Press J if the face is FEMALE and K if the face is MALE, ,KJ,,,,,,,,,,,,,,,,,,,,,,,,,,,,,,,,,,,,,,,4,2.409,,,,,,,,,,,,,,0,24,24,80,1,,,,,,,,,,,,,space,1.157,,,,,,,,,,,,,,,,,,,,,,,,,,,,,,,,,,,,,,,,,,,,,,,,,,,,,,,,,,,,,,,,,
,,,,992485,001,2023-10-09_17h51.10.025,fluency,2022.2.4,Win32,59.95203837,,,,,,,,,,,,,,,,,,,,,,,7,10,img/B10_07.jpg,MF,Press J if the face is FEMALE and K if the face is MALE, ,KJ,,,,,,,,,,,,,,,,,,,,,,,,,,,,,,,,,,,,,,,,,,,,,,,,,,,,,479.061,0,25,25,106,1,109,0,0,0,0,1,98,,,,,,,,,,,,,,,,,,,,,,,,,,,,,,,,,,,,,,,,,,,,,,,,,,,,,,,,,,,,,,,,,,,,,,,,
,,,,992485,001,2023-10-09_17h51.10.025,fluency,2022.2.4,Win32,59.95203837,,,,,,,,,,,,,,,,,,,,,,,,,,,,,,,,,,,,,,,,,,,,,,,,,,,,,,,,,,,,,,,,,,,,,,,,,,,,,,,,,,,,,,,,,0,0,0,0,1,,"[""j""]",[2.950999999999965],3,"[""j""]",[2.950999999999965],,,,,,,,,,,,,,,,,,,,,,,,,,,,,,,,,,,,,,,,,,,,,,,,,,,,,,,,,,,,,,,,,,,
,,,,992485,001,2023-10-09_17h51.10.025,fluency,2022.2.4,Win32,59.95203837,,,,,,,,,,,,,,,,,,,,,,,7,10,img/B10_07.jpg,MF,Press J if the face is FEMALE and K if the face is MALE, ,KJ,,,,,,,,,,,,,,,,,,,,,,,,,,,,,,,,,,,,,,,4,6.314,,,,,,,,,,,,,,0,25,25,106,1,,,,,,,,,,,,,space,1.485,,,,,,,,,,,,,,,,,,,,,,,,,,,,,,,,,,,,,,,,,,,,,,,,,,,,,,,,,,,,,,,,,
,,,,992485,001,2023-10-09_17h51.10.025,fluency,2022.2.4,Win32,59.95203837,,,,,,,,,,,,,,,,,,,,,,,5,1,img/B01_05.jpg,MF,Press J if the face is FEMALE and K if the face is MALE, ,KJ,,,,,,,,,,,,,,,,,,,,,,,,,,,,,,,,,,,,,,,,,,,,,,,,,,,,,491.89,0,26,26,5,1,109,0,0,0,0,1,98,,,,,,,,,,,,,,,,,,,,,,,,,,,,,,,,,,,,,,,,,,,,,,,,,,,,,,,,,,,,,,,,,,,,,,,,
,,,,992485,001,2023-10-09_17h51.10.025,fluency,2022.2.4,Win32,59.95203837,,,,,,,,,,,,,,,,,,,,,,,,,,,,,,,,,,,,,,,,,,,,,,,,,,,,,,,,,,,,,,,,,,,,,,,,,,,,,,,,,,,,,,,,,0,0,0,0,1,,,,3,,,,,,,,,,,,,,,,,,,,,,,,,,,,,,,,,,,,,,,,,,,,,,,,,,,,,,,,,,,,,,,,,,,,,
,,,,992485,001,2023-10-09_17h51.10.025,fluency,2022.2.4,Win32,59.95203837,,,,,,,,,,,,,,,,,,,,,,,5,1,img/B01_05.jpg,MF,Press J if the face is FEMALE and K if the face is MALE, ,KJ,,,,,,,,,,,,,,,,,,,,,,,,,,,,,,,,,,,,,,,3,4.071,,,,,,,,,,,,,,0,26,26,5,1,,,,,,,,,,,,,space,0.868,,,,,,,,,,,,,,,,,,,,,,,,,,,,,,,,,,,,,,,,,,,,,,,,,,,,,,,,,,,,,,,,,
,,,,992485,001,2023-10-09_17h51.10.025,fluency,2022.2.4,Win32,59.95203837,,,,,,,,,,,,,,,,,,,,,,,10,5,img/B05_10.jpg,MF,Press J if the face is FEMALE and K if the face is MALE, ,KJ,,,,,,,,,,,,,,,,,,,,,,,,,,,,,,,,,,,,,,,,,,,,,,,,,,,,,500.866,0,27,27,54,1,109,0,0,0,0,1,98,,,,,,,,,,,,,,,,,,,,,,,,,,,,,,,,,,,,,,,,,,,,,,,,,,,,,,,,,,,,,,,,,,,,,,,,
,,,,992485,001,2023-10-09_17h51.10.025,fluency,2022.2.4,Win32,59.95203837,,,,,,,,,,,,,,,,,,,,,,,,,,,,,,,,,,,,,,,,,,,,,,,,,,,,,,,,,,,,,,,,,,,,,,,,,,,,,,,,,,,,,,,,,0,0,0,0,1,,"[""j""]",[1.3389999999999986],3,"[""k"",""j""]","[-5.989999999999952,1.3389999999999986]",,,,,,,,,,,,,,,,,,,,,,,,,,,,,,,,,,,,,,,,,,,,,,,,,,,,,,,,,,,,,,,,,,,
,,,,992485,001,2023-10-09_17h51.10.025,fluency,2022.2.4,Win32,59.95203837,,,,,,,,,,,,,,,,,,,,,,,10,5,img/B05_10.jpg,MF,Press J if the face is FEMALE and K if the face is MALE, ,KJ,,,,,,,,,,,,,,,,,,,,,,,,,,,,,,,,,,,,,,,6,3.051,,,,,,,,,,,,,,0,27,27,54,1,,,,,,,,,,,,,space,1.02,,,,,,,,,,,,,,,,,,,,,,,,,,,,,,,,,,,,,,,,,,,,,,,,,,,,,,,,,,,,,,,,,
,,,,992485,001,2023-10-09_17h51.10.025,fluency,2022.2.4,Win32,59.95203837,,,,,,,,,,,,,,,,,,,,,,,0,10,img/B10_00.jpg,MF,Press J if the face is FEMALE and K if the face is MALE, ,KJ,,,,,,,,,,,,,,,,,,,,,,,,,,,,,,,,,,,,,,,,,,,,,,,,,,,,,509.975,0,28,28,99,1,109,0,0,0,0,1,98,,,,,,,,,,,,,,,,,,,,,,,,,,,,,,,,,,,,,,,,,,,,,,,,,,,,,,,,,,,,,,,,,,,,,,,,
,,,,992485,001,2023-10-09_17h51.10.025,fluency,2022.2.4,Win32,59.95203837,,,,,,,,,,,,,,,,,,,,,,,,,,,,,,,,,,,,,,,,,,,,,,,,,,,,,,,,,,,,,,,,,,,,,,,,,,,,,,,,,,,,,,,,,0,0,0,0,1,,"[""k""]",[1.8780000000000427],3,"[""k""]",[1.8769999999999527],,,,,,,,,,,,,,,,,,,,,,,,,,,,,,,,,,,,,,,,,,,,,,,,,,,,,,,,,,,,,,,,,,,
,,,,992485,001,2023-10-09_17h51.10.025,fluency,2022.2.4,Win32,59.95203837,,,,,,,,,,,,,,,,,,,,,,,0,10,img/B10_00.jpg,MF,Press J if the face is FEMALE and K if the face is MALE, ,KJ,,,,,,,,,,,,,,,,,,,,,,,,,,,,,,,,,,,,,,,5,2.767,,,,,,,,,,,,,,0,28,28,99,1,,,,,,,,,,,,,space,0.908,,,,,,,,,,,,,,,,,,,,,,,,,,,,,,,,,,,,,,,,,,,,,,,,,,,,,,,,,,,,,,,,,
,,,,992485,001,2023-10-09_17h51.10.025,fluency,2022.2.4,Win32,59.95203837,,,,,,,,,,,,,,,,,,,,,,,5,10,img/B10_05.jpg,MF,Press J if the face is FEMALE and K if the face is MALE, ,KJ,,,,,,,,,,,,,,,,,,,,,,,,,,,,,,,,,,,,,,,,,,,,,,,,,,,,,518.684,0,29,29,104,1,109,0,0,0,0,1,98,,,,,,,,,,,,,,,,,,,,,,,,,,,,,,,,,,,,,,,,,,,,,,,,,,,,,,,,,,,,,,,,,,,,,,,,
,,,,992485,001,2023-10-09_17h51.10.025,fluency,2022.2.4,Win32,59.95203837,,,,,,,,,,,,,,,,,,,,,,,,,,,,,,,,,,,,,,,,,,,,,,,,,,,,,,,,,,,,,,,,,,,,,,,,,,,,,,,,,,,,,,,,,0,0,0,0,1,,"[""k""]",[2.8840000000000146],3,"[""k""]",[2.8840000000000146],,,,,,,,,,,,,,,,,,,,,,,,,,,,,,,,,,,,,,,,,,,,,,,,,,,,,,,,,,,,,,,,,,,
,,,,992485,001,2023-10-09_17h51.10.025,fluency,2022.2.4,Win32,59.95203837,,,,,,,,,,,,,,,,,,,,,,,5,10,img/B10_05.jpg,MF,Press J if the face is FEMALE and K if the face is MALE, ,KJ,,,,,,,,,,,,,,,,,,,,,,,,,,,,,,,,,,,,,,,4,2.414,,,,,,,,,,,,,,0,29,29,104,1,,,,,,,,,,,,,space,1.398,,,,,,,,,,,,,,,,,,,,,,,,,,,,,,,,,,,,,,,,,,,,,,,,,,,,,,,,,,,,,,,,,
,,,,992485,001,2023-10-09_17h51.10.025,fluency,2022.2.4,Win32,59.95203837,,,,,,,,,,,,,,,,,,,,,,,2,3,img/B03_02.jpg,MF,Press J if the face is FEMALE and K if the face is MALE, ,KJ,,,,,,,,,,,,,,,,,,,,,,,,,,,,,,,,,,,,,,,,,,,,,,,,,,,,,527.526,0,30,30,24,1,109,0,0,0,0,1,98,,,,,,,,,,,,,,,,,,,,,,,,,,,,,,,,,,,,,,,,,,,,,,,,,,,,,,,,,,,,,,,,,,,,,,,,
,,,,992485,001,2023-10-09_17h51.10.025,fluency,2022.2.4,Win32,59.95203837,,,,,,,,,,,,,,,,,,,,,,,,,,,,,,,,,,,,,,,,,,,,,,,,,,,,,,,,,,,,,,,,,,,,,,,,,,,,,,,,,,,,,,,,,0,0,0,0,1,,"[""k""]",[1.2859999999999445],3,"[""k""]",[1.2859999999999445],,,,,,,,,,,,,,,,,,,,,,,,,,,,,,,,,,,,,,,,,,,,,,,,,,,,,,,,,,,,,,,,,,,
,,,,992485,001,2023-10-09_17h51.10.025,fluency,2022.2.4,Win32,59.95203837,,,,,,,,,,,,,,,,,,,,,,,2,3,img/B03_02.jpg,MF,Press J if the face is FEMALE and K if the face is MALE, ,KJ,,,,,,,,,,,,,,,,,,,,,,,,,,,,,,,,,,,,,,,5,1.336,,,,,,,,,,,,,,0,30,30,24,1,,,,,,,,,,,,,space,0.671,,,,,,,,,,,,,,,,,,,,,,,,,,,,,,,,,,,,,,,,,,,,,,,,,,,,,,,,,,,,,,,,,
,,,,992485,001,2023-10-09_17h51.10.025,fluency,2022.2.4,Win32,59.95203837,,,,,,,,,,,,,,,,,,,,,,,7,4,img/B04_07.jpg,MF,Press J if the face is FEMALE and K if the face is MALE, ,KJ,,,,,,,,,,,,,,,,,,,,,,,,,,,,,,,,,,,,,,,,,,,,,,,,,,,,,534.567,0,31,31,40,1,109,0,0,0,0,1,98,,,,,,,,,,,,,,,,,,,,,,,,,,,,,,,,,,,,,,,,,,,,,,,,,,,,,,,,,,,,,,,,,,,,,,,,
,,,,992485,001,2023-10-09_17h51.10.025,fluency,2022.2.4,Win32,59.95203837,,,,,,,,,,,,,,,,,,,,,,,,,,,,,,,,,,,,,,,,,,,,,,,,,,,,,,,,,,,,,,,,,,,,,,,,,,,,,,,,,,,,,,,,,0,0,0,0,1,,"[""j""]",[2.7110000000000127],3,"[""j""]",[2.7110000000000127],,,,,,,,,,,,,,,,,,,,,,,,,,,,,,,,,,,,,,,,,,,,,,,,,,,,,,,,,,,,,,,,,,,
,,,,992485,001,2023-10-09_17h51.10.025,fluency,2022.2.4,Win32,59.95203837,,,,,,,,,,,,,,,,,,,,,,,7,4,img/B04_07.jpg,MF,Press J if the face is FEMALE and K if the face is MALE, ,KJ,,,,,,,,,,,,,,,,,,,,,,,,,,,,,,,,,,,,,,,2,2.015,,,,,,,,,,,,,,0,31,31,40,1,,,,,,,,,,,,,space,0.546,,,,,,,,,,,,,,,,,,,,,,,,,,,,,,,,,,,,,,,,,,,,,,,,,,,,,,,,,,,,,,,,,
,,,,992485,001,2023-10-09_17h51.10.025,fluency,2022.2.4,Win32,59.95203837,,,,,,,,,,,,,,,,,,,,,,,2,4,img/B04_02.jpg,MF,Press J if the face is FEMALE and K if the face is MALE, ,KJ,,,,,,,,,,,,,,,,,,,,,,,,,,,,,,,,,,,,,,,,,,,,,,,,,,,,,542.158,0,32,32,35,1,109,0,0,0,0,1,98,,,,,,,,,,,,,,,,,,,,,,,,,,,,,,,,,,,,,,,,,,,,,,,,,,,,,,,,,,,,,,,,,,,,,,,,
,,,,992485,001,2023-10-09_17h51.10.025,fluency,2022.2.4,Win32,59.95203837,,,,,,,,,,,,,,,,,,,,,,,,,,,,,,,,,,,,,,,,,,,,,,,,,,,,,,,,,,,,,,,,,,,,,,,,,,,,,,,,,,,,,,,,,0,0,0,0,1,,"[""k""]",[1.4230000000000018],3,"[""k""]",[1.4220000000000255],,,,,,,,,,,,,,,,,,,,,,,,,,,,,,,,,,,,,,,,,,,,,,,,,,,,,,,,,,,,,,,,,,,
,,,,992485,001,2023-10-09_17h51.10.025,fluency,2022.2.4,Win32,59.95203837,,,,,,,,,,,,,,,,,,,,,,,2,4,img/B04_02.jpg,MF,Press J if the face is FEMALE and K if the face is MALE, ,KJ,,,,,,,,,,,,,,,,,,,,,,,,,,,,,,,,,,,,,,,6,2.274,,,,,,,,,,,,,,0,32,32,35,1,,,,,,,,,,,,,space,0.705,,,,,,,,,,,,,,,,,,,,,,,,,,,,,,,,,,,,,,,,,,,,,,,,,,,,,,,,,,,,,,,,,
,,,,992485,001,2023-10-09_17h51.10.025,fluency,2022.2.4,Win32,59.95203837,,,,,,,,,,,,,,,,,,,,,,,8,4,img/B04_08.jpg,MF,Press J if the face is FEMALE and K if the face is MALE, ,KJ,,,,,,,,,,,,,,,,,,,,,,,,,,,,,,,,,,,,,,,,,,,,,,,,,,,,,549.165,0,33,33,41,1,109,0,0,0,0,1,98,,,,,,,,,,,,,,,,,,,,,,,,,,,,,,,,,,,,,,,,,,,,,,,,,,,,,,,,,,,,,,,,,,,,,,,,
,,,,992485,001,2023-10-09_17h51.10.025,fluency,2022.2.4,Win32,59.95203837,,,,,,,,,,,,,,,,,,,,,,,,,,,,,,,,,,,,,,,,,,,,,,,,,,,,,,,,,,,,,,,,,,,,,,,,,,,,,,,,,,,,,,,,,0,0,0,0,1,,"[""j""]",[1.4239999999999782],3,"[""j""]",[1.4239999999999782],,,,,,,,,,,,,,,,,,,,,,,,,,,,,,,,,,,,,,,,,,,,,,,,,,,,,,,,,,,,,,,,,,,
,,,,992485,001,2023-10-09_17h51.10.025,fluency,2022.2.4,Win32,59.95203837,,,,,,,,,,,,,,,,,,,,,,,8,4,img/B04_08.jpg,MF,Press J if the face is FEMALE and K if the face is MALE, ,KJ,,,,,,,,,,,,,,,,,,,,,,,,,,,,,,,,,,,,,,,2,1.118,,,,,,,,,,,,,,0,33,33,41,1,,,,,,,,,,,,,space,0.773,,,,,,,,,,,,,,,,,,,,,,,,,,,,,,,,,,,,,,,,,,,,,,,,,,,,,,,,,,,,,,,,,
,,,,992485,001,2023-10-09_17h51.10.025,fluency,2022.2.4,Win32,59.95203837,,,,,,,,,,,,,,,,,,,,,,,1,6,img/B06_01.jpg,MF,Press J if the face is FEMALE and K if the face is MALE, ,KJ,,,,,,,,,,,,,,,,,,,,,,,,,,,,,,,,,,,,,,,,,,,,,,,,,,,,,556.089,0,34,34,56,1,109,0,0,0,0,1,98,,,,,,,,,,,,,,,,,,,,,,,,,,,,,,,,,,,,,,,,,,,,,,,,,,,,,,,,,,,,,,,,,,,,,,,,
,,,,992485,001,2023-10-09_17h51.10.025,fluency,2022.2.4,Win32,59.95203837,,,,,,,,,,,,,,,,,,,,,,,,,,,,,,,,,,,,,,,,,,,,,,,,,,,,,,,,,,,,,,,,,,,,,,,,,,,,,,,,,,,,,,,,,0,0,0,0,1,,"[""k""]",[2.383000000000038],3,"[""k""]",[2.383000000000038],,,,,,,,,,,,,,,,,,,,,,,,,,,,,,,,,,,,,,,,,,,,,,,,,,,,,,,,,,,,,,,,,,,
,,,,992485,001,2023-10-09_17h51.10.025,fluency,2022.2.4,Win32,59.95203837,,,,,,,,,,,,,,,,,,,,,,,1,6,img/B06_01.jpg,MF,Press J if the face is FEMALE and K if the face is MALE, ,KJ,,,,,,,,,,,,,,,,,,,,,,,,,,,,,,,,,,,,,,,4,1.729,,,,,,,,,,,,,,0,34,34,56,1,,,,,,,,,,,,,space,1.436,,,,,,,,,,,,,,,,,,,,,,,,,,,,,,,,,,,,,,,,,,,,,,,,,,,,,,,,,,,,,,,,,
,,,,992485,001,2023-10-09_17h51.10.025,fluency,2022.2.4,Win32,59.95203837,,,,,,,,,,,,,,,,,,,,,,,9,1,img/B01_09.jpg,MF,Press J if the face is FEMALE and K if the face is MALE, ,KJ,,,,,,,,,,,,,,,,,,,,,,,,,,,,,,,,,,,,,,,,,,,,,,,,,,,,,564.296,0,35,35,9,1,109,0,0,0,0,1,98,,,,,,,,,,,,,,,,,,,,,,,,,,,,,,,,,,,,,,,,,,,,,,,,,,,,,,,,,,,,,,,,,,,,,,,,
,,,,992485,001,2023-10-09_17h51.10.025,fluency,2022.2.4,Win32,59.95203837,,,,,,,,,,,,,,,,,,,,,,,,,,,,,,,,,,,,,,,,,,,,,,,,,,,,,,,,,,,,,,,,,,,,,,,,,,,,,,,,,,,,,,,,,0,0,0,0,1,,"[""j""]",[2.5819999999999936],3,"[""j""]",[2.5819999999999936],,,,,,,,,,,,,,,,,,,,,,,,,,,,,,,,,,,,,,,,,,,,,,,,,,,,,,,,,,,,,,,,,,,
,,,,992485,001,2023-10-09_17h51.10.025,fluency,2022.2.4,Win32,59.95203837,,,,,,,,,,,,,,,,,,,,,,,9,1,img/B01_09.jpg,MF,Press J if the face is FEMALE and K if the face is MALE, ,KJ,,,,,,,,,,,,,,,,,,,,,,,,,,,,,,,,,,,,,,,4,2.287,,,,,,,,,,,,,,0,35,35,9,1,,,,,,,,,,,,,space,0.63,,,,,,,,,,,,,,,,,,,,,,,,,,,,,,,,,,,,,,,,,,,,,,,,,,,,,,,,,,,,,,,,,
,,,,992485,001,2023-10-09_17h51.10.025,fluency,2022.2.4,Win32,59.95203837,,,,,,,,,,,,,,,,,,,,,,,6,10,img/B10_06.jpg,MF,Press J if the face is FEMALE and K if the face is MALE, ,KJ,,,,,,,,,,,,,,,,,,,,,,,,,,,,,,,,,,,,,,,,,,,,,,,,,,,,,571.237,0,36,36,105,1,109,0,0,0,0,1,98,,,,,,,,,,,,,,,,,,,,,,,,,,,,,,,,,,,,,,,,,,,,,,,,,,,,,,,,,,,,,,,,,,,,,,,,
,,,,992485,001,2023-10-09_17h51.10.025,fluency,2022.2.4,Win32,59.95203837,,,,,,,,,,,,,,,,,,,,,,,,,,,,,,,,,,,,,,,,,,,,,,,,,,,,,,,,,,,,,,,,,,,,,,,,,,,,,,,,,,,,,,,,,0,0,0,0,1,,"[""k""]",[2.008000000000038],3,"[""k""]",[2.008000000000038],,,,,,,,,,,,,,,,,,,,,,,,,,,,,,,,,,,,,,,,,,,,,,,,,,,,,,,,,,,,,,,,,,,
,,,,992485,001,2023-10-09_17h51.10.025,fluency,2022.2.4,Win32,59.95203837,,,,,,,,,,,,,,,,,,,,,,,6,10,img/B10_06.jpg,MF,Press J if the face is FEMALE and K if the face is MALE, ,KJ,,,,,,,,,,,,,,,,,,,,,,,,,,,,,,,,,,,,,,,3,1.429,,,,,,,,,,,,,,0,36,36,105,1,,,,,,,,,,,,,space,0.596,,,,,,,,,,,,,,,,,,,,,,,,,,,,,,,,,,,,,,,,,,,,,,,,,,,,,,,,,,,,,,,,,
,,,,992485,001,2023-10-09_17h51.10.025,fluency,2022.2.4,Win32,59.95203837,,,,,,,,,,,,,,,,,,,,,,,2,2,img/B02_02.jpg,MF,Press J if the face is FEMALE and K if the face is MALE, ,KJ,,,,,,,,,,,,,,,,,,,,,,,,,,,,,,,,,,,,,,,,,,,,,,,,,,,,,578.293,0,37,37,13,1,109,0,0,0,0,1,98,,,,,,,,,,,,,,,,,,,,,,,,,,,,,,,,,,,,,,,,,,,,,,,,,,,,,,,,,,,,,,,,,,,,,,,,
,,,,992485,001,2023-10-09_17h51.10.025,fluency,2022.2.4,Win32,59.95203837,,,,,,,,,,,,,,,,,,,,,,,,,,,,,,,,,,,,,,,,,,,,,,,,,,,,,,,,,,,,,,,,,,,,,,,,,,,,,,,,,,,,,,,,,0,0,0,0,1,,"[""k""]",[2.0389999999999873],3,"[""k""]",[2.0389999999999873],,,,,,,,,,,,,,,,,,,,,,,,,,,,,,,,,,,,,,,,,,,,,,,,,,,,,,,,,,,,,,,,,,,
,,,,992485,001,2023-10-09_17h51.10.025,fluency,2022.2.4,Win32,59.95203837,,,,,,,,,,,,,,,,,,,,,,,2,2,img/B02_02.jpg,MF,Press J if the face is FEMALE and K if the face is MALE, ,KJ,,,,,,,,,,,,,,,,,,,,,,,,,,,,,,,,,,,,,,,3,2.92,,,,,,,,,,,,,,0,37,37,13,1,,,,,,,,,,,,,space,0.471,,,,,,,,,,,,,,,,,,,,,,,,,,,,,,,,,,,,,,,,,,,,,,,,,,,,,,,,,,,,,,,,,
,,,,992485,001,2023-10-09_17h51.10.025,fluency,2022.2.4,Win32,59.95203837,,,,,,,,,,,,,,,,,,,,,,,4,9,img/B09_04.jpg,MF,Press J if the face is FEMALE and K if the face is MALE, ,KJ,,,,,,,,,,,,,,,,,,,,,,,,,,,,,,,,,,,,,,,,,,,,,,,,,,,,,586.719,0,38,38,92,1,109,0,0,0,0,1,98,,,,,,,,,,,,,,,,,,,,,,,,,,,,,,,,,,,,,,,,,,,,,,,,,,,,,,,,,,,,,,,,,,,,,,,,
,,,,992485,001,2023-10-09_17h51.10.025,fluency,2022.2.4,Win32,59.95203837,,,,,,,,,,,,,,,,,,,,,,,,,,,,,,,,,,,,,,,,,,,,,,,,,,,,,,,,,,,,,,,,,,,,,,,,,,,,,,,,,,,,,,,,,0,0,0,0,1,,"[""k""]",[2.620999999999981],3,"[""k""]",[2.620999999999981],,,,,,,,,,,,,,,,,,,,,,,,,,,,,,,,,,,,,,,,,,,,,,,,,,,,,,,,,,,,,,,,,,,
,,,,992485,001,2023-10-09_17h51.10.025,fluency,2022.2.4,Win32,59.95203837,,,,,,,,,,,,,,,,,,,,,,,4,9,img/B09_04.jpg,MF,Press J if the face is FEMALE and K if the face is MALE, ,KJ,,,,,,,,,,,,,,,,,,,,,,,,,,,,,,,,,,,,,,,3,3.904,,,,,,,,,,,,,,0,38,38,92,1,,,,,,,,,,,,,space,1.39,,,,,,,,,,,,,,,,,,,,,,,,,,,,,,,,,,,,,,,,,,,,,,,,,,,,,,,,,,,,,,,,,
,,,,992485,001,2023-10-09_17h51.10.025,fluency,2022.2.4,Win32,59.95203837,,,,,,,,,,,,,,,,,,,,,,,9,2,img/B02_09.jpg,MF,Press J if the face is FEMALE and K if the face is MALE, ,KJ,,,,,,,,,,,,,,,,,,,,,,,,,,,,,,,,,,,,,,,,,,,,,,,,,,,,,596.045,0,39,39,20,1,109,0,0,0,0,1,98,,,,,,,,,,,,,,,,,,,,,,,,,,,,,,,,,,,,,,,,,,,,,,,,,,,,,,,,,,,,,,,,,,,,,,,,
,,,,992485,001,2023-10-09_17h51.10.025,fluency,2022.2.4,Win32,59.95203837,,,,,,,,,,,,,,,,,,,,,,,,,,,,,,,,,,,,,,,,,,,,,,,,,,,,,,,,,,,,,,,,,,,,,,,,,,,,,,,,,,,,,,,,,0,0,0,0,1,,"[""j""]",[1.0710000000000264],3,"[""j""]",[1.0710000000000264],,,,,,,,,,,,,,,,,,,,,,,,,,,,,,,,,,,,,,,,,,,,,,,,,,,,,,,,,,,,,,,,,,,
,,,,992485,001,2023-10-09_17h51.10.025,fluency,2022.2.4,Win32,59.95203837,,,,,,,,,,,,,,,,,,,,,,,9,2,img/B02_09.jpg,MF,Press J if the face is FEMALE and K if the face is MALE, ,KJ,,,,,,,,,,,,,,,,,,,,,,,,,,,,,,,,,,,,,,,3,5.754,,,,,,,,,,,,,,0,39,39,20,1,,,,,,,,,,,,,space,1.412,,,,,,,,,,,,,,,,,,,,,,,,,,,,,,,,,,,,,,,,,,,,,,,,,,,,,,,,,,,,,,,,,
,,,,992485,001,2023-10-09_17h51.10.025,fluency,2022.2.4,Win32,59.95203837,,,,,,,,,,,,,,,,,,,,,,,6,8,img/B08_06.jpg,MF,Press J if the face is FEMALE and K if the face is MALE, ,KJ,,,,,,,,,,,,,,,,,,,,,,,,,,,,,,,,,,,,,,,,,,,,,,,,,,,,,608.24,0,40,40,83,1,109,0,0,0,0,1,98,,,,,,,,,,,,,,,,,,,,,,,,,,,,,,,,,,,,,,,,,,,,,,,,,,,,,,,,,,,,,,,,,,,,,,,,
,,,,992485,001,2023-10-09_17h51.10.025,fluency,2022.2.4,Win32,59.95203837,,,,,,,,,,,,,,,,,,,,,,,,,,,,,,,,,,,,,,,,,,,,,,,,,,,,,,,,,,,,,,,,,,,,,,,,,,,,,,,,,,,,,,,,,0,0,0,0,1,,"[""k""]",[1.6509999999999536],3,"[""k""]",[1.6509999999999536],,,,,,,,,,,,,,,,,,,,,,,,,,,,,,,,,,,,,,,,,,,,,,,,,,,,,,,,,,,,,,,,,,,
,,,,992485,001,2023-10-09_17h51.10.025,fluency,2022.2.4,Win32,59.95203837,,,,,,,,,,,,,,,,,,,,,,,6,8,img/B08_06.jpg,MF,Press J if the face is FEMALE and K if the face is MALE, ,KJ,,,,,,,,,,,,,,,,,,,,,,,,,,,,,,,,,,,,,,,3,1.841,,,,,,,,,,,,,,0,40,40,83,1,,,,,,,,,,,,,space,0.627,,,,,,,,,,,,,,,,,,,,,,,,,,,,,,,,,,,,,,,,,,,,,,,,,,,,,,,,,,,,,,,,,
,,,,992485,001,2023-10-09_17h51.10.025,fluency,2022.2.4,Win32,59.95203837,,,,,,,,,,,,,,,,,,,,,,,7,8,img/B08_07.jpg,MF,Press J if the face is FEMALE and K if the face is MALE, ,KJ,,,,,,,,,,,,,,,,,,,,,,,,,,,,,,,,,,,,,,,,,,,,,,,,,,,,,615.731,0,41,41,84,1,109,0,0,0,0,1,98,,,,,,,,,,,,,,,,,,,,,,,,,,,,,,,,,,,,,,,,,,,,,,,,,,,,,,,,,,,,,,,,,,,,,,,,
,,,,992485,001,2023-10-09_17h51.10.025,fluency,2022.2.4,Win32,59.95203837,,,,,,,,,,,,,,,,,,,,,,,,,,,,,,,,,,,,,,,,,,,,,,,,,,,,,,,,,,,,,,,,,,,,,,,,,,,,,,,,,,,,,,,,,0,0,0,0,1,,"[""k""]",[1.1369999999999436],3,"[""k""]",[1.1369999999999436],,,,,,,,,,,,,,,,,,,,,,,,,,,,,,,,,,,,,,,,,,,,,,,,,,,,,,,,,,,,,,,,,,,
,,,,992485,001,2023-10-09_17h51.10.025,fluency,2022.2.4,Win32,59.95203837,,,,,,,,,,,,,,,,,,,,,,,7,8,img/B08_07.jpg,MF,Press J if the face is FEMALE and K if the face is MALE, ,KJ,,,,,,,,,,,,,,,,,,,,,,,,,,,,,,,,,,,,,,,3,0.494,,,,,,,,,,,,,,0,41,41,84,1,,,,,,,,,,,,,space,1.152,,,,,,,,,,,,,,,,,,,,,,,,,,,,,,,,,,,,,,,,,,,,,,,,,,,,,,,,,,,,,,,,,
,,,,992485,001,2023-10-09_17h51.10.025,fluency,2022.2.4,Win32,59.95203837,,,,,,,,,,,,,,,,,,,,,,,4,5,img/B05_04.jpg,MF,Press J if the face is FEMALE and K if the face is MALE, ,KJ,,,,,,,,,,,,,,,,,,,,,,,,,,,,,,,,,,,,,,,,,,,,,,,,,,,,,621.42,0,42,42,48,1,109,0,0,0,0,1,98,,,,,,,,,,,,,,,,,,,,,,,,,,,,,,,,,,,,,,,,,,,,,,,,,,,,,,,,,,,,,,,,,,,,,,,,
,,,,992485,001,2023-10-09_17h51.10.025,fluency,2022.2.4,Win32,59.95203837,,,,,,,,,,,,,,,,,,,,,,,,,,,,,,,,,,,,,,,,,,,,,,,,,,,,,,,space,0.698,,,,,,,,,,,,,,,,,,,,,,,,,,,,,,,,,,,,,,,,,4,,,,,0,0,0,0,1,,,,,,,,,,,,,,,,,,,,,,,,,,,,,,,,,,,,,,,,,,,,,,,,,,,,,,,,,,,,
,,,,992485,001,2023-10-09_17h51.10.025,fluency,2022.2.4,Win32,59.95203837,,,,,,,,,,,,,,,,,,,,,,,,,,,,,,,,,,,,,,,,,,,,,,,,,,,,,,,,,,,,,,,,,,,,,,,,,,,,,,,,,,,,,,,,,0,0,0,0,1,,,,,,,,,,,,,,,,,,,,,,,,,,,,,,,,,,,,,,,,,,,,,,,,,,,,,,,,,,,,,,,,,,,,,,,,,
,,,,992485,001,2023-10-09_17h51.10.025,fluency,2022.2.4,Win32,59.95203837,,,,,,,,,,,,,,,,,,,,,,,4,5,img/B05_04.jpg,MF,Press J if the face is FEMALE and K if the face is MALE, ,KJ,,,,,,,,,,,,,,,,,,,,,,,,,,,,,,,,,,,,,,,,,,,,,,,,,,,,,626.142,0,42,42,48,1,109,1,0,1,0,1,98,,,,,,,,,,,,,,,,,,,,,,,,,,,,,,,,,,,,,,,,,,,,,,,,,,,,,,,,,,,,,,,,,,,,,,,,
,,,,992485,001,2023-10-09_17h51.10.025,fluency,2022.2.4,Win32,59.95203837,,,,,,,,,,,,,,,,,,,,,,,,,,,,,,,,,,,,,,,,,,,,,,,,,,,,,,,,,,,,,,,,,,,,,,,,,,,,,,,,,,,,,,,,,1,0,1,0,1,,"[""j""]",[1.9150000000000773],4,"[""j""]",[1.9150000000000773],,,,,,,,,,,,,,,,,,,,,,,,,,,,,,,,,,,,,,,,,,,,,,,,,,,,,,,,,,,,,,,,,,,
,,,,992485,001,2023-10-09_17h51.10.025,fluency,2022.2.4,Win32,59.95203837,,,,,,,,,,,,,,,,,,,,,,,4,5,img/B05_04.jpg,MF,Press J if the face is FEMALE and K if the face is MALE, ,KJ,,,,,,,,,,,,,,,,,,,,,,,,,,,,,,,,,,,,,,,2,2.097,,,,,,,,,,,,,,0,42,42,48,1,,,,,,,,,,,,,space,0.537,,,,,,,,,,,,,,,,,,,,,,,,,,,,,,,,,,,,,,,,,,,,,,,,,,,,,,,,,,,,,,,,,
,,,,992485,001,2023-10-09_17h51.10.025,fluency,2022.2.4,Win32,59.95203837,,,,,,,,,,,,,,,,,,,,,,,6,5,img/B05_06.jpg,MF,Press J if the face is FEMALE and K if the face is MALE, ,KJ,,,,,,,,,,,,,,,,,,,,,,,,,,,,,,,,,,,,,,,,,,,,,,,,,,,,,632.815,0,43,43,50,1,109,0,0,0,0,1,98,,,,,,,,,,,,,,,,,,,,,,,,,,,,,,,,,,,,,,,,,,,,,,,,,,,,,,,,,,,,,,,,,,,,,,,,
,,,,992485,001,2023-10-09_17h51.10.025,fluency,2022.2.4,Win32,59.95203837,,,,,,,,,,,,,,,,,,,,,,,,,,,,,,,,,,,,,,,,,,,,,,,,,,,,,,,,,,,,,,,,,,,,,,,,,,,,,,,,,,,,,,,,,0,0,0,0,1,,"[""j""]",[2.062000000000012],4,"[""j""]",[2.062000000000012],,,,,,,,,,,,,,,,,,,,,,,,,,,,,,,,,,,,,,,,,,,,,,,,,,,,,,,,,,,,,,,,,,,
,,,,992485,001,2023-10-09_17h51.10.025,fluency,2022.2.4,Win32,59.95203837,,,,,,,,,,,,,,,,,,,,,,,6,5,img/B05_06.jpg,MF,Press J if the face is FEMALE and K if the face is MALE, ,KJ,,,,,,,,,,,,,,,,,,,,,,,,,,,,,,,,,,,,,,,3,1.727,,,,,,,,,,,,,,0,43,43,50,1,,,,,,,,,,,,,space,0.87,,,,,,,,,,,,,,,,,,,,,,,,,,,,,,,,,,,,,,,,,,,,,,,,,,,,,,,,,,,,,,,,,
,,,,992485,001,2023-10-09_17h51.10.025,fluency,2022.2.4,Win32,59.95203837,,,,,,,,,,,,,,,,,,,,,,,0,6,img/B06_00.jpg,MF,Press J if the face is FEMALE and K if the face is MALE, ,KJ,,,,,,,,,,,,,,,,,,,,,,,,,,,,,,,,,,,,,,,,,,,,,,,,,,,,,639.455,0,44,44,55,1,109,0,0,0,0,1,98,,,,,,,,,,,,,,,,,,,,,,,,,,,,,,,,,,,,,,,,,,,,,,,,,,,,,,,,,,,,,,,,,,,,,,,,
,,,,992485,001,2023-10-09_17h51.10.025,fluency,2022.2.4,Win32,59.95203837,,,,,,,,,,,,,,,,,,,,,,,,,,,,,,,,,,,,,,,,,,,,,,,,,,,,,,,,,,,,,,,,,,,,,,,,,,,,,,,,,,,,,,,,,0,0,0,0,1,,"[""k""]",[0.9180000000000064],4,"[""k""]",[0.9180000000000064],,,,,,,,,,,,,,,,,,,,,,,,,,,,,,,,,,,,,,,,,,,,,,,,,,,,,,,,,,,,,,,,,,,
,,,,992485,001,2023-10-09_17h51.10.025,fluency,2022.2.4,Win32,59.95203837,,,,,,,,,,,,,,,,,,,,,,,0,6,img/B06_00.jpg,MF,Press J if the face is FEMALE and K if the face is MALE, ,KJ,,,,,,,,,,,,,,,,,,,,,,,,,,,,,,,,,,,,,,,4,1.447,,,,,,,,,,,,,,0,44,44,55,1,,,,,,,,,,,,,space,0.626,,,,,,,,,,,,,,,,,,,,,,,,,,,,,,,,,,,,,,,,,,,,,,,,,,,,,,,,,,,,,,,,,
,,,,992485,001,2023-10-09_17h51.10.025,fluency,2022.2.4,Win32,59.95203837,,,,,,,,,,,,,,,,,,,,,,,7,7,img/B07_07.jpg,MF,Press J if the face is FEMALE and K if the face is MALE, ,KJ,,,,,,,,,,,,,,,,,,,,,,,,,,,,,,,,,,,,,,,,,,,,,,,,,,,,,645.561,0,45,45,73,1,109,0,0,0,0,1,98,,,,,,,,,,,,,,,,,,,,,,,,,,,,,,,,,,,,,,,,,,,,,,,,,,,,,,,,,,,,,,,,,,,,,,,,
,,,,992485,001,2023-10-09_17h51.10.025,fluency,2022.2.4,Win32,59.95203837,,,,,,,,,,,,,,,,,,,,,,,,,,,,,,,,,,,,,,,,,,,,,,,,,,,,,,,,,,,,,,,,,,,,,,,,,,,,,,,,,,,,,,,,,0,0,0,0,1,,"[""j""]",[1.5710000000000264],4,"[""j""]",[1.5710000000000264],,,,,,,,,,,,,,,,,,,,,,,,,,,,,,,,,,,,,,,,,,,,,,,,,,,,,,,,,,,,,,,,,,,
,,,,992485,001,2023-10-09_17h51.10.025,fluency,2022.2.4,Win32,59.95203837,,,,,,,,,,,,,,,,,,,,,,,7,7,img/B07_07.jpg,MF,Press J if the face is FEMALE and K if the face is MALE, ,KJ,,,,,,,,,,,,,,,,,,,,,,,,,,,,,,,,,,,,,,,4,2.645,,,,,,,,,,,,,,0,45,45,73,1,,,,,,,,,,,,,space,0.543,,,,,,,,,,,,,,,,,,,,,,,,,,,,,,,,,,,,,,,,,,,,,,,,,,,,,,,,,,,,,,,,,
,,,,992485,001,2023-10-09_17h51.10.025,fluency,2022.2.4,Win32,59.95203837,,,,,,,,,,,,,,,,,,,,,,,3,2,img/B02_03.jpg,MF,Press J if the face is FEMALE and K if the face is MALE, ,KJ,,,,,,,,,,,,,,,,,,,,,,,,,,,,,,,,,,,,,,,,,,,,,,,,,,,,,653.786,0,46,46,14,1,109,0,0,0,0,1,98,,,,,,,,,,,,,,,,,,,,,,,,,,,,,,,,,,,,,,,,,,,,,,,,,,,,,,,,,,,,,,,,,,,,,,,,
,,,,992485,001,2023-10-09_17h51.10.025,fluency,2022.2.4,Win32,59.95203837,,,,,,,,,,,,,,,,,,,,,,,,,,,,,,,,,,,,,,,,,,,,,,,,,,,,,,,,,,,,,,,,,,,,,,,,,,,,,,,,,,,,,,,,,0,0,0,0,1,,"[""k""]",[1.5480000000000018],4,"[""k""]",[1.5480000000000018],,,,,,,,,,,,,,,,,,,,,,,,,,,,,,,,,,,,,,,,,,,,,,,,,,,,,,,,,,,,,,,,,,,
,,,,992485,001,2023-10-09_17h51.10.025,fluency,2022.2.4,Win32,59.95203837,,,,,,,,,,,,,,,,,,,,,,,3,2,img/B02_03.jpg,MF,Press J if the face is FEMALE and K if the face is MALE, ,KJ,,,,,,,,,,,,,,,,,,,,,,,,,,,,,,,,,,,,,,,4,3.156,,,,,,,,,,,,,,0,46,46,14,1,,,,,,,,,,,,,space,0.953,,,,,,,,,,,,,,,,,,,,,,,,,,,,,,,,,,,,,,,,,,,,,,,,,,,,,,,,,,,,,,,,,
,,,,992485,001,2023-10-09_17h51.10.025,fluency,2022.2.4,Win32,59.95203837,,,,,,,,,,,,,,,,,,,,,,,4,7,img/B07_04.jpg,MF,Press J if the face is FEMALE and K if the face is MALE, ,KJ,,,,,,,,,,,,,,,,,,,,,,,,,,,,,,,,,,,,,,,,,,,,,,,,,,,,,662.928,0,47,47,70,1,109,0,0,0,0,1,98,,,,,,,,,,,,,,,,,,,,,,,,,,,,,,,,,,,,,,,,,,,,,,,,,,,,,,,,,,,,,,,,,,,,,,,,
,,,,992485,001,2023-10-09_17h51.10.025,fluency,2022.2.4,Win32,59.95203837,,,,,,,,,,,,,,,,,,,,,,,,,,,,,,,,,,,,,,,,,,,,,,,,,,,,,,,,,,,,,,,,,,,,,,,,,,,,,,,,,,,,,,,,,0,0,0,0,1,,"[""k""]",[1.8449999999999136],4,"[""k""]",[1.8449999999999136],,,,,,,,,,,,,,,,,,,,,,,,,,,,,,,,,,,,,,,,,,,,,,,,,,,,,,,,,,,,,,,,,,,
,,,,992485,001,2023-10-09_17h51.10.025,fluency,2022.2.4,Win32,59.95203837,,,,,,,,,,,,,,,,,,,,,,,4,7,img/B07_04.jpg,MF,Press J if the face is FEMALE and K if the face is MALE, ,KJ,,,,,,,,,,,,,,,,,,,,,,,,,,,,,,,,,,,,,,,3,2.255,,,,,,,,,,,,,,0,47,47,70,1,,,,,,,,,,,,,space,1.072,,,,,,,,,,,,,,,,,,,,,,,,,,,,,,,,,,,,,,,,,,,,,,,,,,,,,,,,,,,,,,,,,
,,,,992485,001,2023-10-09_17h51.10.025,fluency,2022.2.4,Win32,59.95203837,,,,,,,,,,,,,,,,,,,,,,,9,8,img/B08_09.jpg,MF,Press J if the face is FEMALE and K if the face is MALE, ,KJ,,,,,,,,,,,,,,,,,,,,,,,,,,,,,,,,,,,,,,,,,,,,,,,,,,,,,670.288,0,48,48,86,1,109,0,0,0,0,1,98,,,,,,,,,,,,,,,,,,,,,,,,,,,,,,,,,,,,,,,,,,,,,,,,,,,,,,,,,,,,,,,,,,,,,,,,
,,,,992485,001,2023-10-09_17h51.10.025,fluency,2022.2.4,Win32,59.95203837,,,,,,,,,,,,,,,,,,,,,,,,,,,,,,,,,,,,,,,,,,,,,,,,,,,,,,,,,,,,,,,,,,,,,,,,,,,,,,,,,,,,,,,,,0,0,0,0,1,,"[""k""]",[1.164000000000101],4,"[""k""]",[1.164000000000101],,,,,,,,,,,,,,,,,,,,,,,,,,,,,,,,,,,,,,,,,,,,,,,,,,,,,,,,,,,,,,,,,,,
,,,,992485,001,2023-10-09_17h51.10.025,fluency,2022.2.4,Win32,59.95203837,,,,,,,,,,,,,,,,,,,,,,,9,8,img/B08_09.jpg,MF,Press J if the face is FEMALE and K if the face is MALE, ,KJ,,,,,,,,,,,,,,,,,,,,,,,,,,,,,,,,,,,,,,,3,1.875,,,,,,,,,,,,,,0,48,48,86,1,,,,,,,,,,,,,space,0.651,,,,,,,,,,,,,,,,,,,,,,,,,,,,,,,,,,,,,,,,,,,,,,,,,,,,,,,,,,,,,,,,,
,,,,992485,001,2023-10-09_17h51.10.025,fluency,2022.2.4,Win32,59.95203837,,,,,,,,,,,,,,,,,,,,,,,2,9,img/B09_02.jpg,MF,Press J if the face is FEMALE and K if the face is MALE, ,KJ,,,,,,,,,,,,,,,,,,,,,,,,,,,,,,,,,,,,,,,,,,,,,,,,,,,,,676.842,0,49,49,90,1,109,0,0,0,0,1,98,,,,,,,,,,,,,,,,,,,,,,,,,,,,,,,,,,,,,,,,,,,,,,,,,,,,,,,,,,,,,,,,,,,,,,,,
,,,,992485,001,2023-10-09_17h51.10.025,fluency,2022.2.4,Win32,59.95203837,,,,,,,,,,,,,,,,,,,,,,,,,,,,,,,,,,,,,,,,,,,,,,,,,,,,,,,,,,,,,,,,,,,,,,,,,,,,,,,,,,,,,,,,,0,0,0,0,1,,"[""k""]",[0.8020000000000209],4,"[""k""]",[0.8020000000000209],,,,,,,,,,,,,,,,,,,,,,,,,,,,,,,,,,,,,,,,,,,,,,,,,,,,,,,,,,,,,,,,,,,
,,,,992485,001,2023-10-09_17h51.10.025,fluency,2022.2.4,Win32,59.95203837,,,,,,,,,,,,,,,,,,,,,,,2,9,img/B09_02.jpg,MF,Press J if the face is FEMALE and K if the face is MALE, ,KJ,,,,,,,,,,,,,,,,,,,,,,,,,,,,,,,,,,,,,,,3,0.494,,,,,,,,,,,,,,0,49,49,90,1,,,,,,,,,,,,,space,0.91,,,,,,,,,,,,,,,,,,,,,,,,,,,,,,,,,,,,,,,,,,,,,,,,,,,,,,,,,,,,,,,,,
,,,,992485,001,2023-10-09_17h51.10.025,fluency,2022.2.4,Win32,59.95203837,,,,,,,,,,,,,,,,,,,,,,,0,4,img/B04_00.jpg,MF,Press J if the face is FEMALE and K if the face is MALE, ,KJ,,,,,,,,,,,,,,,,,,,,,,,,,,,,,,,,,,,,,,,,,,,,,,,,,,,,,683.282,0,50,50,33,1,109,0,0,0,0,1,98,,,,,,,,,,,,,,,,,,,,,,,,,,,,,,,,,,,,,,,,,,,,,,,,,,,,,,,,,,,,,,,,,,,,,,,,
,,,,992485,001,2023-10-09_17h51.10.025,fluency,2022.2.4,Win32,59.95203837,,,,,,,,,,,,,,,,,,,,,,,,,,,,,,,,,,,,,,,,,,,,,,,,,,,,,,,,,,,,,,,,,,,,,,,,,,,,,,,,,,,,,,,,,0,0,0,0,1,,"[""k""]",[1.0510000000000446],4,"[""k""]",[1.0510000000000446],,,,,,,,,,,,,,,,,,,,,,,,,,,,,,,,,,,,,,,,,,,,,,,,,,,,,,,,,,,,,,,,,,,
,,,,992485,001,2023-10-09_17h51.10.025,fluency,2022.2.4,Win32,59.95203837,,,,,,,,,,,,,,,,,,,,,,,0,4,img/B04_00.jpg,MF,Press J if the face is FEMALE and K if the face is MALE, ,KJ,,,,,,,,,,,,,,,,,,,,,,,,,,,,,,,,,,,,,,,5,0.517,,,,,,,,,,,,,,0,50,50,33,1,,,,,,,,,,,,,space,1.244,,,,,,,,,,,,,,,,,,,,,,,,,,,,,,,,,,,,,,,,,,,,,,,,,,,,,,,,,,,,,,,,,
,,,,992485,001,2023-10-09_17h51.10.025,fluency,2022.2.4,Win32,59.95203837,,,,,,,,,,,,,,,,,,,,,,,8,3,img/B03_08.jpg,MF,Press J if the face is FEMALE and K if the face is MALE, ,KJ,,,,,,,,,,,,,,,,,,,,,,,,,,,,,,,,,,,,,,,,,,,,,,,,,,,,,690.073,0,51,51,30,1,109,0,0,0,0,1,98,,,,,,,,,,,,,,,,,,,,,,,,,,,,,,,,,,,,,,,,,,,,,,,,,,,,,,,,,,,,,,,,,,,,,,,,
,,,,992485,001,2023-10-09_17h51.10.025,fluency,2022.2.4,Win32,59.95203837,,,,,,,,,,,,,,,,,,,,,,,,,,,,,,,,,,,,,,,,,,,,,,,,,,,,,,,,,,,,,,,,,,,,,,,,,,,,,,,,,,,,,,,,,0,0,0,0,1,,"[""j""]",[0.8679999999999382],4,"[""j""]",[0.8679999999999382],,,,,,,,,,,,,,,,,,,,,,,,,,,,,,,,,,,,,,,,,,,,,,,,,,,,,,,,,,,,,,,,,,,
,,,,992485,001,2023-10-09_17h51.10.025,fluency,2022.2.4,Win32,59.95203837,,,,,,,,,,,,,,,,,,,,,,,8,3,img/B03_08.jpg,MF,Press J if the face is FEMALE and K if the face is MALE, ,KJ,,,,,,,,,,,,,,,,,,,,,,,,,,,,,,,,,,,,,,,4,1.374,,,,,,,,,,,,,,0,51,51,30,1,,,,,,,,,,,,,space,0.491,,,,,,,,,,,,,,,,,,,,,,,,,,,,,,,,,,,,,,,,,,,,,,,,,,,,,,,,,,,,,,,,,
,,,,992485,001,2023-10-09_17h51.10.025,fluency,2022.2.4,Win32,59.95203837,,,,,,,,,,,,,,,,,,,,,,,1,10,img/B10_01.jpg,MF,Press J if the face is FEMALE and K if the face is MALE, ,KJ,,,,,,,,,,,,,,,,,,,,,,,,,,,,,,,,,,,,,,,,,,,,,,,,,,,,,696.963,0,52,52,100,1,109,0,0,0,0,1,98,,,,,,,,,,,,,,,,,,,,,,,,,,,,,,,,,,,,,,,,,,,,,,,,,,,,,,,,,,,,,,,,,,,,,,,,
,,,,992485,001,2023-10-09_17h51.10.025,fluency,2022.2.4,Win32,59.95203837,,,,,,,,,,,,,,,,,,,,,,,,,,,,,,,,,,,,,,,,,,,,,,,,,,,,,,,,,,,,,,,,,,,,,,,,,,,,,,,,,,,,,,,,,0,0,0,0,1,,"[""k""]",[0.7799999999999727],4,"[""k""]",[0.7799999999999727],,,,,,,,,,,,,,,,,,,,,,,,,,,,,,,,,,,,,,,,,,,,,,,,,,,,,,,,,,,,,,,,,,,
,,,,992485,001,2023-10-09_17h51.10.025,fluency,2022.2.4,Win32,59.95203837,,,,,,,,,,,,,,,,,,,,,,,1,10,img/B10_01.jpg,MF,Press J if the face is FEMALE and K if the face is MALE, ,KJ,,,,,,,,,,,,,,,,,,,,,,,,,,,,,,,,,,,,,,,5,1.502,,,,,,,,,,,,,,0,52,52,100,1,,,,,,,,,,,,,space,0.603,,,,,,,,,,,,,,,,,,,,,,,,,,,,,,,,,,,,,,,,,,,,,,,,,,,,,,,,,,,,,,,,,
,,,,992485,001,2023-10-09_17h51.10.025,fluency,2022.2.4,Win32,59.95203837,,,,,,,,,,,,,,,,,,,,,,,6,2,img/B02_06.jpg,MF,Press J if the face is FEMALE and K if the face is MALE, ,KJ,,,,,,,,,,,,,,,,,,,,,,,,,,,,,,,,,,,,,,,,,,,,,,,,,,,,,704.103,0,53,53,17,1,109,0,0,0,0,1,98,,,,,,,,,,,,,,,,,,,,,,,,,,,,,,,,,,,,,,,,,,,,,,,,,,,,,,,,,,,,,,,,,,,,,,,,
,,,,992485,001,2023-10-09_17h51.10.025,fluency,2022.2.4,Win32,59.95203837,,,,,,,,,,,,,,,,,,,,,,,,,,,,,,,,,,,,,,,,,,,,,,,,,,,,,,,,,,,,,,,,,,,,,,,,,,,,,,,,,,,,,,,,,0,0,0,0,1,,"[""j""]",[0.9959999999999809],4,"[""j""]",[0.9959999999999809],,,,,,,,,,,,,,,,,,,,,,,,,,,,,,,,,,,,,,,,,,,,,,,,,,,,,,,,,,,,,,,,,,,
,,,,992485,001,2023-10-09_17h51.10.025,fluency,2022.2.4,Win32,59.95203837,,,,,,,,,,,,,,,,,,,,,,,6,2,img/B02_06.jpg,MF,Press J if the face is FEMALE and K if the face is MALE, ,KJ,,,,,,,,,,,,,,,,,,,,,,,,,,,,,,,,,,,,,,,3,1.638,,,,,,,,,,,,,,0,53,53,17,1,,,,,,,,,,,,,space,0.753,,,,,,,,,,,,,,,,,,,,,,,,,,,,,,,,,,,,,,,,,,,,,,,,,,,,,,,,,,,,,,,,,
,,,,992485,001,2023-10-09_17h51.10.025,fluency,2022.2.4,Win32,59.95203837,,,,,,,,,,,,,,,,,,,,,,,2,8,img/B08_02.jpg,MF,Press J if the face is FEMALE and K if the face is MALE, ,KJ,,,,,,,,,,,,,,,,,,,,,,,,,,,,,,,,,,,,,,,,,,,,,,,,,,,,,710.526,0,54,54,79,1,109,0,0,0,0,1,98,,,,,,,,,,,,,,,,,,,,,,,,,,,,,,,,,,,,,,,,,,,,,,,,,,,,,,,,,,,,,,,,,,,,,,,,
,,,,992485,001,2023-10-09_17h51.10.025,fluency,2022.2.4,Win32,59.95203837,,,,,,,,,,,,,,,,,,,,,,,,,,,,,,,,,,,,,,,,,,,,,,,,,,,,,,,,,,,,,,,,,,,,,,,,,,,,,,,,,,,,,,,,,0,0,0,0,1,,"[""j""]",[0.8300000000000409],4,"[""j""]",[0.8300000000000409],,,,,,,,,,,,,,,,,,,,,,,,,,,,,,,,,,,,,,,,,,,,,,,,,,,,,,,,,,,,,,,,,,,
,,,,992485,001,2023-10-09_17h51.10.025,fluency,2022.2.4,Win32,59.95203837,,,,,,,,,,,,,,,,,,,,,,,2,8,img/B08_02.jpg,MF,Press J if the face is FEMALE and K if the face is MALE, ,KJ,,,,,,,,,,,,,,,,,,,,,,,,,,,,,,,,,,,,,,,3,0.584,,,,,,,,,,,,,,0,54,54,79,1,,,,,,,,,,,,,space,0.575,,,,,,,,,,,,,,,,,,,,,,,,,,,,,,,,,,,,,,,,,,,,,,,,,,,,,,,,,,,,,,,,,
,,,,992485,001,2023-10-09_17h51.10.025,fluency,2022.2.4,Win32,59.95203837,,,,,,,,,,,,,,,,,,,,,,,4,6,img/B06_04.jpg,MF,Press J if the face is FEMALE and K if the face is MALE, ,KJ,,,,,,,,,,,,,,,,,,,,,,,,,,,,,,,,,,,,,,,,,,,,,,,,,,,,,715.714,0,55,55,59,1,109,0,0,0,0,1,98,,,,,,,,,,,,,,,,,,,,,,,,,,,,,,,,,,,,,,,,,,,,,,,,,,,,,,,,,,,,,,,,,,,,,,,,
,,,,992485,001,2023-10-09_17h51.10.025,fluency,2022.2.4,Win32,59.95203837,,,,,,,,,,,,,,,,,,,,,,,,,,,,,,,,,,,,,,,,,,,,,,,,,,,,,,,,,,,,,,,,,,,,,,,,,,,,,,,,,,,,,,,,,0,0,0,0,1,,"[""k""]",[2.4669999999999845],4,"[""k""]",[2.4669999999999845],,,,,,,,,,,,,,,,,,,,,,,,,,,,,,,,,,,,,,,,,,,,,,,,,,,,,,,,,,,,,,,,,,,
,,,,992485,001,2023-10-09_17h51.10.025,fluency,2022.2.4,Win32,59.95203837,,,,,,,,,,,,,,,,,,,,,,,4,6,img/B06_04.jpg,MF,Press J if the face is FEMALE and K if the face is MALE, ,KJ,,,,,,,,,,,,,,,,,,,,,,,,,,,,,,,,,,,,,,,4,1.117,,,,,,,,,,,,,,0,55,55,59,1,,,,,,,,,,,,,space,0.595,,,,,,,,,,,,,,,,,,,,,,,,,,,,,,,,,,,,,,,,,,,,,,,,,,,,,,,,,,,,,,,,,
,,,,992485,001,2023-10-09_17h51.10.025,fluency,2022.2.4,Win32,59.95203837,,,,,,,,,,,,,,,,,,,,,,,0,3,img/B03_00.jpg,MF,Press J if the face is FEMALE and K if the face is MALE, ,KJ,,,,,,,,,,,,,,,,,,,,,,,,,,,,,,,,,,,,,,,,,,,,,,,,,,,,,722.454,0,56,56,22,1,109,0,0,0,0,1,98,,,,,,,,,,,,,,,,,,,,,,,,,,,,,,,,,,,,,,,,,,,,,,,,,,,,,,,,,,,,,,,,,,,,,,,,
,,,,992485,001,2023-10-09_17h51.10.025,fluency,2022.2.4,Win32,59.95203837,,,,,,,,,,,,,,,,,,,,,,,,,,,,,,,,,,,,,,,,,,,,,,,,,,,,,,,,,,,,,,,,,,,,,,,,,,,,,,,,,,,,,,,,,0,0,0,0,1,,"[""k""]",[1.07000000000005],4,"[""k""]",[1.07000000000005],,,,,,,,,,,,,,,,,,,,,,,,,,,,,,,,,,,,,,,,,,,,,,,,,,,,,,,,,,,,,,,,,,,
,,,,992485,001,2023-10-09_17h51.10.025,fluency,2022.2.4,Win32,59.95203837,,,,,,,,,,,,,,,,,,,,,,,0,3,img/B03_00.jpg,MF,Press J if the face is FEMALE and K if the face is MALE, ,KJ,,,,,,,,,,,,,,,,,,,,,,,,,,,,,,,,,,,,,,,5,1.53,,,,,,,,,,,,,,0,56,56,22,1,,,,,,,,,,,,,space,0.846,,,,,,,,,,,,,,,,,,,,,,,,,,,,,,,,,,,,,,,,,,,,,,,,,,,,,,,,,,,,,,,,,
,,,,992485,001,2023-10-09_17h51.10.025,fluency,2022.2.4,Win32,59.95203837,,,,,,,,,,,,,,,,,,,,,,,4,2,img/B02_04.jpg,MF,Press J if the face is FEMALE and K if the face is MALE, ,KJ,,,,,,,,,,,,,,,,,,,,,,,,,,,,,,,,,,,,,,,,,,,,,,,,,,,,,729.862,0,57,57,15,1,109,0,0,0,0,1,98,,,,,,,,,,,,,,,,,,,,,,,,,,,,,,,,,,,,,,,,,,,,,,,,,,,,,,,,,,,,,,,,,,,,,,,,
,,,,992485,001,2023-10-09_17h51.10.025,fluency,2022.2.4,Win32,59.95203837,,,,,,,,,,,,,,,,,,,,,,,,,,,,,,,,,,,,,,,,,,,,,,,,,,,,,,,,,,,,,,,,,,,,,,,,,,,,,,,,,,,,,,,,,0,0,0,0,1,,"[""j""]",[1.080000000000041],4,"[""j""]",[1.080000000000041],,,,,,,,,,,,,,,,,,,,,,,,,,,,,,,,,,,,,,,,,,,,,,,,,,,,,,,,,,,,,,,,,,,
,,,,992485,001,2023-10-09_17h51.10.025,fluency,2022.2.4,Win32,59.95203837,,,,,,,,,,,,,,,,,,,,,,,4,2,img/B02_04.jpg,MF,Press J if the face is FEMALE and K if the face is MALE, ,KJ,,,,,,,,,,,,,,,,,,,,,,,,,,,,,,,,,,,,,,,3,1.598,,,,,,,,,,,,,,0,57,57,15,1,,,,,,,,,,,,,space,0.43,,,,,,,,,,,,,,,,,,,,,,,,,,,,,,,,,,,,,,,,,,,,,,,,,,,,,,,,,,,,,,,,,
,,,,992485,001,2023-10-09_17h51.10.025,fluency,2022.2.4,Win32,59.95203837,,,,,,,,,,,,,,,,,,,,,,,3,7,img/B07_03.jpg,MF,Press J if the face is FEMALE and K if the face is MALE, ,KJ,,,,,,,,,,,,,,,,,,,,,,,,,,,,,,,,,,,,,,,,,,,,,,,,,,,,,736.919,0,58,58,69,1,109,0,0,0,0,1,98,,,,,,,,,,,,,,,,,,,,,,,,,,,,,,,,,,,,,,,,,,,,,,,,,,,,,,,,,,,,,,,,,,,,,,,,
,,,,992485,001,2023-10-09_17h51.10.025,fluency,2022.2.4,Win32,59.95203837,,,,,,,,,,,,,,,,,,,,,,,,,,,,,,,,,,,,,,,,,,,,,,,,,,,,,,,,,,,,,,,,,,,,,,,,,,,,,,,,,,,,,,,,,0,0,0,0,1,,"[""k""]",[0.8379999999999654],4,"[""k""]",[0.8379999999999654],,,,,,,,,,,,,,,,,,,,,,,,,,,,,,,,,,,,,,,,,,,,,,,,,,,,,,,,,,,,,,,,,,,
,,,,992485,001,2023-10-09_17h51.10.025,fluency,2022.2.4,Win32,59.95203837,,,,,,,,,,,,,,,,,,,,,,,3,7,img/B07_03.jpg,MF,Press J if the face is FEMALE and K if the face is MALE, ,KJ,,,,,,,,,,,,,,,,,,,,,,,,,,,,,,,,,,,,,,,3,5.165,,,,,,,,,,,,,,0,58,58,69,1,,,,,,,,,,,,,space,0.417,,,,,,,,,,,,,,,,,,,,,,,,,,,,,,,,,,,,,,,,,,,,,,,,,,,,,,,,,,,,,,,,,
,,,,992485,001,2023-10-09_17h51.10.025,fluency,2022.2.4,Win32,59.95203837,,,,,,,,,,,,,,,,,,,,,,,3,10,img/B10_03.jpg,MF,Press J if the face is FEMALE and K if the face is MALE, ,KJ,,,,,,,,,,,,,,,,,,,,,,,,,,,,,,,,,,,,,,,,,,,,,,,,,,,,,746.545,0,59,59,102,1,109,0,0,0,0,1,98,,,,,,,,,,,,,,,,,,,,,,,,,,,,,,,,,,,,,,,,,,,,,,,,,,,,,,,,,,,,,,,,,,,,,,,,
,,,,992485,001,2023-10-09_17h51.10.025,fluency,2022.2.4,Win32,59.95203837,,,,,,,,,,,,,,,,,,,,,,,,,,,,,,,,,,,,,,,,,,,,,,,,,,,,,,,space,2.326,,,,,,,,,,,,,,,,,,,,,,,,,,,,,,,,,,,,,,,,,5,,,,,0,0,0,0,1,,,,,,,,,,,,,,,,,,,,,,,,,,,,,,,,,,,,,,,,,,,,,,,,,,,,,,,,,,,,
,,,,992485,001,2023-10-09_17h51.10.025,fluency,2022.2.4,Win32,59.95203837,,,,,,,,,,,,,,,,,,,,,,,,,,,,,,,,,,,,,,,,,,,,,,,,,,,,,,,,,,,,,,,,,,,,,,,,,,,,,,,,,,,,,,,,,0,0,0,0,1,,,,,,,,,,,,,,,,,,,,,,,,,,,,,,,,,,,,,,,,,,,,,,,,,,,,,,,,,,,,,,,,,,,,,,,,,
,,,,992485,001,2023-10-09_17h51.10.025,fluency,2022.2.4,Win32,59.95203837,,,,,,,,,,,,,,,,,,,,,,,3,10,img/B10_03.jpg,MF,Press J if the face is FEMALE and K if the face is MALE, ,KJ,,,,,,,,,,,,,,,,,,,,,,,,,,,,,,,,,,,,,,,,,,,,,,,,,,,,,753.885,0,59,59,102,1,109,1,0,1,0,1,98,,,,,,,,,,,,,,,,,,,,,,,,,,,,,,,,,,,,,,,,,,,,,,,,,,,,,,,,,,,,,,,,,,,,,,,,
,,,,992485,001,2023-10-09_17h51.10.025,fluency,2022.2.4,Win32,59.95203837,,,,,,,,,,,,,,,,,,,,,,,,,,,,,,,,,,,,,,,,,,,,,,,,,,,,,,,,,,,,,,,,,,,,,,,,,,,,,,,,,,,,,,,,,1,0,1,0,1,,"[""k""]",[0.4270000000000209],5,"[""k""]",[0.4270000000000209],,,,,,,,,,,,,,,,,,,,,,,,,,,,,,,,,,,,,,,,,,,,,,,,,,,,,,,,,,,,,,,,,,,
,,,,992485,001,2023-10-09_17h51.10.025,fluency,2022.2.4,Win32,59.95203837,,,,,,,,,,,,,,,,,,,,,,,3,10,img/B10_03.jpg,MF,Press J if the face is FEMALE and K if the face is MALE, ,KJ,,,,,,,,,,,,,,,,,,,,,,,,,,,,,,,,,,,,,,,4,0.568,,,,,,,,,,,,,,0,59,59,102,1,,,,,,,,,,,,,space,0.601,,,,,,,,,,,,,,,,,,,,,,,,,,,,,,,,,,,,,,,,,,,,,,,,,,,,,,,,,,,,,,,,,
,,,,992485,001,2023-10-09_17h51.10.025,fluency,2022.2.4,Win32,59.95203837,,,,,,,,,,,,,,,,,,,,,,,0,9,img/B09_00.jpg,MF,Press J if the face is FEMALE and K if the face is MALE, ,KJ,,,,,,,,,,,,,,,,,,,,,,,,,,,,,,,,,,,,,,,,,,,,,,,,,,,,,760.092,0,60,60,88,1,109,0,0,0,0,1,98,,,,,,,,,,,,,,,,,,,,,,,,,,,,,,,,,,,,,,,,,,,,,,,,,,,,,,,,,,,,,,,,,,,,,,,,
,,,,992485,001,2023-10-09_17h51.10.025,fluency,2022.2.4,Win32,59.95203837,,,,,,,,,,,,,,,,,,,,,,,,,,,,,,,,,,,,,,,,,,,,,,,,,,,,,,,,,,,,,,,,,,,,,,,,,,,,,,,,,,,,,,,,,0,0,0,0,1,,"[""k""]",[1.288000000000011],5,"[""k""]",[1.288000000000011],,,,,,,,,,,,,,,,,,,,,,,,,,,,,,,,,,,,,,,,,,,,,,,,,,,,,,,,,,,,,,,,,,,
,,,,992485,001,2023-10-09_17h51.10.025,fluency,2022.2.4,Win32,59.95203837,,,,,,,,,,,,,,,,,,,,,,,0,9,img/B09_00.jpg,MF,Press J if the face is FEMALE and K if the face is MALE, ,KJ,,,,,,,,,,,,,,,,,,,,,,,,,,,,,,,,,,,,,,,3,0.828,,,,,,,,,,,,,,0,60,60,88,1,,,,,,,,,,,,,space,0.805,,,,,,,,,,,,,,,,,,,,,,,,,,,,,,,,,,,,,,,,,,,,,,,,,,,,,,,,,,,,,,,,,
,,,,992485,001,2023-10-09_17h51.10.025,fluency,2022.2.4,Win32,59.95203837,,,,,,,,,,,,,,,,,,,,,,,0,1,img/B01_00.jpg,MF,Press J if the face is FEMALE and K if the face is MALE, ,KJ,,,,,,,,,,,,,,,,,,,,,,,,,,,,,,,,,,,,,,,,,,,,,,,,,,,,,766.765,0,61,61,0,1,109,0,0,0,0,1,98,,,,,,,,,,,,,,,,,,,,,,,,,,,,,,,,,,,,,,,,,,,,,,,,,,,,,,,,,,,,,,,,,,,,,,,,
,,,,992485,001,2023-10-09_17h51.10.025,fluency,2022.2.4,Win32,59.95203837,,,,,,,,,,,,,,,,,,,,,,,,,,,,,,,,,,,,,,,,,,,,,,,,,,,,,,,,,,,,,,,,,,,,,,,,,,,,,,,,,,,,,,,,,0,0,0,0,1,,"[""k""]",[2.231999999999971],5,"[""k""]",[2.231999999999971],,,,,,,,,,,,,,,,,,,,,,,,,,,,,,,,,,,,,,,,,,,,,,,,,,,,,,,,,,,,,,,,,,,
,,,,992485,001,2023-10-09_17h51.10.025,fluency,2022.2.4,Win32,59.95203837,,,,,,,,,,,,,,,,,,,,,,,0,1,img/B01_00.jpg,MF,Press J if the face is FEMALE and K if the face is MALE, ,KJ,,,,,,,,,,,,,,,,,,,,,,,,,,,,,,,,,,,,,,,4,2.728,,,,,,,,,,,,,,0,61,61,0,1,,,,,,,,,,,,,space,0.438,,,,,,,,,,,,,,,,,,,,,,,,,,,,,,,,,,,,,,,,,,,,,,,,,,,,,,,,,,,,,,,,,
,,,,992485,001,2023-10-09_17h51.10.025,fluency,2022.2.4,Win32,59.95203837,,,,,,,,,,,,,,,,,,,,,,,0,7,img/B07_00.jpg,MF,Press J if the face is FEMALE and K if the face is MALE, ,KJ,,,,,,,,,,,,,,,,,,,,,,,,,,,,,,,,,,,,,,,,,,,,,,,,,,,,,774.974,0,62,62,66,1,109,0,0,0,0,1,98,,,,,,,,,,,,,,,,,,,,,,,,,,,,,,,,,,,,,,,,,,,,,,,,,,,,,,,,,,,,,,,,,,,,,,,,
,,,,992485,001,2023-10-09_17h51.10.025,fluency,2022.2.4,Win32,59.95203837,,,,,,,,,,,,,,,,,,,,,,,,,,,,,,,,,,,,,,,,,,,,,,,,,,,,,,,,,,,,,,,,,,,,,,,,,,,,,,,,,,,,,,,,,0,0,0,0,1,,"[""k""]",[0.9270000000000209],5,"[""k""]",[0.9270000000000209],,,,,,,,,,,,,,,,,,,,,,,,,,,,,,,,,,,,,,,,,,,,,,,,,,,,,,,,,,,,,,,,,,,
,,,,992485,001,2023-10-09_17h51.10.025,fluency,2022.2.4,Win32,59.95203837,,,,,,,,,,,,,,,,,,,,,,,0,7,img/B07_00.jpg,MF,Press J if the face is FEMALE and K if the face is MALE, ,KJ,,,,,,,,,,,,,,,,,,,,,,,,,,,,,,,,,,,,,,,3,2.008,,,,,,,,,,,,,,0,62,62,66,1,,,,,,,,,,,,,space,0.501,,,,,,,,,,,,,,,,,,,,,,,,,,,,,,,,,,,,,,,,,,,,,,,,,,,,,,,,,,,,,,,,,
,,,,992485,001,2023-10-09_17h51.10.025,fluency,2022.2.4,Win32,59.95203837,,,,,,,,,,,,,,,,,,,,,,,1,2,img/B02_01.jpg,MF,Press J if the face is FEMALE and K if the face is MALE, ,KJ,,,,,,,,,,,,,,,,,,,,,,,,,,,,,,,,,,,,,,,,,,,,,,,,,,,,,782.515,0,63,63,12,1,109,0,0,0,0,1,98,,,,,,,,,,,,,,,,,,,,,,,,,,,,,,,,,,,,,,,,,,,,,,,,,,,,,,,,,,,,,,,,,,,,,,,,
,,,,992485,001,2023-10-09_17h51.10.025,fluency,2022.2.4,Win32,59.95203837,,,,,,,,,,,,,,,,,,,,,,,,,,,,,,,,,,,,,,,,,,,,,,,,,,,,,,,,,,,,,,,,,,,,,,,,,,,,,,,,,,,,,,,,,0,0,0,0,1,,"[""k""]",[1.5550000000000637],5,"[""k""]",[1.5550000000000637],,,,,,,,,,,,,,,,,,,,,,,,,,,,,,,,,,,,,,,,,,,,,,,,,,,,,,,,,,,,,,,,,,,
,,,,992485,001,2023-10-09_17h51.10.025,fluency,2022.2.4,Win32,59.95203837,,,,,,,,,,,,,,,,,,,,,,,1,2,img/B02_01.jpg,MF,Press J if the face is FEMALE and K if the face is MALE, ,KJ,,,,,,,,,,,,,,,,,,,,,,,,,,,,,,,,,,,,,,,3,2.263,,,,,,,,,,,,,,0,63,63,12,1,,,,,,,,,,,,,space,0.844,,,,,,,,,,,,,,,,,,,,,,,,,,,,,,,,,,,,,,,,,,,,,,,,,,,,,,,,,,,,,,,,,
,,,,992485,001,2023-10-09_17h51.10.025,fluency,2022.2.4,Win32,59.95203837,,,,,,,,,,,,,,,,,,,,,,,10,3,img/B03_10.jpg,MF,Press J if the face is FEMALE and K if the face is MALE, ,KJ,,,,,,,,,,,,,,,,,,,,,,,,,,,,,,,,,,,,,,,,,,,,,,,,,,,,,789.655,0,64,64,32,1,109,0,0,0,0,1,98,,,,,,,,,,,,,,,,,,,,,,,,,,,,,,,,,,,,,,,,,,,,,,,,,,,,,,,,,,,,,,,,,,,,,,,,
,,,,992485,001,2023-10-09_17h51.10.025,fluency,2022.2.4,Win32,59.95203837,,,,,,,,,,,,,,,,,,,,,,,,,,,,,,,,,,,,,,,,,,,,,,,,,,,,,,,,,,,,,,,,,,,,,,,,,,,,,,,,,,,,,,,,,0,0,0,0,1,,"[""j""]",[1.0049999999999955],5,"[""j""]",[1.0049999999999955],,,,,,,,,,,,,,,,,,,,,,,,,,,,,,,,,,,,,,,,,,,,,,,,,,,,,,,,,,,,,,,,,,,
,,,,992485,001,2023-10-09_17h51.10.025,fluency,2022.2.4,Win32,59.95203837,,,,,,,,,,,,,,,,,,,,,,,10,3,img/B03_10.jpg,MF,Press J if the face is FEMALE and K if the face is MALE, ,KJ,,,,,,,,,,,,,,,,,,,,,,,,,,,,,,,,,,,,,,,4,0.571,,,,,,,,,,,,,,0,64,64,32,1,,,,,,,,,,,,,space,0.575,,,,,,,,,,,,,,,,,,,,,,,,,,,,,,,,,,,,,,,,,,,,,,,,,,,,,,,,,,,,,,,,,
,,,,992485,001,2023-10-09_17h51.10.025,fluency,2022.2.4,Win32,59.95203837,,,,,,,,,,,,,,,,,,,,,,,3,5,img/B05_03.jpg,MF,Press J if the face is FEMALE and K if the face is MALE, ,KJ,,,,,,,,,,,,,,,,,,,,,,,,,,,,,,,,,,,,,,,,,,,,,,,,,,,,,795.828,0,65,65,47,1,109,0,0,0,0,1,98,,,,,,,,,,,,,,,,,,,,,,,,,,,,,,,,,,,,,,,,,,,,,,,,,,,,,,,,,,,,,,,,,,,,,,,,
,,,,992485,001,2023-10-09_17h51.10.025,fluency,2022.2.4,Win32,59.95203837,,,,,,,,,,,,,,,,,,,,,,,,,,,,,,,,,,,,,,,,,,,,,,,,,,,,,,,,,,,,,,,,,,,,,,,,,,,,,,,,,,,,,,,,,0,0,0,0,1,,"[""k""]",[2.6499999999999773],5,"[""k""]",[2.6499999999999773],,,,,,,,,,,,,,,,,,,,,,,,,,,,,,,,,,,,,,,,,,,,,,,,,,,,,,,,,,,,,,,,,,,
,,,,992485,001,2023-10-09_17h51.10.025,fluency,2022.2.4,Win32,59.95203837,,,,,,,,,,,,,,,,,,,,,,,3,5,img/B05_03.jpg,MF,Press J if the face is FEMALE and K if the face is MALE, ,KJ,,,,,,,,,,,,,,,,,,,,,,,,,,,,,,,,,,,,,,,3,3.435,,,,,,,,,,,,,,0,65,65,47,1,,,,,,,,,,,,,space,0.428,,,,,,,,,,,,,,,,,,,,,,,,,,,,,,,,,,,,,,,,,,,,,,,,,,,,,,,,,,,,,,,,,
,,,,992485,001,2023-10-09_17h51.10.025,fluency,2022.2.4,Win32,59.95203837,,,,,,,,,,,,,,,,,,,,,,,8,7,img/B07_08.jpg,MF,Press J if the face is FEMALE and K if the face is MALE, ,KJ,,,,,,,,,,,,,,,,,,,,,,,,,,,,,,,,,,,,,,,,,,,,,,,,,,,,,804.72,0,66,66,74,1,109,0,0,0,0,1,98,,,,,,,,,,,,,,,,,,,,,,,,,,,,,,,,,,,,,,,,,,,,,,,,,,,,,,,,,,,,,,,,,,,,,,,,
,,,,992485,001,2023-10-09_17h51.10.025,fluency,2022.2.4,Win32,59.95203837,,,,,,,,,,,,,,,,,,,,,,,,,,,,,,,,,,,,,,,,,,,,,,,,,,,,,,,,,,,,,,,,,,,,,,,,,,,,,,,,,,,,,,,,,0,0,0,0,1,,"[""j""]",[1.08299999999997],5,"[""j""]",[1.08299999999997],,,,,,,,,,,,,,,,,,,,,,,,,,,,,,,,,,,,,,,,,,,,,,,,,,,,,,,,,,,,,,,,,,,
,,,,992485,001,2023-10-09_17h51.10.025,fluency,2022.2.4,Win32,59.95203837,,,,,,,,,,,,,,,,,,,,,,,8,7,img/B07_08.jpg,MF,Press J if the face is FEMALE and K if the face is MALE, ,KJ,,,,,,,,,,,,,,,,,,,,,,,,,,,,,,,,,,,,,,,4,3.028,,,,,,,,,,,,,,0,66,66,74,1,,,,,,,,,,,,,space,0.801,,,,,,,,,,,,,,,,,,,,,,,,,,,,,,,,,,,,,,,,,,,,,,,,,,,,,,,,,,,,,,,,,
,,,,992485,001,2023-10-09_17h51.10.025,fluency,2022.2.4,Win32,59.95203837,,,,,,,,,,,,,,,,,,,,,,,3,4,img/B04_03.jpg,MF,Press J if the face is FEMALE and K if the face is MALE, ,KJ,,,,,,,,,,,,,,,,,,,,,,,,,,,,,,,,,,,,,,,,,,,,,,,,,,,,,813.596,0,67,67,36,1,109,0,0,0,0,1,98,,,,,,,,,,,,,,,,,,,,,,,,,,,,,,,,,,,,,,,,,,,,,,,,,,,,,,,,,,,,,,,,,,,,,,,,
,,,,992485,001,2023-10-09_17h51.10.025,fluency,2022.2.4,Win32,59.95203837,,,,,,,,,,,,,,,,,,,,,,,,,,,,,,,,,,,,,,,,,,,,,,,,,,,,,,,,,,,,,,,,,,,,,,,,,,,,,,,,,,,,,,,,,0,0,0,0,1,,"[""k""]",[1.3449999999999136],5,"[""k""]",[1.3449999999999136],,,,,,,,,,,,,,,,,,,,,,,,,,,,,,,,,,,,,,,,,,,,,,,,,,,,,,,,,,,,,,,,,,,
,,,,992485,001,2023-10-09_17h51.10.025,fluency,2022.2.4,Win32,59.95203837,,,,,,,,,,,,,,,,,,,,,,,3,4,img/B04_03.jpg,MF,Press J if the face is FEMALE and K if the face is MALE, ,KJ,,,,,,,,,,,,,,,,,,,,,,,,,,,,,,,,,,,,,,,5,1.29,,,,,,,,,,,,,,0,67,67,36,1,,,,,,,,,,,,,space,0.988,,,,,,,,,,,,,,,,,,,,,,,,,,,,,,,,,,,,,,,,,,,,,,,,,,,,,,,,,,,,,,,,,
,,,,992485,001,2023-10-09_17h51.10.025,fluency,2022.2.4,Win32,59.95203837,,,,,,,,,,,,,,,,,,,,,,,4,3,img/B03_04.jpg,MF,Press J if the face is FEMALE and K if the face is MALE, ,KJ,,,,,,,,,,,,,,,,,,,,,,,,,,,,,,,,,,,,,,,,,,,,,,,,,,,,,819.902,0,68,68,26,1,109,0,0,0,0,1,98,,,,,,,,,,,,,,,,,,,,,,,,,,,,,,,,,,,,,,,,,,,,,,,,,,,,,,,,,,,,,,,,,,,,,,,,
,,,,992485,001,2023-10-09_17h51.10.025,fluency,2022.2.4,Win32,59.95203837,,,,,,,,,,,,,,,,,,,,,,,,,,,,,,,,,,,,,,,,,,,,,,,,,,,,,,,,,,,,,,,,,,,,,,,,,,,,,,,,,,,,,,,,,0,0,0,0,1,,"[""k""]",[1.7100000000000364],5,"[""k""]",[1.7100000000000364],,,,,,,,,,,,,,,,,,,,,,,,,,,,,,,,,,,,,,,,,,,,,,,,,,,,,,,,,,,,,,,,,,,
,,,,992485,001,2023-10-09_17h51.10.025,fluency,2022.2.4,Win32,59.95203837,,,,,,,,,,,,,,,,,,,,,,,4,3,img/B03_04.jpg,MF,Press J if the face is FEMALE and K if the face is MALE, ,KJ,,,,,,,,,,,,,,,,,,,,,,,,,,,,,,,,,,,,,,,3,2,,,,,,,,,,,,,,0,68,68,26,1,,,,,,,,,,,,,space,0.868,,,,,,,,,,,,,,,,,,,,,,,,,,,,,,,,,,,,,,,,,,,,,,,,,,,,,,,,,,,,,,,,,
,,,,992485,001,2023-10-09_17h51.10.025,fluency,2022.2.4,Win32,59.95203837,,,,,,,,,,,,,,,,,,,,,,,2,6,img/B06_02.jpg,MF,Press J if the face is FEMALE and K if the face is MALE, ,KJ,,,,,,,,,,,,,,,,,,,,,,,,,,,,,,,,,,,,,,,,,,,,,,,,,,,,,827.81,0,69,69,57,1,109,0,0,0,0,1,98,,,,,,,,,,,,,,,,,,,,,,,,,,,,,,,,,,,,,,,,,,,,,,,,,,,,,,,,,,,,,,,,,,,,,,,,
,,,,992485,001,2023-10-09_17h51.10.025,fluency,2022.2.4,Win32,59.95203837,,,,,,,,,,,,,,,,,,,,,,,,,,,,,,,,,,,,,,,,,,,,,,,,,,,,,,,,,,,,,,,,,,,,,,,,,,,,,,,,,,,,,,,,,0,0,0,0,1,,"[""k""]",[0.8269999999999982],5,"[""k""]",[0.8269999999999982],,,,,,,,,,,,,,,,,,,,,,,,,,,,,,,,,,,,,,,,,,,,,,,,,,,,,,,,,,,,,,,,,,,
,,,,992485,001,2023-10-09_17h51.10.025,fluency,2022.2.4,Win32,59.95203837,,,,,,,,,,,,,,,,,,,,,,,2,6,img/B06_02.jpg,MF,Press J if the face is FEMALE and K if the face is MALE, ,KJ,,,,,,,,,,,,,,,,,,,,,,,,,,,,,,,,,,,,,,,4,0.55,,,,,,,,,,,,,,0,69,69,57,1,,,,,,,,,,,,,space,1.011,,,,,,,,,,,,,,,,,,,,,,,,,,,,,,,,,,,,,,,,,,,,,,,,,,,,,,,,,,,,,,,,,
,,,,992485,001,2023-10-09_17h51.10.025,fluency,2022.2.4,Win32,59.95203837,,,,,,,,,,,,,,,,,,,,,,,5,7,img/B07_05.jpg,MF,Press J if the face is FEMALE and K if the face is MALE, ,KJ,,,,,,,,,,,,,,,,,,,,,,,,,,,,,,,,,,,,,,,,,,,,,,,,,,,,,833.4,0,70,70,71,1,109,0,0,0,0,1,98,,,,,,,,,,,,,,,,,,,,,,,,,,,,,,,,,,,,,,,,,,,,,,,,,,,,,,,,,,,,,,,,,,,,,,,,
,,,,992485,001,2023-10-09_17h51.10.025,fluency,2022.2.4,Win32,59.95203837,,,,,,,,,,,,,,,,,,,,,,,,,,,,,,,,,,,,,,,,,,,,,,,,,,,,,,,,,,,,,,,,,,,,,,,,,,,,,,,,,,,,,,,,,0,0,0,0,1,,"[""j""]",[1.2139999999999418],5,"[""j""]",[1.2139999999999418],,,,,,,,,,,,,,,,,,,,,,,,,,,,,,,,,,,,,,,,,,,,,,,,,,,,,,,,,,,,,,,,,,,
,,,,992485,001,2023-10-09_17h51.10.025,fluency,2022.2.4,Win32,59.95203837,,,,,,,,,,,,,,,,,,,,,,,5,7,img/B07_05.jpg,MF,Press J if the face is FEMALE and K if the face is MALE, ,KJ,,,,,,,,,,,,,,,,,,,,,,,,,,,,,,,,,,,,,,,4,1.91,,,,,,,,,,,,,,0,70,70,71,1,,,,,,,,,,,,,space,1.11,,,,,,,,,,,,,,,,,,,,,,,,,,,,,,,,,,,,,,,,,,,,,,,,,,,,,,,,,,,,,,,,,
,,,,992485,001,2023-10-09_17h51.10.025,fluency,2022.2.4,Win32,59.95203837,,,,,,,,,,,,,,,,,,,,,,,9,5,img/B05_09.jpg,MF,Press J if the face is FEMALE and K if the face is MALE, ,KJ,,,,,,,,,,,,,,,,,,,,,,,,,,,,,,,,,,,,,,,,,,,,,,,,,,,,,841.457,0,71,71,53,1,109,0,0,0,0,1,98,,,,,,,,,,,,,,,,,,,,,,,,,,,,,,,,,,,,,,,,,,,,,,,,,,,,,,,,,,,,,,,,,,,,,,,,
,,,,992485,001,2023-10-09_17h51.10.025,fluency,2022.2.4,Win32,59.95203837,,,,,,,,,,,,,,,,,,,,,,,,,,,,,,,,,,,,,,,,,,,,,,,,,,,,,,,,,,,,,,,,,,,,,,,,,,,,,,,,,,,,,,,,,0,0,0,0,1,,"[""j""]",[0.8589999999999236],5,"[""j""]",[0.8589999999999236],,,,,,,,,,,,,,,,,,,,,,,,,,,,,,,,,,,,,,,,,,,,,,,,,,,,,,,,,,,,,,,,,,,
,,,,992485,001,2023-10-09_17h51.10.025,fluency,2022.2.4,Win32,59.95203837,,,,,,,,,,,,,,,,,,,,,,,9,5,img/B05_09.jpg,MF,Press J if the face is FEMALE and K if the face is MALE, ,KJ,,,,,,,,,,,,,,,,,,,,,,,,,,,,,,,,,,,,,,,5,3.726,,,,,,,,,,,,,,0,71,71,53,1,,,,,,,,,,,,,space,0.971,,,,,,,,,,,,,,,,,,,,,,,,,,,,,,,,,,,,,,,,,,,,,,,,,,,,,,,,,,,,,,,,,
,,,,992485,001,2023-10-09_17h51.10.025,fluency,2022.2.4,Win32,59.95203837,,,,,,,,,,,,,,,,,,,,,,,6,3,img/B03_06.jpg,MF,Press J if the face is FEMALE and K if the face is MALE, ,KJ,,,,,,,,,,,,,,,,,,,,,,,,,,,,,,,,,,,,,,,,,,,,,,,,,,,,,850.182,0,72,72,28,1,109,0,0,0,0,1,98,,,,,,,,,,,,,,,,,,,,,,,,,,,,,,,,,,,,,,,,,,,,,,,,,,,,,,,,,,,,,,,,,,,,,,,,
,,,,992485,001,2023-10-09_17h51.10.025,fluency,2022.2.4,Win32,59.95203837,,,,,,,,,,,,,,,,,,,,,,,,,,,,,,,,,,,,,,,,,,,,,,,,,,,,,,,,,,,,,,,,,,,,,,,,,,,,,,,,,,,,,,,,,0,0,0,0,1,,"[""j""]",[0.8999999999999773],5,"[""j""]",[0.8999999999999773],,,,,,,,,,,,,,,,,,,,,,,,,,,,,,,,,,,,,,,,,,,,,,,,,,,,,,,,,,,,,,,,,,,
,,,,992485,001,2023-10-09_17h51.10.025,fluency,2022.2.4,Win32,59.95203837,,,,,,,,,,,,,,,,,,,,,,,6,3,img/B03_06.jpg,MF,Press J if the face is FEMALE and K if the face is MALE, ,KJ,,,,,,,,,,,,,,,,,,,,,,,,,,,,,,,,,,,,,,,4,4.426,,,,,,,,,,,,,,0,72,72,28,1,,,,,,,,,,,,,space,0.624,,,,,,,,,,,,,,,,,,,,,,,,,,,,,,,,,,,,,,,,,,,,,,,,,,,,,,,,,,,,,,,,,
,,,,992485,001,2023-10-09_17h51.10.025,fluency,2022.2.4,Win32,59.95203837,,,,,,,,,,,,,,,,,,,,,,,9,10,img/B10_09.jpg,MF,Press J if the face is FEMALE and K if the face is MALE, ,KJ,,,,,,,,,,,,,,,,,,,,,,,,,,,,,,,,,,,,,,,,,,,,,,,,,,,,,860.259,0,73,73,108,1,109,0,0,0,0,1,98,,,,,,,,,,,,,,,,,,,,,,,,,,,,,,,,,,,,,,,,,,,,,,,,,,,,,,,,,,,,,,,,,,,,,,,,
,,,,992485,001,2023-10-09_17h51.10.025,fluency,2022.2.4,Win32,59.95203837,,,,,,,,,,,,,,,,,,,,,,,,,,,,,,,,,,,,,,,,,,,,,,,,,,,,,,,,,,,,,,,,,,,,,,,,,,,,,,,,,,,,,,,,,0,0,0,0,1,,"[""j""]",[1.393000000000029],5,"[""j""]",[1.393000000000029],,,,,,,,,,,,,,,,,,,,,,,,,,,,,,,,,,,,,,,,,,,,,,,,,,,,,,,,,,,,,,,,,,,
,,,,992485,001,2023-10-09_17h51.10.025,fluency,2022.2.4,Win32,59.95203837,,,,,,,,,,,,,,,,,,,,,,,9,10,img/B10_09.jpg,MF,Press J if the face is FEMALE and K if the face is MALE, ,KJ,,,,,,,,,,,,,,,,,,,,,,,,,,,,,,,,,,,,,,,3,0.667,,,,,,,,,,,,,,0,73,73,108,1,,,,,,,,,,,,,space,0.551,,,,,,,,,,,,,,,,,,,,,,,,,,,,,,,,,,,,,,,,,,,,,,,,,,,,,,,,,,,,,,,,,
,,,,992485,001,2023-10-09_17h51.10.025,fluency,2022.2.4,Win32,59.95203837,,,,,,,,,,,,,,,,,,,,,,,1,1,img/B01_01.jpg,MF,Press J if the face is FEMALE and K if the face is MALE, ,KJ,,,,,,,,,,,,,,,,,,,,,,,,,,,,,,,,,,,,,,,,,,,,,,,,,,,,,866.516,0,74,74,1,1,109,0,0,0,0,1,98,,,,,,,,,,,,,,,,,,,,,,,,,,,,,,,,,,,,,,,,,,,,,,,,,,,,,,,,,,,,,,,,,,,,,,,,
,,,,992485,001,2023-10-09_17h51.10.025,fluency,2022.2.4,Win32,59.95203837,,,,,,,,,,,,,,,,,,,,,,,,,,,,,,,,,,,,,,,,,,,,,,,,,,,,,,,,,,,,,,,,,,,,,,,,,,,,,,,,,,,,,,,,,0,0,0,0,1,,"[""k""]",[0.6399999999999864],5,"[""k""]",[0.6399999999999864],,,,,,,,,,,,,,,,,,,,,,,,,,,,,,,,,,,,,,,,,,,,,,,,,,,,,,,,,,,,,,,,,,,
,,,,992485,001,2023-10-09_17h51.10.025,fluency,2022.2.4,Win32,59.95203837,,,,,,,,,,,,,,,,,,,,,,,1,1,img/B01_01.jpg,MF,Press J if the face is FEMALE and K if the face is MALE, ,KJ,,,,,,,,,,,,,,,,,,,,,,,,,,,,,,,,,,,,,,,4,0.403,,,,,,,,,,,,,,0,74,74,1,1,,,,,,,,,,,,,space,0.52,,,,,,,,,,,,,,,,,,,,,,,,,,,,,,,,,,,,,,,,,,,,,,,,,,,,,,,,,,,,,,,,,
,,,,992485,001,2023-10-09_17h51.10.025,fluency,2022.2.4,Win32,59.95203837,,,,,,,,,,,,,,,,,,,,,,,7,1,img/B01_07.jpg,MF,Press J if the face is FEMALE and K if the face is MALE, ,KJ,,,,,,,,,,,,,,,,,,,,,,,,,,,,,,,,,,,,,,,,,,,,,,,,,,,,,872.472,0,75,75,7,1,109,0,0,0,0,1,98,,,,,,,,,,,,,,,,,,,,,,,,,,,,,,,,,,,,,,,,,,,,,,,,,,,,,,,,,,,,,,,,,,,,,,,,
,,,,992485,001,2023-10-09_17h51.10.025,fluency,2022.2.4,Win32,59.95203837,,,,,,,,,,,,,,,,,,,,,,,,,,,,,,,,,,,,,,,,,,,,,,,,,,,,,,,,,,,,,,,,,,,,,,,,,,,,,,,,,,,,,,,,,0,0,0,0,1,,"[""j""]",[0.6999999999999318],5,"[""j""]",[0.6999999999999318],,,,,,,,,,,,,,,,,,,,,,,,,,,,,,,,,,,,,,,,,,,,,,,,,,,,,,,,,,,,,,,,,,,
,,,,992485,001,2023-10-09_17h51.10.025,fluency,2022.2.4,Win32,59.95203837,,,,,,,,,,,,,,,,,,,,,,,7,1,img/B01_07.jpg,MF,Press J if the face is FEMALE and K if the face is MALE, ,KJ,,,,,,,,,,,,,,,,,,,,,,,,,,,,,,,,,,,,,,,3,2.758,,,,,,,,,,,,,,0,75,75,7,1,,,,,,,,,,,,,space,0.307,,,,,,,,,,,,,,,,,,,,,,,,,,,,,,,,,,,,,,,,,,,,,,,,,,,,,,,,,,,,,,,,,
,,,,992485,001,2023-10-09_17h51.10.025,fluency,2022.2.4,Win32,59.95203837,,,,,,,,,,,,,,,,,,,,,,,6,4,img/B04_06.jpg,MF,Press J if the face is FEMALE and K if the face is MALE, ,KJ,,,,,,,,,,,,,,,,,,,,,,,,,,,,,,,,,,,,,,,,,,,,,,,,,,,,,879.562,0,76,76,39,1,109,0,0,0,0,1,98,,,,,,,,,,,,,,,,,,,,,,,,,,,,,,,,,,,,,,,,,,,,,,,,,,,,,,,,,,,,,,,,,,,,,,,,
,,,,992485,001,2023-10-09_17h51.10.025,fluency,2022.2.4,Win32,59.95203837,,,,,,,,,,,,,,,,,,,,,,,,,,,,,,,,,,,,,,,,,,,,,,,,,,,,,,,,,,,,,,,,,,,,,,,,,,,,,,,,,,,,,,,,,0,0,0,0,1,,"[""j""]",[1.2100000000000364],5,"[""j""]",[1.2100000000000364],,,,,,,,,,,,,,,,,,,,,,,,,,,,,,,,,,,,,,,,,,,,,,,,,,,,,,,,,,,,,,,,,,,
,,,,992485,001,2023-10-09_17h51.10.025,fluency,2022.2.4,Win32,59.95203837,,,,,,,,,,,,,,,,,,,,,,,6,4,img/B04_06.jpg,MF,Press J if the face is FEMALE and K if the face is MALE, ,KJ,,,,,,,,,,,,,,,,,,,,,,,,,,,,,,,,,,,,,,,1,1.164,,,,,,,,,,,,,,0,76,76,39,1,,,,,,,,,,,,,space,1.906,,,,,,,,,,,,,,,,,,,,,,,,,,,,,,,,,,,,,,,,,,,,,,,,,,,,,,,,,,,,,,,,,
,,,,992485,001,2023-10-09_17h51.10.025,fluency,2022.2.4,Win32,59.95203837,,,,,,,,,,,,,,,,,,,,,,,4,10,img/B10_04.jpg,MF,Press J if the face is FEMALE and K if the face is MALE, ,KJ,,,,,,,,,,,,,,,,,,,,,,,,,,,,,,,,,,,,,,,,,,,,,,,,,,,,,886.669,0,77,77,103,1,109,0,0,0,0,1,98,,,,,,,,,,,,,,,,,,,,,,,,,,,,,,,,,,,,,,,,,,,,,,,,,,,,,,,,,,,,,,,,,,,,,,,,
,,,,992485,001,2023-10-09_17h51.10.025,fluency,2022.2.4,Win32,59.95203837,,,,,,,,,,,,,,,,,,,,,,,,,,,,,,,,,,,,,,,,,,,,,,,,,,,,,,,,,,,,,,,,,,,,,,,,,,,,,,,,,,,,,,,,,0,0,0,0,1,,"[""k""]",[0.9679999999999609],5,"[""k""]",[0.9679999999999609],,,,,,,,,,,,,,,,,,,,,,,,,,,,,,,,,,,,,,,,,,,,,,,,,,,,,,,,,,,,,,,,,,,
,,,,992485,001,2023-10-09_17h51.10.025,fluency,2022.2.4,Win32,59.95203837,,,,,,,,,,,,,,,,,,,,,,,4,10,img/B10_04.jpg,MF,Press J if the face is FEMALE and K if the face is MALE, ,KJ,,,,,,,,,,,,,,,,,,,,,,,,,,,,,,,,,,,,,,,3,0.227,,,,,,,,,,,,,,0,77,77,103,1,,,,,,,,,,,,,space,0.517,,,,,,,,,,,,,,,,,,,,,,,,,,,,,,,,,,,,,,,,,,,,,,,,,,,,,,,,,,,,,,,,,
,,,,992485,001,2023-10-09_17h51.10.025,fluency,2022.2.4,Win32,59.95203837,,,,,,,,,,,,,,,,,,,,,,,5,8,img/B08_05.jpg,MF,Press J if the face is FEMALE and K if the face is MALE, ,KJ,,,,,,,,,,,,,,,,,,,,,,,,,,,,,,,,,,,,,,,,,,,,,,,,,,,,,892.458,0,78,78,82,1,109,0,0,0,0,1,98,,,,,,,,,,,,,,,,,,,,,,,,,,,,,,,,,,,,,,,,,,,,,,,,,,,,,,,,,,,,,,,,,,,,,,,,
,,,,992485,001,2023-10-09_17h51.10.025,fluency,2022.2.4,Win32,59.95203837,,,,,,,,,,,,,,,,,,,,,,,,,,,,,,,,,,,,,,,,,,,,,,,,,,,,,,,,,,,,,,,,,,,,,,,,,,,,,,,,,,,,,,,,,0,0,0,0,1,,"[""k""]",[1.12399999999991],5,"[""k""]",[1.12399999999991],,,,,,,,,,,,,,,,,,,,,,,,,,,,,,,,,,,,,,,,,,,,,,,,,,,,,,,,,,,,,,,,,,,
,,,,992485,001,2023-10-09_17h51.10.025,fluency,2022.2.4,Win32,59.95203837,,,,,,,,,,,,,,,,,,,,,,,5,8,img/B08_05.jpg,MF,Press J if the face is FEMALE and K if the face is MALE, ,KJ,,,,,,,,,,,,,,,,,,,,,,,,,,,,,,,,,,,,,,,3,0.516,,,,,,,,,,,,,,0,78,78,82,1,,,,,,,,,,,,,space,0.341,,,,,,,,,,,,,,,,,,,,,,,,,,,,,,,,,,,,,,,,,,,,,,,,,,,,,,,,,,,,,,,,,
,,,,992485,001,2023-10-09_17h51.10.025,fluency,2022.2.4,Win32,59.95203837,,,,,,,,,,,,,,,,,,,,,,,9,7,img/B07_09.jpg,MF,Press J if the face is FEMALE and K if the face is MALE, ,KJ,,,,,,,,,,,,,,,,,,,,,,,,,,,,,,,,,,,,,,,,,,,,,,,,,,,,,898.347,0,79,79,75,1,109,0,0,0,0,1,98,,,,,,,,,,,,,,,,,,,,,,,,,,,,,,,,,,,,,,,,,,,,,,,,,,,,,,,,,,,,,,,,,,,,,,,,
,,,,992485,001,2023-10-09_17h51.10.025,fluency,2022.2.4,Win32,59.95203837,,,,,,,,,,,,,,,,,,,,,,,,,,,,,,,,,,,,,,,,,,,,,,,,,,,,,,,,,,,,,,,,,,,,,,,,,,,,,,,,,,,,,,,,,0,0,0,0,1,,"[""j""]",[0.8729999999999336],5,"[""j""]",[0.8729999999999336],,,,,,,,,,,,,,,,,,,,,,,,,,,,,,,,,,,,,,,,,,,,,,,,,,,,,,,,,,,,,,,,,,,
,,,,992485,001,2023-10-09_17h51.10.025,fluency,2022.2.4,Win32,59.95203837,,,,,,,,,,,,,,,,,,,,,,,9,7,img/B07_09.jpg,MF,Press J if the face is FEMALE and K if the face is MALE, ,KJ,,,,,,,,,,,,,,,,,,,,,,,,,,,,,,,,,,,,,,,4,0.889,,,,,,,,,,,,,,0,79,79,75,1,,,,,,,,,,,,,space,0.436,,,,,,,,,,,,,,,,,,,,,,,,,,,,,,,,,,,,,,,,,,,,,,,,,,,,,,,,,,,,,,,,,
,,,,992485,001,2023-10-09_17h51.10.025,fluency,2022.2.4,Win32,59.95203837,,,,,,,,,,,,,,,,,,,,,,,1,7,img/B07_01.jpg,MF,Press J if the face is FEMALE and K if the face is MALE, ,KJ,,,,,,,,,,,,,,,,,,,,,,,,,,,,,,,,,,,,,,,,,,,,,,,,,,,,,903.703,0,80,80,67,1,109,0,0,0,0,1,98,,,,,,,,,,,,,,,,,,,,,,,,,,,,,,,,,,,,,,,,,,,,,,,,,,,,,,,,,,,,,,,,,,,,,,,,
,,,,992485,001,2023-10-09_17h51.10.025,fluency,2022.2.4,Win32,59.95203837,,,,,,,,,,,,,,,,,,,,,,,,,,,,,,,,,,,,,,,,,,,,,,,,,,,,,,,,,,,,,,,,,,,,,,,,,,,,,,,,,,,,,,,,,0,0,0,0,1,,"[""k""]",[0.8859999999999673],5,"[""k""]",[0.8849999999999909],,,,,,,,,,,,,,,,,,,,,,,,,,,,,,,,,,,,,,,,,,,,,,,,,,,,,,,,,,,,,,,,,,,
,,,,992485,001,2023-10-09_17h51.10.025,fluency,2022.2.4,Win32,59.95203837,,,,,,,,,,,,,,,,,,,,,,,1,7,img/B07_01.jpg,MF,Press J if the face is FEMALE and K if the face is MALE, ,KJ,,,,,,,,,,,,,,,,,,,,,,,,,,,,,,,,,,,,,,,3,0.415,,,,,,,,,,,,,,0,80,80,67,1,,,,,,,,,,,,,space,0.492,,,,,,,,,,,,,,,,,,,,,,,,,,,,,,,,,,,,,,,,,,,,,,,,,,,,,,,,,,,,,,,,,
,,,,992485,001,2023-10-09_17h51.10.025,fluency,2022.2.4,Win32,59.95203837,,,,,,,,,,,,,,,,,,,,,,,3,9,img/B09_03.jpg,MF,Press J if the face is FEMALE and K if the face is MALE, ,KJ,,,,,,,,,,,,,,,,,,,,,,,,,,,,,,,,,,,,,,,,,,,,,,,,,,,,,908.641,0,81,81,91,1,109,0,0,0,0,1,98,,,,,,,,,,,,,,,,,,,,,,,,,,,,,,,,,,,,,,,,,,,,,,,,,,,,,,,,,,,,,,,,,,,,,,,,
,,,,992485,001,2023-10-09_17h51.10.025,fluency,2022.2.4,Win32,59.95203837,,,,,,,,,,,,,,,,,,,,,,,,,,,,,,,,,,,,,,,,,,,,,,,,,,,,,,,,,,,,,,,,,,,,,,,,,,,,,,,,,,,,,,,,,0,0,0,0,1,,"[""k""]",[0.9650000000000318],5,"[""k""]",[0.9650000000000318],,,,,,,,,,,,,,,,,,,,,,,,,,,,,,,,,,,,,,,,,,,,,,,,,,,,,,,,,,,,,,,,,,,
,,,,992485,001,2023-10-09_17h51.10.025,fluency,2022.2.4,Win32,59.95203837,,,,,,,,,,,,,,,,,,,,,,,3,9,img/B09_03.jpg,MF,Press J if the face is FEMALE and K if the face is MALE, ,KJ,,,,,,,,,,,,,,,,,,,,,,,,,,,,,,,,,,,,,,,3,1.801,,,,,,,,,,,,,,0,81,81,91,1,,,,,,,,,,,,,space,1.811,,,,,,,,,,,,,,,,,,,,,,,,,,,,,,,,,,,,,,,,,,,,,,,,,,,,,,,,,,,,,,,,,
,,,,992485,001,2023-10-09_17h51.10.025,fluency,2022.2.4,Win32,59.95203837,,,,,,,,,,,,,,,,,,,,,,,9,3,img/B03_09.jpg,MF,Press J if the face is FEMALE and K if the face is MALE, ,KJ,,,,,,,,,,,,,,,,,,,,,,,,,,,,,,,,,,,,,,,,,,,,,,,,,,,,,916.282,0,82,82,31,1,109,0,0,0,0,1,98,,,,,,,,,,,,,,,,,,,,,,,,,,,,,,,,,,,,,,,,,,,,,,,,,,,,,,,,,,,,,,,,,,,,,,,,
,,,,992485,001,2023-10-09_17h51.10.025,fluency,2022.2.4,Win32,59.95203837,,,,,,,,,,,,,,,,,,,,,,,,,,,,,,,,,,,,,,,,,,,,,,,,,,,,,,,,,,,,,,,,,,,,,,,,,,,,,,,,,,,,,,,,,0,0,0,0,1,,"[""j""]",[0.7060000000000173],5,"[""j""]",[0.7060000000000173],,,,,,,,,,,,,,,,,,,,,,,,,,,,,,,,,,,,,,,,,,,,,,,,,,,,,,,,,,,,,,,,,,,
,,,,992485,001,2023-10-09_17h51.10.025,fluency,2022.2.4,Win32,59.95203837,,,,,,,,,,,,,,,,,,,,,,,9,3,img/B03_09.jpg,MF,Press J if the face is FEMALE and K if the face is MALE, ,KJ,,,,,,,,,,,,,,,,,,,,,,,,,,,,,,,,,,,,,,,4,0.364,,,,,,,,,,,,,,0,82,82,31,1,,,,,,,,,,,,,space,0.66,,,,,,,,,,,,,,,,,,,,,,,,,,,,,,,,,,,,,,,,,,,,,,,,,,,,,,,,,,,,,,,,,
,,,,992485,001,2023-10-09_17h51.10.025,fluency,2022.2.4,Win32,59.95203837,,,,,,,,,,,,,,,,,,,,,,,8,10,img/B10_08.jpg,MF,Press J if the face is FEMALE and K if the face is MALE, ,KJ,,,,,,,,,,,,,,,,,,,,,,,,,,,,,,,,,,,,,,,,,,,,,,,,,,,,,921.337,0,83,83,107,1,109,0,0,0,0,1,98,,,,,,,,,,,,,,,,,,,,,,,,,,,,,,,,,,,,,,,,,,,,,,,,,,,,,,,,,,,,,,,,,,,,,,,,
,,,,992485,001,2023-10-09_17h51.10.025,fluency,2022.2.4,Win32,59.95203837,,,,,,,,,,,,,,,,,,,,,,,,,,,,,,,,,,,,,,,,,,,,,,,,,,,,,,,,,,,,,,,,,,,,,,,,,,,,,,,,,,,,,,,,,0,0,0,0,1,,"[""j""]",[0.8269999999999982],5,"[""j""]",[0.8269999999999982],,,,,,,,,,,,,,,,,,,,,,,,,,,,,,,,,,,,,,,,,,,,,,,,,,,,,,,,,,,,,,,,,,,
,,,,992485,001,2023-10-09_17h51.10.025,fluency,2022.2.4,Win32,59.95203837,,,,,,,,,,,,,,,,,,,,,,,8,10,img/B10_08.jpg,MF,Press J if the face is FEMALE and K if the face is MALE, ,KJ,,,,,,,,,,,,,,,,,,,,,,,,,,,,,,,,,,,,,,,3,0.254,,,,,,,,,,,,,,0,83,83,107,1,,,,,,,,,,,,,space,0.529,,,,,,,,,,,,,,,,,,,,,,,,,,,,,,,,,,,,,,,,,,,,,,,,,,,,,,,,,,,,,,,,,
,,,,992485,001,2023-10-09_17h51.10.025,fluency,2022.2.4,Win32,59.95203837,,,,,,,,,,,,,,,,,,,,,,,8,5,img/B05_08.jpg,MF,Press J if the face is FEMALE and K if the face is MALE, ,KJ,,,,,,,,,,,,,,,,,,,,,,,,,,,,,,,,,,,,,,,,,,,,,,,,,,,,,927.143,0,84,84,52,1,109,0,0,0,0,1,98,,,,,,,,,,,,,,,,,,,,,,,,,,,,,,,,,,,,,,,,,,,,,,,,,,,,,,,,,,,,,,,,,,,,,,,,
,,,,992485,001,2023-10-09_17h51.10.025,fluency,2022.2.4,Win32,59.95203837,,,,,,,,,,,,,,,,,,,,,,,,,,,,,,,,,,,,,,,,,,,,,,,,,,,,,,,,,,,,,,,,,,,,,,,,,,,,,,,,,,,,,,,,,0,0,0,0,1,,"[""j""]",[0.7989999999999782],5,"[""j""]",[0.7989999999999782],,,,,,,,,,,,,,,,,,,,,,,,,,,,,,,,,,,,,,,,,,,,,,,,,,,,,,,,,,,,,,,,,,,
,,,,992485,001,2023-10-09_17h51.10.025,fluency,2022.2.4,Win32,59.95203837,,,,,,,,,,,,,,,,,,,,,,,8,5,img/B05_08.jpg,MF,Press J if the face is FEMALE and K if the face is MALE, ,KJ,,,,,,,,,,,,,,,,,,,,,,,,,,,,,,,,,,,,,,,4,0.417,,,,,,,,,,,,,,0,84,84,52,1,,,,,,,,,,,,,space,0.669,,,,,,,,,,,,,,,,,,,,,,,,,,,,,,,,,,,,,,,,,,,,,,,,,,,,,,,,,,,,,,,,,
,,,,992485,001,2023-10-09_17h51.10.025,fluency,2022.2.4,Win32,59.95203837,,,,,,,,,,,,,,,,,,,,,,,5,6,img/B06_05.jpg,MF,Press J if the face is FEMALE and K if the face is MALE, ,KJ,,,,,,,,,,,,,,,,,,,,,,,,,,,,,,,,,,,,,,,,,,,,,,,,,,,,,932.264,0,85,85,60,1,109,0,0,0,0,1,98,,,,,,,,,,,,,,,,,,,,,,,,,,,,,,,,,,,,,,,,,,,,,,,,,,,,,,,,,,,,,,,,,,,,,,,,
,,,,992485,001,2023-10-09_17h51.10.025,fluency,2022.2.4,Win32,59.95203837,,,,,,,,,,,,,,,,,,,,,,,,,,,,,,,,,,,,,,,,,,,,,,,,,,,,,,,,,,,,,,,,,,,,,,,,,,,,,,,,,,,,,,,,,0,0,0,0,1,,"[""j"",""k"",""k"",""k"",""k"",""k"",""k""]","[1.6920000000000073,2.036000000000058,2.229000000000042,2.40400000000011,2.55600000000004,2.7080000000000837,2.852000000000089]",5,"[""j"",""k"",""k"",""k"",""k"",""k"",""k""]","[1.6920000000000073,2.036000000000058,2.229000000000042,2.40400000000011,2.55600000000004,2.7080000000000837,2.852000000000089]",,,,,,,,,,,,,,,,,,,,,,,,,,,,,,,,,,,,,,,,,,,,,,,,,,,,,,,,,,,,,,,,,,,
,,,,992485,001,2023-10-09_17h51.10.025,fluency,2022.2.4,Win32,59.95203837,,,,,,,,,,,,,,,,,,,,,,,5,6,img/B06_05.jpg,MF,Press J if the face is FEMALE and K if the face is MALE, ,KJ,,,,,,,,,,,,,,,,,,,,,,,,,,,,,,,,,,,,,,,3,4.324,,,,,,,,,,,,,,0,85,85,60,1,,,,,,,,,,,,,space,0.627,,,,,,,,,,,,,,,,,,,,,,,,,,,,,,,,,,,,,,,,,,,,,,,,,,,,,,,,,,,,,,,,,
,,,,992485,001,2023-10-09_17h51.10.025,fluency,2022.2.4,Win32,59.95203837,,,,,,,,,,,,,,,,,,,,,,,8,8,img/B08_08.jpg,MF,Press J if the face is FEMALE and K if the face is MALE, ,KJ,,,,,,,,,,,,,,,,,,,,,,,,,,,,,,,,,,,,,,,,,,,,,,,,,,,,,941.24,0,86,86,85,1,109,0,0,0,0,1,98,,,,,,,,,,,,,,,,,,,,,,,,,,,,,,,,,,,,,,,,,,,,,,,,,,,,,,,,,,,,,,,,,,,,,,,,
,,,,992485,001,2023-10-09_17h51.10.025,fluency,2022.2.4,Win32,59.95203837,,,,,,,,,,,,,,,,,,,,,,,,,,,,,,,,,,,,,,,,,,,,,,,,,,,,,,,,,,,,,,,,,,,,,,,,,,,,,,,,,,,,,,,,,0,0,0,0,1,,"[""k""]",[0.91599999999994],5,"[""k""]",[0.91599999999994],,,,,,,,,,,,,,,,,,,,,,,,,,,,,,,,,,,,,,,,,,,,,,,,,,,,,,,,,,,,,,,,,,,
,,,,992485,001,2023-10-09_17h51.10.025,fluency,2022.2.4,Win32,59.95203837,,,,,,,,,,,,,,,,,,,,,,,8,8,img/B08_08.jpg,MF,Press J if the face is FEMALE and K if the face is MALE, ,KJ,,,,,,,,,,,,,,,,,,,,,,,,,,,,,,,,,,,,,,,3,1.718,,,,,,,,,,,,,,0,86,86,85,1,,,,,,,,,,,,,space,1.045,,,,,,,,,,,,,,,,,,,,,,,,,,,,,,,,,,,,,,,,,,,,,,,,,,,,,,,,,,,,,,,,,
,,,,992485,001,2023-10-09_17h51.10.025,fluency,2022.2.4,Win32,59.95203837,,,,,,,,,,,,,,,,,,,,,,,2,7,img/B07_02.jpg,MF,Press J if the face is FEMALE and K if the face is MALE, ,KJ,,,,,,,,,,,,,,,,,,,,,,,,,,,,,,,,,,,,,,,,,,,,,,,,,,,,,948.03,0,87,87,68,1,109,0,0,0,0,1,98,,,,,,,,,,,,,,,,,,,,,,,,,,,,,,,,,,,,,,,,,,,,,,,,,,,,,,,,,,,,,,,,,,,,,,,,
,,,,992485,001,2023-10-09_17h51.10.025,fluency,2022.2.4,Win32,59.95203837,,,,,,,,,,,,,,,,,,,,,,,,,,,,,,,,,,,,,,,,,,,,,,,,,,,,,,,,,,,,,,,,,,,,,,,,,,,,,,,,,,,,,,,,,0,0,0,0,1,,"[""k""]",[0.6309999999999718],5,"[""k""]",[0.6309999999999718],,,,,,,,,,,,,,,,,,,,,,,,,,,,,,,,,,,,,,,,,,,,,,,,,,,,,,,,,,,,,,,,,,,
,,,,992485,001,2023-10-09_17h51.10.025,fluency,2022.2.4,Win32,59.95203837,,,,,,,,,,,,,,,,,,,,,,,2,7,img/B07_02.jpg,MF,Press J if the face is FEMALE and K if the face is MALE, ,KJ,,,,,,,,,,,,,,,,,,,,,,,,,,,,,,,,,,,,,,,3,0.92,,,,,,,,,,,,,,0,87,87,68,1,,,,,,,,,,,,,space,0.719,,,,,,,,,,,,,,,,,,,,,,,,,,,,,,,,,,,,,,,,,,,,,,,,,,,,,,,,,,,,,,,,,
,,,,992485,001,2023-10-09_17h51.10.025,fluency,2022.2.4,Win32,59.95203837,,,,,,,,,,,,,,,,,,,,,,,5,9,img/B09_05.jpg,MF,Press J if the face is FEMALE and K if the face is MALE, ,KJ,,,,,,,,,,,,,,,,,,,,,,,,,,,,,,,,,,,,,,,,,,,,,,,,,,,,,953.703,0,88,88,93,1,109,0,0,0,0,1,98,,,,,,,,,,,,,,,,,,,,,,,,,,,,,,,,,,,,,,,,,,,,,,,,,,,,,,,,,,,,,,,,,,,,,,,,
,,,,992485,001,2023-10-09_17h51.10.025,fluency,2022.2.4,Win32,59.95203837,,,,,,,,,,,,,,,,,,,,,,,,,,,,,,,,,,,,,,,,,,,,,,,,,,,,,,,,,,,,,,,,,,,,,,,,,,,,,,,,,,,,,,,,,0,0,0,0,1,,"[""k""]",[1.1179999999999382],5,"[""k""]",[1.1179999999999382],,,,,,,,,,,,,,,,,,,,,,,,,,,,,,,,,,,,,,,,,,,,,,,,,,,,,,,,,,,,,,,,,,,
,,,,992485,001,2023-10-09_17h51.10.025,fluency,2022.2.4,Win32,59.95203837,,,,,,,,,,,,,,,,,,,,,,,5,9,img/B09_05.jpg,MF,Press J if the face is FEMALE and K if the face is MALE, ,KJ,,,,,,,,,,,,,,,,,,,,,,,,,,,,,,,,,,,,,,,3,1.208,,,,,,,,,,,,,,0,88,88,93,1,,,,,,,,,,,,,space,1.036,,,,,,,,,,,,,,,,,,,,,,,,,,,,,,,,,,,,,,,,,,,,,,,,,,,,,,,,,,,,,,,,,
,,,,992485,001,2023-10-09_17h51.10.025,fluency,2022.2.4,Win32,59.95203837,,,,,,,,,,,,,,,,,,,,,,,1,8,img/B08_01.jpg,MF,Press J if the face is FEMALE and K if the face is MALE, ,KJ,,,,,,,,,,,,,,,,,,,,,,,,,,,,,,,,,,,,,,,,,,,,,,,,,,,,,959.976,0,89,89,78,1,109,0,0,0,0,1,98,,,,,,,,,,,,,,,,,,,,,,,,,,,,,,,,,,,,,,,,,,,,,,,,,,,,,,,,,,,,,,,,,,,,,,,,
,,,,992485,001,2023-10-09_17h51.10.025,fluency,2022.2.4,Win32,59.95203837,,,,,,,,,,,,,,,,,,,,,,,,,,,,,,,,,,,,,,,,,,,,,,,,,,,,,,,,,,,,,,,,,,,,,,,,,,,,,,,,,,,,,,,,,0,0,0,0,1,,"[""j""]",[0.7889999999999873],5,"[""j""]",[0.7889999999999873],,,,,,,,,,,,,,,,,,,,,,,,,,,,,,,,,,,,,,,,,,,,,,,,,,,,,,,,,,,,,,,,,,,
,,,,992485,001,2023-10-09_17h51.10.025,fluency,2022.2.4,Win32,59.95203837,,,,,,,,,,,,,,,,,,,,,,,1,8,img/B08_01.jpg,MF,Press J if the face is FEMALE and K if the face is MALE, ,KJ,,,,,,,,,,,,,,,,,,,,,,,,,,,,,,,,,,,,,,,3,0.361,,,,,,,,,,,,,,0,89,89,78,1,,,,,,,,,,,,,space,0.806,,,,,,,,,,,,,,,,,,,,,,,,,,,,,,,,,,,,,,,,,,,,,,,,,,,,,,,,,,,,,,,,,
,,,,992485,001,2023-10-09_17h51.10.025,fluency,2022.2.4,Win32,59.95203837,,,,,,,,,,,,,,,,,,,,,,,7,9,img/B09_07.jpg,MF,Press J if the face is FEMALE and K if the face is MALE, ,KJ,,,,,,,,,,,,,,,,,,,,,,,,,,,,,,,,,,,,,,,,,,,,,,,,,,,,,965.181,0,90,90,95,1,109,0,0,0,0,1,98,,,,,,,,,,,,,,,,,,,,,,,,,,,,,,,,,,,,,,,,,,,,,,,,,,,,,,,,,,,,,,,,,,,,,,,,
,,,,992485,001,2023-10-09_17h51.10.025,fluency,2022.2.4,Win32,59.95203837,,,,,,,,,,,,,,,,,,,,,,,,,,,,,,,,,,,,,,,,,,,,,,,,,,,,,,,,,,,,,,,,,,,,,,,,,,,,,,,,,,,,,,,,,0,0,0,0,1,,"[""j""]",[2.0149999999999864],5,"[""j""]",[2.0149999999999864],,,,,,,,,,,,,,,,,,,,,,,,,,,,,,,,,,,,,,,,,,,,,,,,,,,,,,,,,,,,,,,,,,,
