idTextbox.text,welcomeDone.numClicks,welcomeDone.timesOn,welcomeDone.timesOff,participant,session,date,expName,psychopyVersion,OS,frameRate,consent_advance.keys,consent_advance.rt,consent_advance_2.keys,consent_advance_2.rt,consentClick.x,consentClick.y,consentClick.leftButton,consentClick.midButton,consentClick.rightButton,consentClick.time,consentClick.clicked_name,instr_advance_3.keys,instr_advance_3.rt,spec_instr_adv.keys,spec_instr_adv.rt,spec_instr_adv2.keys,spec_instr_adv2.rt,instrLoop.thisRepN,instrLoop.thisTrialN,instrLoop.thisN,instrLoop.thisIndex,instrLoop.ran,steps,fams,face_file,cond,instr,term,key_map,attnKeyResp1.keys,attnKeyResp1.rt,q1.thisRepN,q1.thisTrialN,q1.thisN,q1.thisIndex,q1.ran,attnKeyResp2.keys,attnKeyResp2.rt,q2.thisRepN,q2.thisTrialN,q2.thisN,q2.thisIndex,q2.ran,attnKeyResp3.keys,attnKeyResp3.rt,q3.thisRepN,q3.thisTrialN,q3.thisN,q3.thisIndex,q3.ran,practiceStart.keys,practiceStart.rt,practiceResp.keys,timesRedone,redo_keypress.keys,redo_keypress.rt,practiceFailed.thisRepN,practiceFailed.thisTrialN,practiceFailed.thisN,practiceFailed.thisIndex,practiceFailed.ran,practiceRepeat.thisRepN,practiceRepeat.thisTrialN,practiceRepeat.thisN,practiceRepeat.thisIndex,practiceRepeat.ran,practiceResp.rt,attrRating.keys,attrRating.rt,practiceTrial.thisRepN,practiceTrial.thisTrialN,practiceTrial.thisN,practiceTrial.thisIndex,practiceTrial.ran,key_resp_3.keys,key_resp_3.rt,attnChecker.thisRepN,attnChecker.thisTrialN,attnChecker.thisN,attnChecker.thisIndex,attnChecker.ran,faceOnsetTime,trials.thisRepN,trials.thisTrialN,trials.thisN,trials.thisIndex,trials.ran,trials.order,repeat_loop.thisRepN,repeat_loop.thisTrialN,repeat_loop.thisN,repeat_loop.thisIndex,repeat_loop.ran,repeat_loop.order,catResp.keys,catResp.rt,globalTimesRedone,catAllKeys.keys,catAllKeys.rt,contResp.keys,contResp.rt,redo_feedback_loop.thisRepN,redo_feedback_loop.thisTrialN,redo_feedback_loop.thisN,redo_feedback_loop.thisIndex,redo_feedback_loop.ran,contResp_2.keys,contResp_2.rt,respQ1.response,respQ1.rt,respQ2.response,respQ2.rt,respQ3.response,respQ3.rt,respQ4.response,respQ4.rt,surveyContinue1.numClicks,surveyContinue1.timesOn,surveyContinue1.timesOff,respQ5.response,respQ5.rt,respQ6.response,respQ6.rt,respQ7.response,respQ7.rt,respQ8.response,respQ8.rt,surveyContinue2.numClicks,surveyContinue2.timesOn,surveyContinue2.timesOff,respQ9.response,respQ9.rt,respQ10.response,respQ10.rt,respQ11.response,respQ11.rt,respQ12.response,respQ12.rt,surveyContinue3.numClicks,surveyContinue3.timesOn,surveyContinue3.timesOff,respQ13.response,respQ13.rt,respQ14.response,respQ14.rt,respQ15.response,respQ15.rt,surveyContinue4.numClicks,surveyContinue4.timesOn,surveyContinue4.timesOff,respAge.response,respAge.rt,genderResp1.response,genderResp1.rt,genderResp2.text,demogexitClick.numClicks,demogexitClick.timesOn,demogexitClick.timesOff,textbox.text,openAnswerClick.numClicks,openAnswerClick.timesOn,openAnswerClick.timesOff,debriefEnd.keys,debriefEnd.rt,exitKey.keys,exitKey.rt
5efb581068397909b01c7603,1,[6.38360000002384],[6.38360000002384],093491,001,2023-10-24_21h31.22.071,fluency,2022.2.5,Win32,119.9184555,,,,,,,,,,,,,,,,,,,,,,,,,,,,,,,,,,,,,,,,,,,,,,,,,,,,,,,,,,,,,,,,,,,,,,,,,,,,,,,,,,,,,,,,,,,,,,,,,,,,,,,,,,,,,,,,,,,,,,,,,,,,,,,,,,,,,,,,,,,,,,,,,,,,,,,,,,,,,,,,,,,,,,
,,,,093491,001,2023-10-24_21h31.22.071,fluency,2022.2.5,Win32,119.9184555,space,0.9072,,,,,,,,,,,,,,,,,,,,,,,,,,,,,,,,,,,,,,,,,,,,,,,,,,,,,,,,,,,,,,,,,,,,,,,,,,,,,,,,,,,,,,,,,,,,,,,,,,,,,,,,,,,,,,,,,,,,,,,,,,,,,,,,,,,,,,,,,,,,,,,,,,,,,,,,,,,,,,,,,,,,
,,,,093491,001,2023-10-24_21h31.22.071,fluency,2022.2.5,Win32,119.9184555,,,space,2.0016,,,,,,,,,,,,,,,,,,,,,,,,,,,,,,,,,,,,,,,,,,,,,,,,,,,,,,,,,,,,,,,,,,,,,,,,,,,,,,,,,,,,,,,,,,,,,,,,,,,,,,,,,,,,,,,,,,,,,,,,,,,,,,,,,,,,,,,,,,,,,,,,,,,,,,,,,,,,,,,,,,
,,,,093491,001,2023-10-24_21h31.22.071,fluency,2022.2.5,Win32,119.9184555,,,,,0.319444444,-0.32037037,1,0,0,13.1533,iAgree,,,,,,,,,,,,,,,,,,,,,,,,,,,,,,,,,,,,,,,,,,,,,,,,,,,,,,,,,,,,,,,,,,,,,,,,,,,,,,,,,,,,,,,,,,,,,,,,,,,,,,,,,,,,,,,,,,,,,,,,,,,,,,,,,,,,,,,,,,,,,,,,,,,,,,,,,,,
,,,,093491,001,2023-10-24_21h31.22.071,fluency,2022.2.5,Win32,119.9184555,,,,,,,,,,,,space,0.0778,,,,,,,,,,,,,,,,,,,,,,,,,,,,,,,,,,,,,,,,,,,,,,,,,,,,,,,,,,,,,,,,,,,,,,,,,,,,,,,,,,,,,,,,,,,,,,,,,,,,,,,,,,,,,,,,,,,,,,,,,,,,,,,,,,,,,,,,,,,,,,,,,,,,,,,,,
,,,,093491,001,2023-10-24_21h31.22.071,fluency,2022.2.5,Win32,119.9184555,,,,,,,,,,,,,,space,7.3969,space,2.6102,0,0,0,18,1,7,2,img/B02_07.jpg,BLEND,Press J if the face is a BLEND and K if the face is a NON-BLEND,A blend is a computer-generated image created by combining together multiple photos of real human faces. A non-blend is a regular photo of a human face.,JK,,,,,,,,,,,,,,,,,,,,,,,,,,,,,,,,,,,,,,,,,,,,,,,,,,,,,,,,,,,,,,,,,,,,,,,,,,,,,,,,,,,,,,,,,,,,,,,,,,,,,,,,,,,,,,,,,,,,,,,,,,,,,,,,,,,,,,,,,
,,,,093491,001,2023-10-24_21h31.22.071,fluency,2022.2.5,Win32,119.9184555,,,,,,,,,,,,,,,,,,,,,,,,,,,,,,c,2.5109,0,0,0,0,1,,,,,,,,,,,,,,,,,,,,,,,,,,,,,,,,,,,,,,,,,,,,,,,,,,,,,,,,,,,,,,,,,,,,,,,,,,,,,,,,,,,,,,,,,,,,,,,,,,,,,,,,,,,,,,,,,,,,,,,,,,,,,,,,,,
,,,,093491,001,2023-10-24_21h31.22.071,fluency,2022.2.5,Win32,119.9184555,,,,,,,,,,,,,,,,,,,,,,,,,,,,,,,,,,,,,a,1.9324,0,0,0,0,1,,,,,,,,,,,,,,,,,,,,,,,,,,,,,,,,,,,,,,,,,,,,,,,,,,,,,,,,,,,,,,,,,,,,,,,,,,,,,,,,,,,,,,,,,,,,,,,,,,,,,,,,,,,,,,,,,,,,,,,,,,,
,,,,093491,001,2023-10-24_21h31.22.071,fluency,2022.2.5,Win32,119.9184555,,,,,,,,,,,,,,,,,,,,,,,,,,,,,,,,,,,,,,,,,,,,c,5.5698,0,0,0,0,1,,,,,,,,,,,,,,,,,,,,,,,,,,,,,,,,,,,,,,,,,,,,,,,,,,,,,,,,,,,,,,,,,,,,,,,,,,,,,,,,,,,,,,,,,,,,,,,,,,,,,,,,,,,,,,,,,,,,
,,,,093491,001,2023-10-24_21h31.22.071,fluency,2022.2.5,Win32,119.9184555,,,,,,,,,,,,,,,,,,,,,,,,,,,,,,,,,,,,,,,,,,,,,,,,,,,space,0.642,,1,space,3.8375,0,0,0,0,1,,,,,,,,,,,,,,,,,,,,,,,,,,,,,,,,,,,,,,,,,,,,,,,,,,,,,,,,,,,,,,,,,,,,,,,,,,,,,,,,,,,,,,,,,,,,,,,,,,,,,,,,,
,,,,093491,001,2023-10-24_21h31.22.071,fluency,2022.2.5,Win32,119.9184555,,,,,,,,,,,,,,,,,,,,,,,,,,,,,,,,,,,,,,,,,,,,,,,,,,,,,,,,,,,,,,0,0,0,0,1,,,,,,,,,,,,,,,,,,,,,,,,,,,,,,,,,,,,,,,,,,,,,,,,,,,,,,,,,,,,,,,,,,,,,,,,,,,,,,,,,,,,,,,,,,,,,,,,,,,,
,,,,093491,001,2023-10-24_21h31.22.071,fluency,2022.2.5,Win32,119.9184555,,,,,,,,,,,,,,,,,,,,,,,,,,,,,,,,,,,,,,,,,,,,,,,,,,,,,k,1,,,,,,,,1,0,1,0,1,0.5502,,,,,,,,,,,,,,,,,,,,,,,,,,,,,,,,,,,,,,,,,,,,,,,,,,,,,,,,,,,,,,,,,,,,,,,,,,,,,,,,,,,,,,,,,,,,,,,,,,,
,,,,093491,001,2023-10-24_21h31.22.071,fluency,2022.2.5,Win32,119.9184555,,,,,,,,,,,,,,,,,,,,,,,,,,,,,,,,,,,,,,,,,,,,,,,,,,,,,,,,,,,,,,,,,,,,5,6.4892,0,0,0,0,1,,,,,,,,,,,,,,,,,,,,,,,,,,,,,,,,,,,,,,,,,,,,,,,,,,,,,,,,,,,,,,,,,,,,,,,,,,,,,,,,,,,,,,,,,,,,
,,,,093491,001,2023-10-24_21h31.22.071,fluency,2022.2.5,Win32,119.9184555,,,,,,,,,,,,,,,,,,,,,,,,,,,,,,,,,,,,,,,,,,,,,,,,,,,,,,,,,,,,,,,,,,,,,,,,,,,space,6.6188,0,0,0,0,1,,,,,,,,,,,,,,,,,,,,,,,,,,,,,,,,,,,,,,,,,,,,,,,,,,,,,,,,,,,,,,,,,,,,,,,,,,,,,,,,,,,,,
,,,,093491,001,2023-10-24_21h31.22.071,fluency,2022.2.5,Win32,119.9184555,,,,,,,,,,,,,,,,,,,,,,,8,3,img/B03_08.jpg,BLEND,Press J if the face is a BLEND and K if the face is a NON-BLEND,A blend is a computer-generated image created by combining together multiple photos of real human faces. A non-blend is a regular photo of a human face.,JK,,,,,,,,,,,,,,,,,,,,,,,,,,,,,,,,,,,,,,,,,,,,,,,,,,,,,88.3954,0,0,0,30,1,109,0,0,0,0,1,98,,,,,,,,,,,,,,,,,,,,,,,,,,,,,,,,,,,,,,,,,,,,,,,,,,,,,,,,,,,,,,,,,,,,,,,,
,,,,093491,001,2023-10-24_21h31.22.071,fluency,2022.2.5,Win32,119.9184555,,,,,,,,,,,,,,,,,,,,,,,,,,,,,,,,,,,,,,,,,,,,,,,,,,,,,,,,,,,,,,,,,,,,,,,,,,,,,,,,,,,,,,,,,0,0,0,0,1,,"[""k""]",[1.6751999999284806],1,"[""k""]",[1.6750999999046314],,,,,,,,,,,,,,,,,,,,,,,,,,,,,,,,,,,,,,,,,,,,,,,,,,,,,,,,,,,,,,,,,,,
,,,,093491,001,2023-10-24_21h31.22.071,fluency,2022.2.5,Win32,119.9184555,,,,,,,,,,,,,,,,,,,,,,,8,3,img/B03_08.jpg,BLEND,Press J if the face is a BLEND and K if the face is a NON-BLEND,A blend is a computer-generated image created by combining together multiple photos of real human faces. A non-blend is a regular photo of a human face.,JK,,,,,,,,,,,,,,,,,,,,,,,,,,,,,,,,,,,,,,,4,1.3233,,,,,,,,,,,,,,0,0,0,30,1,,,,,,,,,,,,,space,0.9894,,,,,,,,,,,,,,,,,,,,,,,,,,,,,,,,,,,,,,,,,,,,,,,,,,,,,,,,,,,,,,,,,
,,,,093491,001,2023-10-24_21h31.22.071,fluency,2022.2.5,Win32,119.9184555,,,,,,,,,,,,,,,,,,,,,,,3,3,img/B03_03.jpg,BLEND,Press J if the face is a BLEND and K if the face is a NON-BLEND,A blend is a computer-generated image created by combining together multiple photos of real human faces. A non-blend is a regular photo of a human face.,JK,,,,,,,,,,,,,,,,,,,,,,,,,,,,,,,,,,,,,,,,,,,,,,,,,,,,,94.7453,0,1,1,25,1,109,0,0,0,0,1,98,,,,,,,,,,,,,,,,,,,,,,,,,,,,,,,,,,,,,,,,,,,,,,,,,,,,,,,,,,,,,,,,,,,,,,,,
,,,,093491,001,2023-10-24_21h31.22.071,fluency,2022.2.5,Win32,119.9184555,,,,,,,,,,,,,,,,,,,,,,,,,,,,,,,,,,,,,,,,,,,,,,,,,,,,,,,,,,,,,,,,,,,,,,,,,,,,,,,,,,,,,,,,,0,0,0,0,1,,"[""k""]",[0.8298999999761634],1,"[""k""]",[0.8298999999761634],,,,,,,,,,,,,,,,,,,,,,,,,,,,,,,,,,,,,,,,,,,,,,,,,,,,,,,,,,,,,,,,,,,
,,,,093491,001,2023-10-24_21h31.22.071,fluency,2022.2.5,Win32,119.9184555,,,,,,,,,,,,,,,,,,,,,,,3,3,img/B03_03.jpg,BLEND,Press J if the face is a BLEND and K if the face is a NON-BLEND,A blend is a computer-generated image created by combining together multiple photos of real human faces. A non-blend is a regular photo of a human face.,JK,,,,,,,,,,,,,,,,,,,,,,,,,,,,,,,,,,,,,,,4,1.0216,,,,,,,,,,,,,,0,1,1,25,1,,,,,,,,,,,,,space,0.509,,,,,,,,,,,,,,,,,,,,,,,,,,,,,,,,,,,,,,,,,,,,,,,,,,,,,,,,,,,,,,,,,
,,,,093491,001,2023-10-24_21h31.22.071,fluency,2022.2.5,Win32,119.9184555,,,,,,,,,,,,,,,,,,,,,,,3,9,img/B09_03.jpg,BLEND,Press J if the face is a BLEND and K if the face is a NON-BLEND,A blend is a computer-generated image created by combining together multiple photos of real human faces. A non-blend is a regular photo of a human face.,JK,,,,,,,,,,,,,,,,,,,,,,,,,,,,,,,,,,,,,,,,,,,,,,,,,,,,,100.3122,0,2,2,91,1,109,0,0,0,0,1,98,,,,,,,,,,,,,,,,,,,,,,,,,,,,,,,,,,,,,,,,,,,,,,,,,,,,,,,,,,,,,,,,,,,,,,,,
,,,,093491,001,2023-10-24_21h31.22.071,fluency,2022.2.5,Win32,119.9184555,,,,,,,,,,,,,,,,,,,,,,,,,,,,,,,,,,,,,,,,,,,,,,,,,,,,,,,,,,,,,,,,,,,,,,,,,,,,,,,,,,,,,,,,,0,0,0,0,1,,"[""k""]",[0.8628000000715019],1,"[""k"",""space"",""space""]","[0.8628000000715019,1.1773999999761315,2.2308000000715253]",,,,,,,,,,,,,,,,,,,,,,,,,,,,,,,,,,,,,,,,,,,,,,,,,,,,,,,,,,,,,,,,,,,
,,,,093491,001,2023-10-24_21h31.22.071,fluency,2022.2.5,Win32,119.9184555,,,,,,,,,,,,,,,,,,,,,,,3,9,img/B09_03.jpg,BLEND,Press J if the face is a BLEND and K if the face is a NON-BLEND,A blend is a computer-generated image created by combining together multiple photos of real human faces. A non-blend is a regular photo of a human face.,JK,,,,,,,,,,,,,,,,,,,,,,,,,,,,,,,,,,,,,,,4,0.3977,,,,,,,,,,,,,,0,2,2,91,1,,,,,,,,,,,,,space,0.4829,,,,,,,,,,,,,,,,,,,,,,,,,,,,,,,,,,,,,,,,,,,,,,,,,,,,,,,,,,,,,,,,,
,,,,093491,001,2023-10-24_21h31.22.071,fluency,2022.2.5,Win32,119.9184555,,,,,,,,,,,,,,,,,,,,,,,3,8,img/B08_03.jpg,BLEND,Press J if the face is a BLEND and K if the face is a NON-BLEND,A blend is a computer-generated image created by combining together multiple photos of real human faces. A non-blend is a regular photo of a human face.,JK,,,,,,,,,,,,,,,,,,,,,,,,,,,,,,,,,,,,,,,,,,,,,,,,,,,,,106.2288,0,3,3,80,1,109,0,0,0,0,1,98,,,,,,,,,,,,,,,,,,,,,,,,,,,,,,,,,,,,,,,,,,,,,,,,,,,,,,,,,,,,,,,,,,,,,,,,
,,,,093491,001,2023-10-24_21h31.22.071,fluency,2022.2.5,Win32,119.9184555,,,,,,,,,,,,,,,,,,,,,,,,,,,,,,,,,,,,,,,,,,,,,,,,,,,,,,,,,,,,,,,,,,,,,,,,,,,,,,,,,,,,,,,,,0,0,0,0,1,,"[""k""]",[0.5462000000476905],1,"[""k"",""space""]","[0.5462000000476905,0.9453000000715406]",,,,,,,,,,,,,,,,,,,,,,,,,,,,,,,,,,,,,,,,,,,,,,,,,,,,,,,,,,,,,,,,,,,
,,,,093491,001,2023-10-24_21h31.22.071,fluency,2022.2.5,Win32,119.9184555,,,,,,,,,,,,,,,,,,,,,,,3,8,img/B08_03.jpg,BLEND,Press J if the face is a BLEND and K if the face is a NON-BLEND,A blend is a computer-generated image created by combining together multiple photos of real human faces. A non-blend is a regular photo of a human face.,JK,,,,,,,,,,,,,,,,,,,,,,,,,,,,,,,,,,,,,,,4,0.5441,,,,,,,,,,,,,,0,3,3,80,1,,,,,,,,,,,,,space,0.5888,,,,,,,,,,,,,,,,,,,,,,,,,,,,,,,,,,,,,,,,,,,,,,,,,,,,,,,,,,,,,,,,,
,,,,093491,001,2023-10-24_21h31.22.071,fluency,2022.2.5,Win32,119.9184555,,,,,,,,,,,,,,,,,,,,,,,9,1,img/B01_09.jpg,BLEND,Press J if the face is a BLEND and K if the face is a NON-BLEND,A blend is a computer-generated image created by combining together multiple photos of real human faces. A non-blend is a regular photo of a human face.,JK,,,,,,,,,,,,,,,,,,,,,,,,,,,,,,,,,,,,,,,,,,,,,,,,,,,,,112.3875,0,4,4,9,1,109,0,0,0,0,1,98,,,,,,,,,,,,,,,,,,,,,,,,,,,,,,,,,,,,,,,,,,,,,,,,,,,,,,,,,,,,,,,,,,,,,,,,
,,,,093491,001,2023-10-24_21h31.22.071,fluency,2022.2.5,Win32,119.9184555,,,,,,,,,,,,,,,,,,,,,,,,,,,,,,,,,,,,,,,,,,,,,,,,,,,,,,,,,,,,,,,,,,,,,,,,,,,,,,,,,,,,,,,,,0,0,0,0,1,,"[""k""]",[0.6444999999999936],1,"[""k"",""space""]","[0.6444999999999936,0.9628999999761447]",,,,,,,,,,,,,,,,,,,,,,,,,,,,,,,,,,,,,,,,,,,,,,,,,,,,,,,,,,,,,,,,,,,
,,,,093491,001,2023-10-24_21h31.22.071,fluency,2022.2.5,Win32,119.9184555,,,,,,,,,,,,,,,,,,,,,,,9,1,img/B01_09.jpg,BLEND,Press J if the face is a BLEND and K if the face is a NON-BLEND,A blend is a computer-generated image created by combining together multiple photos of real human faces. A non-blend is a regular photo of a human face.,JK,,,,,,,,,,,,,,,,,,,,,,,,,,,,,,,,,,,,,,,3,0.654,,,,,,,,,,,,,,0,4,4,9,1,,,,,,,,,,,,,space,0.4698,,,,,,,,,,,,,,,,,,,,,,,,,,,,,,,,,,,,,,,,,,,,,,,,,,,,,,,,,,,,,,,,,
,,,,093491,001,2023-10-24_21h31.22.071,fluency,2022.2.5,Win32,119.9184555,,,,,,,,,,,,,,,,,,,,,,,0,8,img/B08_00.jpg,BLEND,Press J if the face is a BLEND and K if the face is a NON-BLEND,A blend is a computer-generated image created by combining together multiple photos of real human faces. A non-blend is a regular photo of a human face.,JK,,,,,,,,,,,,,,,,,,,,,,,,,,,,,,,,,,,,,,,,,,,,,,,,,,,,,118.5375,0,5,5,77,1,109,0,0,0,0,1,98,,,,,,,,,,,,,,,,,,,,,,,,,,,,,,,,,,,,,,,,,,,,,,,,,,,,,,,,,,,,,,,,,,,,,,,,
,,,,093491,001,2023-10-24_21h31.22.071,fluency,2022.2.5,Win32,119.9184555,,,,,,,,,,,,,,,,,,,,,,,,,,,,,,,,,,,,,,,,,,,,,,,,,,,,,,,,,,,,,,,,,,,,,,,,,,,,,,,,,,,,,,,,,0,0,0,0,1,,"[""k""]",[0.9316000000238489],1,"[""k"",""space"",""space""]","[0.9316000000238489,1.3826000000238423,1.9987000000477053]",,,,,,,,,,,,,,,,,,,,,,,,,,,,,,,,,,,,,,,,,,,,,,,,,,,,,,,,,,,,,,,,,,,
,,,,093491,001,2023-10-24_21h31.22.071,fluency,2022.2.5,Win32,119.9184555,,,,,,,,,,,,,,,,,,,,,,,0,8,img/B08_00.jpg,BLEND,Press J if the face is a BLEND and K if the face is a NON-BLEND,A blend is a computer-generated image created by combining together multiple photos of real human faces. A non-blend is a regular photo of a human face.,JK,,,,,,,,,,,,,,,,,,,,,,,,,,,,,,,,,,,,,,,4,0.5592,,,,,,,,,,,,,,0,5,5,77,1,,,,,,,,,,,,,space,0.5814,,,,,,,,,,,,,,,,,,,,,,,,,,,,,,,,,,,,,,,,,,,,,,,,,,,,,,,,,,,,,,,,,
,,,,093491,001,2023-10-24_21h31.22.071,fluency,2022.2.5,Win32,119.9184555,,,,,,,,,,,,,,,,,,,,,,,4,2,img/B02_04.jpg,BLEND,Press J if the face is a BLEND and K if the face is a NON-BLEND,A blend is a computer-generated image created by combining together multiple photos of real human faces. A non-blend is a regular photo of a human face.,JK,,,,,,,,,,,,,,,,,,,,,,,,,,,,,,,,,,,,,,,,,,,,,,,,,,,,,123.7044,0,6,6,15,1,109,0,0,0,0,1,98,,,,,,,,,,,,,,,,,,,,,,,,,,,,,,,,,,,,,,,,,,,,,,,,,,,,,,,,,,,,,,,,,,,,,,,,
,,,,093491,001,2023-10-24_21h31.22.071,fluency,2022.2.5,Win32,119.9184555,,,,,,,,,,,,,,,,,,,,,,,,,,,,,,,,,,,,,,,,,,,,,,,,,,,,,,,,,,,,,,,,,,,,,,,,,,,,,,,,,,,,,,,,,0,0,0,0,1,,"[""k""]",[0.41910000002383185],1,"[""k"",""space"",""space""]","[0.41910000002383185,0.8237000000476655,1.5137000000476633]",,,,,,,,,,,,,,,,,,,,,,,,,,,,,,,,,,,,,,,,,,,,,,,,,,,,,,,,,,,,,,,,,,,
,,,,093491,001,2023-10-24_21h31.22.071,fluency,2022.2.5,Win32,119.9184555,,,,,,,,,,,,,,,,,,,,,,,4,2,img/B02_04.jpg,BLEND,Press J if the face is a BLEND and K if the face is a NON-BLEND,A blend is a computer-generated image created by combining together multiple photos of real human faces. A non-blend is a regular photo of a human face.,JK,,,,,,,,,,,,,,,,,,,,,,,,,,,,,,,,,,,,,,,3,3.1101,,,,,,,,,,,,,,0,6,6,15,1,,,,,,,,,,,,,space,3.2091,,,,,,,,,,,,,,,,,,,,,,,,,,,,,,,,,,,,,,,,,,,,,,,,,,,,,,,,,,,,,,,,,
,,,,093491,001,2023-10-24_21h31.22.071,fluency,2022.2.5,Win32,119.9184555,,,,,,,,,,,,,,,,,,,,,,,5,4,img/B04_05.jpg,BLEND,Press J if the face is a BLEND and K if the face is a NON-BLEND,A blend is a computer-generated image created by combining together multiple photos of real human faces. A non-blend is a regular photo of a human face.,JK,,,,,,,,,,,,,,,,,,,,,,,,,,,,,,,,,,,,,,,,,,,,,,,,,,,,,135.0379,0,7,7,38,1,109,0,0,0,0,1,98,,,,,,,,,,,,,,,,,,,,,,,,,,,,,,,,,,,,,,,,,,,,,,,,,,,,,,,,,,,,,,,,,,,,,,,,
,,,,093491,001,2023-10-24_21h31.22.071,fluency,2022.2.5,Win32,119.9184555,,,,,,,,,,,,,,,,,,,,,,,,,,,,,,,,,,,,,,,,,,,,,,,,,,,,,,,,,,,,,,,,,,,,,,,,,,,,,,,,,,,,,,,,,0,0,0,0,1,,"[""k""]",[1.43740000009538],1,"[""k"",""space""]","[1.43740000009538,2.464300000071546]",,,,,,,,,,,,,,,,,,,,,,,,,,,,,,,,,,,,,,,,,,,,,,,,,,,,,,,,,,,,,,,,,,,
,,,,093491,001,2023-10-24_21h31.22.071,fluency,2022.2.5,Win32,119.9184555,,,,,,,,,,,,,,,,,,,,,,,5,4,img/B04_05.jpg,BLEND,Press J if the face is a BLEND and K if the face is a NON-BLEND,A blend is a computer-generated image created by combining together multiple photos of real human faces. A non-blend is a regular photo of a human face.,JK,,,,,,,,,,,,,,,,,,,,,,,,,,,,,,,,,,,,,,,4,0.4944,,,,,,,,,,,,,,0,7,7,38,1,,,,,,,,,,,,,space,0.6579,,,,,,,,,,,,,,,,,,,,,,,,,,,,,,,,,,,,,,,,,,,,,,,,,,,,,,,,,,,,,,,,,
,,,,093491,001,2023-10-24_21h31.22.071,fluency,2022.2.5,Win32,119.9184555,,,,,,,,,,,,,,,,,,,,,,,7,3,img/B03_07.jpg,BLEND,Press J if the face is a BLEND and K if the face is a NON-BLEND,A blend is a computer-generated image created by combining together multiple photos of real human faces. A non-blend is a regular photo of a human face.,JK,,,,,,,,,,,,,,,,,,,,,,,,,,,,,,,,,,,,,,,,,,,,,,,,,,,,,140.2214,0,8,8,29,1,109,0,0,0,0,1,98,,,,,,,,,,,,,,,,,,,,,,,,,,,,,,,,,,,,,,,,,,,,,,,,,,,,,,,,,,,,,,,,,,,,,,,,
,,,,093491,001,2023-10-24_21h31.22.071,fluency,2022.2.5,Win32,119.9184555,,,,,,,,,,,,,,,,,,,,,,,,,,,,,,,,,,,,,,,,,,,,,,,,,,,,,,,,,,,,,,,,,,,,,,,,,,,,,,,,,,,,,,,,,0,0,0,0,1,,"[""k""]",[1.6610999999046214],1,"[""space"",""k""]","[1.3360999999046328,1.6610999999046214]",,,,,,,,,,,,,,,,,,,,,,,,,,,,,,,,,,,,,,,,,,,,,,,,,,,,,,,,,,,,,,,,,,,
,,,,093491,001,2023-10-24_21h31.22.071,fluency,2022.2.5,Win32,119.9184555,,,,,,,,,,,,,,,,,,,,,,,7,3,img/B03_07.jpg,BLEND,Press J if the face is a BLEND and K if the face is a NON-BLEND,A blend is a computer-generated image created by combining together multiple photos of real human faces. A non-blend is a regular photo of a human face.,JK,,,,,,,,,,,,,,,,,,,,,,,,,,,,,,,,,,,,,,,8,0.444,,,,,,,,,,,,,,0,8,8,29,1,,,,,,,,,,,,,space,0.6971,,,,,,,,,,,,,,,,,,,,,,,,,,,,,,,,,,,,,,,,,,,,,,,,,,,,,,,,,,,,,,,,,
,,,,093491,001,2023-10-24_21h31.22.071,fluency,2022.2.5,Win32,119.9184555,,,,,,,,,,,,,,,,,,,,,,,7,6,img/B06_07.jpg,BLEND,Press J if the face is a BLEND and K if the face is a NON-BLEND,A blend is a computer-generated image created by combining together multiple photos of real human faces. A non-blend is a regular photo of a human face.,JK,,,,,,,,,,,,,,,,,,,,,,,,,,,,,,,,,,,,,,,,,,,,,,,,,,,,,145.3881,0,9,9,62,1,109,0,0,0,0,1,98,,,,,,,,,,,,,,,,,,,,,,,,,,,,,,,,,,,,,,,,,,,,,,,,,,,,,,,,,,,,,,,,,,,,,,,,
,,,,093491,001,2023-10-24_21h31.22.071,fluency,2022.2.5,Win32,119.9184555,,,,,,,,,,,,,,,,,,,,,,,,,,,,,,,,,,,,,,,,,,,,,,,,,,,,,,,,,,,,,,,,,,,,,,,,,,,,,,,,,,,,,,,,,0,0,0,0,1,,"[""k""]",[1.2113000000715317],1,"[""k"",""space""]","[1.2113000000715317,1.6280000000000143]",,,,,,,,,,,,,,,,,,,,,,,,,,,,,,,,,,,,,,,,,,,,,,,,,,,,,,,,,,,,,,,,,,,
,,,,093491,001,2023-10-24_21h31.22.071,fluency,2022.2.5,Win32,119.9184555,,,,,,,,,,,,,,,,,,,,,,,7,6,img/B06_07.jpg,BLEND,Press J if the face is a BLEND and K if the face is a NON-BLEND,A blend is a computer-generated image created by combining together multiple photos of real human faces. A non-blend is a regular photo of a human face.,JK,,,,,,,,,,,,,,,,,,,,,,,,,,,,,,,,,,,,,,,9,0.7174,,,,,,,,,,,,,,0,9,9,62,1,,,,,,,,,,,,,space,0.6248,,,,,,,,,,,,,,,,,,,,,,,,,,,,,,,,,,,,,,,,,,,,,,,,,,,,,,,,,,,,,,,,,
,,,,093491,001,2023-10-24_21h31.22.071,fluency,2022.2.5,Win32,119.9184555,,,,,,,,,,,,,,,,,,,,,,,4,7,img/B07_04.jpg,BLEND,Press J if the face is a BLEND and K if the face is a NON-BLEND,A blend is a computer-generated image created by combining together multiple photos of real human faces. A non-blend is a regular photo of a human face.,JK,,,,,,,,,,,,,,,,,,,,,,,,,,,,,,,,,,,,,,,,,,,,,,,,,,,,,151.7549,0,10,10,70,1,109,0,0,0,0,1,98,,,,,,,,,,,,,,,,,,,,,,,,,,,,,,,,,,,,,,,,,,,,,,,,,,,,,,,,,,,,,,,,,,,,,,,,
,,,,093491,001,2023-10-24_21h31.22.071,fluency,2022.2.5,Win32,119.9184555,,,,,,,,,,,,,,,,,,,,,,,,,,,,,,,,,,,,,,,,,,,,,,,,,,,,,,,,,,,,,,,,,,,,,,,,,,,,,,,,,,,,,,,,,0,0,0,0,1,,"[""k""]",[0.7862000000476712],1,"[""k"",""space""]","[0.7863000000715203,1.7212000000476735]",,,,,,,,,,,,,,,,,,,,,,,,,,,,,,,,,,,,,,,,,,,,,,,,,,,,,,,,,,,,,,,,,,,
,,,,093491,001,2023-10-24_21h31.22.071,fluency,2022.2.5,Win32,119.9184555,,,,,,,,,,,,,,,,,,,,,,,4,7,img/B07_04.jpg,BLEND,Press J if the face is a BLEND and K if the face is a NON-BLEND,A blend is a computer-generated image created by combining together multiple photos of real human faces. A non-blend is a regular photo of a human face.,JK,,,,,,,,,,,,,,,,,,,,,,,,,,,,,,,,,,,,,,,3,0.6476,,,,,,,,,,,,,,0,10,10,70,1,,,,,,,,,,,,,space,0.5977,,,,,,,,,,,,,,,,,,,,,,,,,,,,,,,,,,,,,,,,,,,,,,,,,,,,,,,,,,,,,,,,,
,,,,093491,001,2023-10-24_21h31.22.071,fluency,2022.2.5,Win32,119.9184555,,,,,,,,,,,,,,,,,,,,,,,10,8,img/B08_10.jpg,BLEND,Press J if the face is a BLEND and K if the face is a NON-BLEND,A blend is a computer-generated image created by combining together multiple photos of real human faces. A non-blend is a regular photo of a human face.,JK,,,,,,,,,,,,,,,,,,,,,,,,,,,,,,,,,,,,,,,,,,,,,,,,,,,,,157.0217,0,11,11,87,1,109,0,0,0,0,1,98,,,,,,,,,,,,,,,,,,,,,,,,,,,,,,,,,,,,,,,,,,,,,,,,,,,,,,,,,,,,,,,,,,,,,,,,
,,,,093491,001,2023-10-24_21h31.22.071,fluency,2022.2.5,Win32,119.9184555,,,,,,,,,,,,,,,,,,,,,,,,,,,,,,,,,,,,,,,,,,,,,,,,,,,,,,,,,,,,,,,,,,,,,,,,,,,,,,,,,,,,,,,,,0,0,0,0,1,,"[""k""]",[0.7836000000238528],1,"[""k"",""space""]","[0.7835000000000036,1.0343999999761593]",,,,,,,,,,,,,,,,,,,,,,,,,,,,,,,,,,,,,,,,,,,,,,,,,,,,,,,,,,,,,,,,,,,
,,,,093491,001,2023-10-24_21h31.22.071,fluency,2022.2.5,Win32,119.9184555,,,,,,,,,,,,,,,,,,,,,,,10,8,img/B08_10.jpg,BLEND,Press J if the face is a BLEND and K if the face is a NON-BLEND,A blend is a computer-generated image created by combining together multiple photos of real human faces. A non-blend is a regular photo of a human face.,JK,,,,,,,,,,,,,,,,,,,,,,,,,,,,,,,,,,,,,,,1,0.3581,,,,,,,,,,,,,,0,11,11,87,1,,,,,,,,,,,,,space,0.3165,,,,,,,,,,,,,,,,,,,,,,,,,,,,,,,,,,,,,,,,,,,,,,,,,,,,,,,,,,,,,,,,,
,,,,093491,001,2023-10-24_21h31.22.071,fluency,2022.2.5,Win32,119.9184555,,,,,,,,,,,,,,,,,,,,,,,0,2,img/B02_00.jpg,BLEND,Press J if the face is a BLEND and K if the face is a NON-BLEND,A blend is a computer-generated image created by combining together multiple photos of real human faces. A non-blend is a regular photo of a human face.,JK,,,,,,,,,,,,,,,,,,,,,,,,,,,,,,,,,,,,,,,,,,,,,,,,,,,,,162.7218,0,12,12,11,1,109,0,0,0,0,1,98,,,,,,,,,,,,,,,,,,,,,,,,,,,,,,,,,,,,,,,,,,,,,,,,,,,,,,,,,,,,,,,,,,,,,,,,
,,,,093491,001,2023-10-24_21h31.22.071,fluency,2022.2.5,Win32,119.9184555,,,,,,,,,,,,,,,,,,,,,,,,,,,,,,,,,,,,,,,,,,,,,,,,,,,,,,,,,,,,,,,,,,,,,,,,,,,,,,,,,,,,,,,,,0,0,0,0,1,,"[""k"",""j""]","[0.5753999999761561,2.166299999952315]",1,"[""k"",""space"",""j""]","[0.5753999999761561,0.7695999999046421,2.166299999952315]",,,,,,,,,,,,,,,,,,,,,,,,,,,,,,,,,,,,,,,,,,,,,,,,,,,,,,,,,,,,,,,,,,,
,,,,093491,001,2023-10-24_21h31.22.071,fluency,2022.2.5,Win32,119.9184555,,,,,,,,,,,,,,,,,,,,,,,0,2,img/B02_00.jpg,BLEND,Press J if the face is a BLEND and K if the face is a NON-BLEND,A blend is a computer-generated image created by combining together multiple photos of real human faces. A non-blend is a regular photo of a human face.,JK,,,,,,,,,,,,,,,,,,,,,,,,,,,,,,,,,,,,,,,3,1.2116,,,,,,,,,,,,,,0,12,12,11,1,,,,,,,,,,,,,space,0.7949,,,,,,,,,,,,,,,,,,,,,,,,,,,,,,,,,,,,,,,,,,,,,,,,,,,,,,,,,,,,,,,,,
,,,,093491,001,2023-10-24_21h31.22.071,fluency,2022.2.5,Win32,119.9184555,,,,,,,,,,,,,,,,,,,,,,,6,1,img/B01_06.jpg,BLEND,Press J if the face is a BLEND and K if the face is a NON-BLEND,A blend is a computer-generated image created by combining together multiple photos of real human faces. A non-blend is a regular photo of a human face.,JK,,,,,,,,,,,,,,,,,,,,,,,,,,,,,,,,,,,,,,,,,,,,,,,,,,,,,168.7553,0,13,13,6,1,109,0,0,0,0,1,98,,,,,,,,,,,,,,,,,,,,,,,,,,,,,,,,,,,,,,,,,,,,,,,,,,,,,,,,,,,,,,,,,,,,,,,,
,,,,093491,001,2023-10-24_21h31.22.071,fluency,2022.2.5,Win32,119.9184555,,,,,,,,,,,,,,,,,,,,,,,,,,,,,,,,,,,,,,,,,,,,,,,,,,,,,,,,,,,,,,,,,,,,,,,,,,,,,,,,,,,,,,,,,0,0,0,0,1,,"[""j""]",[1.3972000000476896],1,"[""j""]",[1.3972000000476896],,,,,,,,,,,,,,,,,,,,,,,,,,,,,,,,,,,,,,,,,,,,,,,,,,,,,,,,,,,,,,,,,,,
,,,,093491,001,2023-10-24_21h31.22.071,fluency,2022.2.5,Win32,119.9184555,,,,,,,,,,,,,,,,,,,,,,,6,1,img/B01_06.jpg,BLEND,Press J if the face is a BLEND and K if the face is a NON-BLEND,A blend is a computer-generated image created by combining together multiple photos of real human faces. A non-blend is a regular photo of a human face.,JK,,,,,,,,,,,,,,,,,,,,,,,,,,,,,,,,,,,,,,,3,0.7302,,,,,,,,,,,,,,0,13,13,6,1,,,,,,,,,,,,,space,0.6084,,,,,,,,,,,,,,,,,,,,,,,,,,,,,,,,,,,,,,,,,,,,,,,,,,,,,,,,,,,,,,,,,
,,,,093491,001,2023-10-24_21h31.22.071,fluency,2022.2.5,Win32,119.9184555,,,,,,,,,,,,,,,,,,,,,,,6,9,img/B09_06.jpg,BLEND,Press J if the face is a BLEND and K if the face is a NON-BLEND,A blend is a computer-generated image created by combining together multiple photos of real human faces. A non-blend is a regular photo of a human face.,JK,,,,,,,,,,,,,,,,,,,,,,,,,,,,,,,,,,,,,,,,,,,,,,,,,,,,,175.1138,0,14,14,94,1,109,0,0,0,0,1,98,,,,,,,,,,,,,,,,,,,,,,,,,,,,,,,,,,,,,,,,,,,,,,,,,,,,,,,,,,,,,,,,,,,,,,,,
,,,,093491,001,2023-10-24_21h31.22.071,fluency,2022.2.5,Win32,119.9184555,,,,,,,,,,,,,,,,,,,,,,,,,,,,,,,,,,,,,,,,,,,,,,,,,,,,,,,,,,,,,,,,,,,,,,,,,,,,,,,,,,,,,,,,,0,0,0,0,1,,"[""k""]",[1.374200000047665],1,"[""k"",""space""]","[1.374200000047665,2.138200000047675]",,,,,,,,,,,,,,,,,,,,,,,,,,,,,,,,,,,,,,,,,,,,,,,,,,,,,,,,,,,,,,,,,,,
,,,,093491,001,2023-10-24_21h31.22.071,fluency,2022.2.5,Win32,119.9184555,,,,,,,,,,,,,,,,,,,,,,,6,9,img/B09_06.jpg,BLEND,Press J if the face is a BLEND and K if the face is a NON-BLEND,A blend is a computer-generated image created by combining together multiple photos of real human faces. A non-blend is a regular photo of a human face.,JK,,,,,,,,,,,,,,,,,,,,,,,,,,,,,,,,,,,,,,,5,1.3369,,,,,,,,,,,,,,0,14,14,94,1,,,,,,,,,,,,,space,0.5849,,,,,,,,,,,,,,,,,,,,,,,,,,,,,,,,,,,,,,,,,,,,,,,,,,,,,,,,,,,,,,,,,
,,,,093491,001,2023-10-24_21h31.22.071,fluency,2022.2.5,Win32,119.9184555,,,,,,,,,,,,,,,,,,,,,,,6,4,img/B04_06.jpg,BLEND,Press J if the face is a BLEND and K if the face is a NON-BLEND,A blend is a computer-generated image created by combining together multiple photos of real human faces. A non-blend is a regular photo of a human face.,JK,,,,,,,,,,,,,,,,,,,,,,,,,,,,,,,,,,,,,,,,,,,,,,,,,,,,,182.064,0,15,15,39,1,109,0,0,0,0,1,98,,,,,,,,,,,,,,,,,,,,,,,,,,,,,,,,,,,,,,,,,,,,,,,,,,,,,,,,,,,,,,,,,,,,,,,,
,,,,093491,001,2023-10-24_21h31.22.071,fluency,2022.2.5,Win32,119.9184555,,,,,,,,,,,,,,,,,,,,,,,,,,,,,,,,,,,,,,,,,,,,,,,,,,,,,,,,,,,,,,,,,,,,,,,,,,,,,,,,,,,,,,,,,0,0,0,0,1,,"[""j""]",[2.237400000095363],1,"[""j"",""space""]","[2.237400000095363,2.5962000000476735]",,,,,,,,,,,,,,,,,,,,,,,,,,,,,,,,,,,,,,,,,,,,,,,,,,,,,,,,,,,,,,,,,,,
,,,,093491,001,2023-10-24_21h31.22.071,fluency,2022.2.5,Win32,119.9184555,,,,,,,,,,,,,,,,,,,,,,,6,4,img/B04_06.jpg,BLEND,Press J if the face is a BLEND and K if the face is a NON-BLEND,A blend is a computer-generated image created by combining together multiple photos of real human faces. A non-blend is a regular photo of a human face.,JK,,,,,,,,,,,,,,,,,,,,,,,,,,,,,,,,,,,,,,,5,1.3978,,,,,,,,,,,,,,0,15,15,39,1,,,,,,,,,,,,,space,0.5891,,,,,,,,,,,,,,,,,,,,,,,,,,,,,,,,,,,,,,,,,,,,,,,,,,,,,,,,,,,,,,,,,
,,,,093491,001,2023-10-24_21h31.22.071,fluency,2022.2.5,Win32,119.9184555,,,,,,,,,,,,,,,,,,,,,,,7,5,img/B05_07.jpg,BLEND,Press J if the face is a BLEND and K if the face is a NON-BLEND,A blend is a computer-generated image created by combining together multiple photos of real human faces. A non-blend is a regular photo of a human face.,JK,,,,,,,,,,,,,,,,,,,,,,,,,,,,,,,,,,,,,,,,,,,,,,,,,,,,,189.0808,0,16,16,51,1,109,0,0,0,0,1,98,,,,,,,,,,,,,,,,,,,,,,,,,,,,,,,,,,,,,,,,,,,,,,,,,,,,,,,,,,,,,,,,,,,,,,,,
,,,,093491,001,2023-10-24_21h31.22.071,fluency,2022.2.5,Win32,119.9184555,,,,,,,,,,,,,,,,,,,,,,,,,,,,,,,,,,,,,,,,,,,,,,,,,,,,,,,,,,,,,,,,,,,,,,,,,,,,,,,,,,,,,,,,,0,0,0,0,1,,"[""j""]",[1.4763999999761666],1,"[""j""]",[1.4763999999761666],,,,,,,,,,,,,,,,,,,,,,,,,,,,,,,,,,,,,,,,,,,,,,,,,,,,,,,,,,,,,,,,,,,
,,,,093491,001,2023-10-24_21h31.22.071,fluency,2022.2.5,Win32,119.9184555,,,,,,,,,,,,,,,,,,,,,,,7,5,img/B05_07.jpg,BLEND,Press J if the face is a BLEND and K if the face is a NON-BLEND,A blend is a computer-generated image created by combining together multiple photos of real human faces. A non-blend is a regular photo of a human face.,JK,,,,,,,,,,,,,,,,,,,,,,,,,,,,,,,,,,,,,,,4,0.3797,,,,,,,,,,,,,,0,16,16,51,1,,,,,,,,,,,,,space,0.4423,,,,,,,,,,,,,,,,,,,,,,,,,,,,,,,,,,,,,,,,,,,,,,,,,,,,,,,,,,,,,,,,,
,,,,093491,001,2023-10-24_21h31.22.071,fluency,2022.2.5,Win32,119.9184555,,,,,,,,,,,,,,,,,,,,,,,5,10,img/B10_05.jpg,BLEND,Press J if the face is a BLEND and K if the face is a NON-BLEND,A blend is a computer-generated image created by combining together multiple photos of real human faces. A non-blend is a regular photo of a human face.,JK,,,,,,,,,,,,,,,,,,,,,,,,,,,,,,,,,,,,,,,,,,,,,,,,,,,,,194.9309,0,17,17,104,1,109,0,0,0,0,1,98,,,,,,,,,,,,,,,,,,,,,,,,,,,,,,,,,,,,,,,,,,,,,,,,,,,,,,,,,,,,,,,,,,,,,,,,
,,,,093491,001,2023-10-24_21h31.22.071,fluency,2022.2.5,Win32,119.9184555,,,,,,,,,,,,,,,,,,,,,,,,,,,,,,,,,,,,,,,,,,,,,,,,,,,,,,,,,,,,,,,,,,,,,,,,,,,,,,,,,,,,,,,,,0,0,0,0,1,,"[""j""]",[0.9702000000476971],1,"[""j"",""space""]","[0.9702000000476971,1.5001000000238491]",,,,,,,,,,,,,,,,,,,,,,,,,,,,,,,,,,,,,,,,,,,,,,,,,,,,,,,,,,,,,,,,,,,
,,,,093491,001,2023-10-24_21h31.22.071,fluency,2022.2.5,Win32,119.9184555,,,,,,,,,,,,,,,,,,,,,,,5,10,img/B10_05.jpg,BLEND,Press J if the face is a BLEND and K if the face is a NON-BLEND,A blend is a computer-generated image created by combining together multiple photos of real human faces. A non-blend is a regular photo of a human face.,JK,,,,,,,,,,,,,,,,,,,,,,,,,,,,,,,,,,,,,,,4,0.4443,,,,,,,,,,,,,,0,17,17,104,1,,,,,,,,,,,,,space,0.7645,,,,,,,,,,,,,,,,,,,,,,,,,,,,,,,,,,,,,,,,,,,,,,,,,,,,,,,,,,,,,,,,,
,,,,093491,001,2023-10-24_21h31.22.071,fluency,2022.2.5,Win32,119.9184555,,,,,,,,,,,,,,,,,,,,,,,8,10,img/B10_08.jpg,BLEND,Press J if the face is a BLEND and K if the face is a NON-BLEND,A blend is a computer-generated image created by combining together multiple photos of real human faces. A non-blend is a regular photo of a human face.,JK,,,,,,,,,,,,,,,,,,,,,,,,,,,,,,,,,,,,,,,,,,,,,,,,,,,,,200.1644,0,18,18,107,1,109,0,0,0,0,1,98,,,,,,,,,,,,,,,,,,,,,,,,,,,,,,,,,,,,,,,,,,,,,,,,,,,,,,,,,,,,,,,,,,,,,,,,
,,,,093491,001,2023-10-24_21h31.22.071,fluency,2022.2.5,Win32,119.9184555,,,,,,,,,,,,,,,,,,,,,,,,,,,,,,,,,,,,,,,,,,,,,,,,,,,,,,,,,,,,,,,,,,,,,,,,,,,,,,,,,,,,,,,,,0,0,0,0,1,,"[""k""]",[2.4097999999523267],1,"[""k""]",[2.4097999999523267],,,,,,,,,,,,,,,,,,,,,,,,,,,,,,,,,,,,,,,,,,,,,,,,,,,,,,,,,,,,,,,,,,,
,,,,093491,001,2023-10-24_21h31.22.071,fluency,2022.2.5,Win32,119.9184555,,,,,,,,,,,,,,,,,,,,,,,8,10,img/B10_08.jpg,BLEND,Press J if the face is a BLEND and K if the face is a NON-BLEND,A blend is a computer-generated image created by combining together multiple photos of real human faces. A non-blend is a regular photo of a human face.,JK,,,,,,,,,,,,,,,,,,,,,,,,,,,,,,,,,,,,,,,4,0.4743,,,,,,,,,,,,,,0,18,18,107,1,,,,,,,,,,,,,space,1.2926,,,,,,,,,,,,,,,,,,,,,,,,,,,,,,,,,,,,,,,,,,,,,,,,,,,,,,,,,,,,,,,,,
,,,,093491,001,2023-10-24_21h31.22.071,fluency,2022.2.5,Win32,119.9184555,,,,,,,,,,,,,,,,,,,,,,,7,2,img/B02_07.jpg,BLEND,Press J if the face is a BLEND and K if the face is a NON-BLEND,A blend is a computer-generated image created by combining together multiple photos of real human faces. A non-blend is a regular photo of a human face.,JK,,,,,,,,,,,,,,,,,,,,,,,,,,,,,,,,,,,,,,,,,,,,,,,,,,,,,206.9646,0,19,19,18,1,109,0,0,0,0,1,98,,,,,,,,,,,,,,,,,,,,,,,,,,,,,,,,,,,,,,,,,,,,,,,,,,,,,,,,,,,,,,,,,,,,,,,,
,,,,093491,001,2023-10-24_21h31.22.071,fluency,2022.2.5,Win32,119.9184555,,,,,,,,,,,,,,,,,,,,,,,,,,,,,,,,,,,,,,,,,,,,,,,,,,,,,,,,,,,,,,,,,,,,,,,,,,,,,,,,,,,,,,,,,0,0,0,0,1,,"[""j""]",[1.2276999999284612],1,"[""j""]",[1.2276999999284612],,,,,,,,,,,,,,,,,,,,,,,,,,,,,,,,,,,,,,,,,,,,,,,,,,,,,,,,,,,,,,,,,,,
,,,,093491,001,2023-10-24_21h31.22.071,fluency,2022.2.5,Win32,119.9184555,,,,,,,,,,,,,,,,,,,,,,,7,2,img/B02_07.jpg,BLEND,Press J if the face is a BLEND and K if the face is a NON-BLEND,A blend is a computer-generated image created by combining together multiple photos of real human faces. A non-blend is a regular photo of a human face.,JK,,,,,,,,,,,,,,,,,,,,,,,,,,,,,,,,,,,,,,,3,0.3709,,,,,,,,,,,,,,0,19,19,18,1,,,,,,,,,,,,,space,0.2869,,,,,,,,,,,,,,,,,,,,,,,,,,,,,,,,,,,,,,,,,,,,,,,,,,,,,,,,,,,,,,,,,
,,,,093491,001,2023-10-24_21h31.22.071,fluency,2022.2.5,Win32,119.9184555,,,,,,,,,,,,,,,,,,,,,,,1,4,img/B04_01.jpg,BLEND,Press J if the face is a BLEND and K if the face is a NON-BLEND,A blend is a computer-generated image created by combining together multiple photos of real human faces. A non-blend is a regular photo of a human face.,JK,,,,,,,,,,,,,,,,,,,,,,,,,,,,,,,,,,,,,,,,,,,,,,,,,,,,,212.6481,0,20,20,34,1,109,0,0,0,0,1,98,,,,,,,,,,,,,,,,,,,,,,,,,,,,,,,,,,,,,,,,,,,,,,,,,,,,,,,,,,,,,,,,,,,,,,,,
,,,,093491,001,2023-10-24_21h31.22.071,fluency,2022.2.5,Win32,119.9184555,,,,,,,,,,,,,,,,,,,,,,,,,,,,,,,,,,,,,,,,,,,,,,,,,,,,,,,,,,,,,,,,,,,,,,,,,,,,,,,,,,,,,,,,,0,0,0,0,1,,"[""k""]",[1.869299999952318],1,"[""k""]",[1.869299999952318],,,,,,,,,,,,,,,,,,,,,,,,,,,,,,,,,,,,,,,,,,,,,,,,,,,,,,,,,,,,,,,,,,,
,,,,093491,001,2023-10-24_21h31.22.071,fluency,2022.2.5,Win32,119.9184555,,,,,,,,,,,,,,,,,,,,,,,1,4,img/B04_01.jpg,BLEND,Press J if the face is a BLEND and K if the face is a NON-BLEND,A blend is a computer-generated image created by combining together multiple photos of real human faces. A non-blend is a regular photo of a human face.,JK,,,,,,,,,,,,,,,,,,,,,,,,,,,,,,,,,,,,,,,6,0.5441,,,,,,,,,,,,,,0,20,20,34,1,,,,,,,,,,,,,space,0.5944,,,,,,,,,,,,,,,,,,,,,,,,,,,,,,,,,,,,,,,,,,,,,,,,,,,,,,,,,,,,,,,,,
,,,,093491,001,2023-10-24_21h31.22.071,fluency,2022.2.5,Win32,119.9184555,,,,,,,,,,,,,,,,,,,,,,,0,5,img/B05_00.jpg,BLEND,Press J if the face is a BLEND and K if the face is a NON-BLEND,A blend is a computer-generated image created by combining together multiple photos of real human faces. A non-blend is a regular photo of a human face.,JK,,,,,,,,,,,,,,,,,,,,,,,,,,,,,,,,,,,,,,,,,,,,,,,,,,,,,217.8148,0,21,21,44,1,109,0,0,0,0,1,98,,,,,,,,,,,,,,,,,,,,,,,,,,,,,,,,,,,,,,,,,,,,,,,,,,,,,,,,,,,,,,,,,,,,,,,,
,,,,093491,001,2023-10-24_21h31.22.071,fluency,2022.2.5,Win32,119.9184555,,,,,,,,,,,,,,,,,,,,,,,,,,,,,,,,,,,,,,,,,,,,,,,,,,,,,,,,,,,,,,,,,,,,,,,,,,,,,,,,,,,,,,,,,0,0,0,0,1,,"[""k""]",[1.6703999999761834],1,"[""k""]",[1.6703999999761834],,,,,,,,,,,,,,,,,,,,,,,,,,,,,,,,,,,,,,,,,,,,,,,,,,,,,,,,,,,,,,,,,,,
,,,,093491,001,2023-10-24_21h31.22.071,fluency,2022.2.5,Win32,119.9184555,,,,,,,,,,,,,,,,,,,,,,,0,5,img/B05_00.jpg,BLEND,Press J if the face is a BLEND and K if the face is a NON-BLEND,A blend is a computer-generated image created by combining together multiple photos of real human faces. A non-blend is a regular photo of a human face.,JK,,,,,,,,,,,,,,,,,,,,,,,,,,,,,,,,,,,,,,,3,0.3285,,,,,,,,,,,,,,0,21,21,44,1,,,,,,,,,,,,,space,0.4995,,,,,,,,,,,,,,,,,,,,,,,,,,,,,,,,,,,,,,,,,,,,,,,,,,,,,,,,,,,,,,,,,
,,,,093491,001,2023-10-24_21h31.22.071,fluency,2022.2.5,Win32,119.9184555,,,,,,,,,,,,,,,,,,,,,,,5,2,img/B02_05.jpg,BLEND,Press J if the face is a BLEND and K if the face is a NON-BLEND,A blend is a computer-generated image created by combining together multiple photos of real human faces. A non-blend is a regular photo of a human face.,JK,,,,,,,,,,,,,,,,,,,,,,,,,,,,,,,,,,,,,,,,,,,,,,,,,,,,,223.6733,0,22,22,16,1,109,0,0,0,0,1,98,,,,,,,,,,,,,,,,,,,,,,,,,,,,,,,,,,,,,,,,,,,,,,,,,,,,,,,,,,,,,,,,,,,,,,,,
,,,,093491,001,2023-10-24_21h31.22.071,fluency,2022.2.5,Win32,119.9184555,,,,,,,,,,,,,,,,,,,,,,,,,,,,,,,,,,,,,,,,,,,,,,,,,,,,,,,,,,,,,,,,,,,,,,,,,,,,,,,,,,,,,,,,,0,0,0,0,1,,"[""j""]",[0.9218999999761479],1,"[""j""]",[0.9217999999522988],,,,,,,,,,,,,,,,,,,,,,,,,,,,,,,,,,,,,,,,,,,,,,,,,,,,,,,,,,,,,,,,,,,
,,,,093491,001,2023-10-24_21h31.22.071,fluency,2022.2.5,Win32,119.9184555,,,,,,,,,,,,,,,,,,,,,,,5,2,img/B02_05.jpg,BLEND,Press J if the face is a BLEND and K if the face is a NON-BLEND,A blend is a computer-generated image created by combining together multiple photos of real human faces. A non-blend is a regular photo of a human face.,JK,,,,,,,,,,,,,,,,,,,,,,,,,,,,,,,,,,,,,,,3,0.354,,,,,,,,,,,,,,0,22,22,16,1,,,,,,,,,,,,,space,0.4949,,,,,,,,,,,,,,,,,,,,,,,,,,,,,,,,,,,,,,,,,,,,,,,,,,,,,,,,,,,,,,,,,
,,,,093491,001,2023-10-24_21h31.22.071,fluency,2022.2.5,Win32,119.9184555,,,,,,,,,,,,,,,,,,,,,,,2,8,img/B08_02.jpg,BLEND,Press J if the face is a BLEND and K if the face is a NON-BLEND,A blend is a computer-generated image created by combining together multiple photos of real human faces. A non-blend is a regular photo of a human face.,JK,,,,,,,,,,,,,,,,,,,,,,,,,,,,,,,,,,,,,,,,,,,,,,,,,,,,,228.5484,0,23,23,79,1,109,0,0,0,0,1,98,,,,,,,,,,,,,,,,,,,,,,,,,,,,,,,,,,,,,,,,,,,,,,,,,,,,,,,,,,,,,,,,,,,,,,,,
,,,,093491,001,2023-10-24_21h31.22.071,fluency,2022.2.5,Win32,119.9184555,,,,,,,,,,,,,,,,,,,,,,,,,,,,,,,,,,,,,,,,,,,,,,,,,,,,,,,,,,,,,,,,,,,,,,,,,,,,,,,,,,,,,,,,,0,0,0,0,1,,"[""j""]",[2.1331000000238305],1,"[""j""]",[2.1331000000238305],,,,,,,,,,,,,,,,,,,,,,,,,,,,,,,,,,,,,,,,,,,,,,,,,,,,,,,,,,,,,,,,,,,
,,,,093491,001,2023-10-24_21h31.22.071,fluency,2022.2.5,Win32,119.9184555,,,,,,,,,,,,,,,,,,,,,,,2,8,img/B08_02.jpg,BLEND,Press J if the face is a BLEND and K if the face is a NON-BLEND,A blend is a computer-generated image created by combining together multiple photos of real human faces. A non-blend is a regular photo of a human face.,JK,,,,,,,,,,,,,,,,,,,,,,,,,,,,,,,,,,,,,,,5,0.4194,,,,,,,,,,,,,,0,23,23,79,1,,,,,,,,,,,,,space,0.3671,,,,,,,,,,,,,,,,,,,,,,,,,,,,,,,,,,,,,,,,,,,,,,,,,,,,,,,,,,,,,,,,,
,,,,093491,001,2023-10-24_21h31.22.071,fluency,2022.2.5,Win32,119.9184555,,,,,,,,,,,,,,,,,,,,,,,7,1,img/B01_07.jpg,BLEND,Press J if the face is a BLEND and K if the face is a NON-BLEND,A blend is a computer-generated image created by combining together multiple photos of real human faces. A non-blend is a regular photo of a human face.,JK,,,,,,,,,,,,,,,,,,,,,,,,,,,,,,,,,,,,,,,,,,,,,,,,,,,,,234.3652,0,24,24,7,1,109,0,0,0,0,1,98,,,,,,,,,,,,,,,,,,,,,,,,,,,,,,,,,,,,,,,,,,,,,,,,,,,,,,,,,,,,,,,,,,,,,,,,
,,,,093491,001,2023-10-24_21h31.22.071,fluency,2022.2.5,Win32,119.9184555,,,,,,,,,,,,,,,,,,,,,,,,,,,,,,,,,,,,,,,,,,,,,,,,,,,,,,,,,,,,,,,,,,,,,,,,,,,,,,,,,,,,,,,,,0,0,0,0,1,,"[""j""]",[1.9556000000238214],1,"[""j""]",[1.9556000000238214],,,,,,,,,,,,,,,,,,,,,,,,,,,,,,,,,,,,,,,,,,,,,,,,,,,,,,,,,,,,,,,,,,,
,,,,093491,001,2023-10-24_21h31.22.071,fluency,2022.2.5,Win32,119.9184555,,,,,,,,,,,,,,,,,,,,,,,7,1,img/B01_07.jpg,BLEND,Press J if the face is a BLEND and K if the face is a NON-BLEND,A blend is a computer-generated image created by combining together multiple photos of real human faces. A non-blend is a regular photo of a human face.,JK,,,,,,,,,,,,,,,,,,,,,,,,,,,,,,,,,,,,,,,3,0.3232,,,,,,,,,,,,,,0,24,24,7,1,,,,,,,,,,,,,space,0.522,,,,,,,,,,,,,,,,,,,,,,,,,,,,,,,,,,,,,,,,,,,,,,,,,,,,,,,,,,,,,,,,,
,,,,093491,001,2023-10-24_21h31.22.071,fluency,2022.2.5,Win32,119.9184555,,,,,,,,,,,,,,,,,,,,,,,5,1,img/B01_05.jpg,BLEND,Press J if the face is a BLEND and K if the face is a NON-BLEND,A blend is a computer-generated image created by combining together multiple photos of real human faces. A non-blend is a regular photo of a human face.,JK,,,,,,,,,,,,,,,,,,,,,,,,,,,,,,,,,,,,,,,,,,,,,,,,,,,,,240.2403,0,25,25,5,1,109,0,0,0,0,1,98,,,,,,,,,,,,,,,,,,,,,,,,,,,,,,,,,,,,,,,,,,,,,,,,,,,,,,,,,,,,,,,,,,,,,,,,
,,,,093491,001,2023-10-24_21h31.22.071,fluency,2022.2.5,Win32,119.9184555,,,,,,,,,,,,,,,,,,,,,,,,,,,,,,,,,,,,,,,,,,,,,,,,,,,,,,,,,,,,,,,,,,,,,,,,,,,,,,,,,,,,,,,,,0,0,0,0,1,,"[""j""]",[1.0947000000477374],1,"[""j"",""space""]","[1.0947000000477374,1.7388999999761836]",,,,,,,,,,,,,,,,,,,,,,,,,,,,,,,,,,,,,,,,,,,,,,,,,,,,,,,,,,,,,,,,,,,
,,,,093491,001,2023-10-24_21h31.22.071,fluency,2022.2.5,Win32,119.9184555,,,,,,,,,,,,,,,,,,,,,,,5,1,img/B01_05.jpg,BLEND,Press J if the face is a BLEND and K if the face is a NON-BLEND,A blend is a computer-generated image created by combining together multiple photos of real human faces. A non-blend is a regular photo of a human face.,JK,,,,,,,,,,,,,,,,,,,,,,,,,,,,,,,,,,,,,,,2,0.5784,,,,,,,,,,,,,,0,25,25,5,1,,,,,,,,,,,,,space,0.4759,,,,,,,,,,,,,,,,,,,,,,,,,,,,,,,,,,,,,,,,,,,,,,,,,,,,,,,,,,,,,,,,,
,,,,093491,001,2023-10-24_21h31.22.071,fluency,2022.2.5,Win32,119.9184555,,,,,,,,,,,,,,,,,,,,,,,5,8,img/B08_05.jpg,BLEND,Press J if the face is a BLEND and K if the face is a NON-BLEND,A blend is a computer-generated image created by combining together multiple photos of real human faces. A non-blend is a regular photo of a human face.,JK,,,,,,,,,,,,,,,,,,,,,,,,,,,,,,,,,,,,,,,,,,,,,,,,,,,,,246.3239,0,26,26,82,1,109,0,0,0,0,1,98,,,,,,,,,,,,,,,,,,,,,,,,,,,,,,,,,,,,,,,,,,,,,,,,,,,,,,,,,,,,,,,,,,,,,,,,
,,,,093491,001,2023-10-24_21h31.22.071,fluency,2022.2.5,Win32,119.9184555,,,,,,,,,,,,,,,,,,,,,,,,,,,,,,,,,,,,,,,,,,,,,,,,,,,,,,,,,,,,,,,,,,,,,,,,,,,,,,,,,,,,,,,,,0,0,0,0,1,,"[""j""]",[1.4209999999999923],1,"[""j""]",[1.4209999999999923],,,,,,,,,,,,,,,,,,,,,,,,,,,,,,,,,,,,,,,,,,,,,,,,,,,,,,,,,,,,,,,,,,,
,,,,093491,001,2023-10-24_21h31.22.071,fluency,2022.2.5,Win32,119.9184555,,,,,,,,,,,,,,,,,,,,,,,5,8,img/B08_05.jpg,BLEND,Press J if the face is a BLEND and K if the face is a NON-BLEND,A blend is a computer-generated image created by combining together multiple photos of real human faces. A non-blend is a regular photo of a human face.,JK,,,,,,,,,,,,,,,,,,,,,,,,,,,,,,,,,,,,,,,4,1.1852,,,,,,,,,,,,,,0,26,26,82,1,,,,,,,,,,,,,space,0.3719,,,,,,,,,,,,,,,,,,,,,,,,,,,,,,,,,,,,,,,,,,,,,,,,,,,,,,,,,,,,,,,,,
,,,,093491,001,2023-10-24_21h31.22.071,fluency,2022.2.5,Win32,119.9184555,,,,,,,,,,,,,,,,,,,,,,,4,8,img/B08_04.jpg,BLEND,Press J if the face is a BLEND and K if the face is a NON-BLEND,A blend is a computer-generated image created by combining together multiple photos of real human faces. A non-blend is a regular photo of a human face.,JK,,,,,,,,,,,,,,,,,,,,,,,,,,,,,,,,,,,,,,,,,,,,,,,,,,,,,252.9073,0,27,27,81,1,109,0,0,0,0,1,98,,,,,,,,,,,,,,,,,,,,,,,,,,,,,,,,,,,,,,,,,,,,,,,,,,,,,,,,,,,,,,,,,,,,,,,,
,,,,093491,001,2023-10-24_21h31.22.071,fluency,2022.2.5,Win32,119.9184555,,,,,,,,,,,,,,,,,,,,,,,,,,,,,,,,,,,,,,,,,,,,,,,,,,,,,,,,,,,,,,,,,,,,,,,,,,,,,,,,,,,,,,,,,0,0,0,0,1,,"[""j""]",[0.6379999999999768],1,"[""j""]",[0.6378999999761277],,,,,,,,,,,,,,,,,,,,,,,,,,,,,,,,,,,,,,,,,,,,,,,,,,,,,,,,,,,,,,,,,,,
,,,,093491,001,2023-10-24_21h31.22.071,fluency,2022.2.5,Win32,119.9184555,,,,,,,,,,,,,,,,,,,,,,,4,8,img/B08_04.jpg,BLEND,Press J if the face is a BLEND and K if the face is a NON-BLEND,A blend is a computer-generated image created by combining together multiple photos of real human faces. A non-blend is a regular photo of a human face.,JK,,,,,,,,,,,,,,,,,,,,,,,,,,,,,,,,,,,,,,,5,0.8247,,,,,,,,,,,,,,0,27,27,81,1,,,,,,,,,,,,,space,0.4888,,,,,,,,,,,,,,,,,,,,,,,,,,,,,,,,,,,,,,,,,,,,,,,,,,,,,,,,,,,,,,,,,
,,,,093491,001,2023-10-24_21h31.22.071,fluency,2022.2.5,Win32,119.9184555,,,,,,,,,,,,,,,,,,,,,,,3,4,img/B04_03.jpg,BLEND,Press J if the face is a BLEND and K if the face is a NON-BLEND,A blend is a computer-generated image created by combining together multiple photos of real human faces. A non-blend is a regular photo of a human face.,JK,,,,,,,,,,,,,,,,,,,,,,,,,,,,,,,,,,,,,,,,,,,,,,,,,,,,,259.2491,0,28,28,36,1,109,0,0,0,0,1,98,,,,,,,,,,,,,,,,,,,,,,,,,,,,,,,,,,,,,,,,,,,,,,,,,,,,,,,,,,,,,,,,,,,,,,,,
,,,,093491,001,2023-10-24_21h31.22.071,fluency,2022.2.5,Win32,119.9184555,,,,,,,,,,,,,,,,,,,,,,,,,,,,,,,,,,,,,,,,,,,,,,,,,,,,,,,,,,,,,,,,,,,,,,,,,,,,,,,,,,,,,,,,,0,0,0,0,1,,"[""k""]",[1.6028999999761595],1,"[""k""]",[1.6028999999761595],,,,,,,,,,,,,,,,,,,,,,,,,,,,,,,,,,,,,,,,,,,,,,,,,,,,,,,,,,,,,,,,,,,
,,,,093491,001,2023-10-24_21h31.22.071,fluency,2022.2.5,Win32,119.9184555,,,,,,,,,,,,,,,,,,,,,,,3,4,img/B04_03.jpg,BLEND,Press J if the face is a BLEND and K if the face is a NON-BLEND,A blend is a computer-generated image created by combining together multiple photos of real human faces. A non-blend is a regular photo of a human face.,JK,,,,,,,,,,,,,,,,,,,,,,,,,,,,,,,,,,,,,,,6,1.5261,,,,,,,,,,,,,,0,28,28,36,1,,,,,,,,,,,,,space,0.5383,,,,,,,,,,,,,,,,,,,,,,,,,,,,,,,,,,,,,,,,,,,,,,,,,,,,,,,,,,,,,,,,,
,,,,093491,001,2023-10-24_21h31.22.071,fluency,2022.2.5,Win32,119.9184555,,,,,,,,,,,,,,,,,,,,,,,10,7,img/B07_10.jpg,BLEND,Press J if the face is a BLEND and K if the face is a NON-BLEND,A blend is a computer-generated image created by combining together multiple photos of real human faces. A non-blend is a regular photo of a human face.,JK,,,,,,,,,,,,,,,,,,,,,,,,,,,,,,,,,,,,,,,,,,,,,,,,,,,,,265.3326,0,29,29,76,1,109,0,0,0,0,1,98,,,,,,,,,,,,,,,,,,,,,,,,,,,,,,,,,,,,,,,,,,,,,,,,,,,,,,,,,,,,,,,,,,,,,,,,
,,,,093491,001,2023-10-24_21h31.22.071,fluency,2022.2.5,Win32,119.9184555,,,,,,,,,,,,,,,,,,,,,,,,,,,,,,,,,,,,,,,,,,,,,,,,,,,,,,,,,,,,,,,,,,,,,,,,,,,,,,,,,,,,,,,,,0,0,0,0,1,,"[""j""]",[1.5058999999761795],1,"[""j""]",[1.5058999999761795],,,,,,,,,,,,,,,,,,,,,,,,,,,,,,,,,,,,,,,,,,,,,,,,,,,,,,,,,,,,,,,,,,,
,,,,093491,001,2023-10-24_21h31.22.071,fluency,2022.2.5,Win32,119.9184555,,,,,,,,,,,,,,,,,,,,,,,10,7,img/B07_10.jpg,BLEND,Press J if the face is a BLEND and K if the face is a NON-BLEND,A blend is a computer-generated image created by combining together multiple photos of real human faces. A non-blend is a regular photo of a human face.,JK,,,,,,,,,,,,,,,,,,,,,,,,,,,,,,,,,,,,,,,6,0.7127,,,,,,,,,,,,,,0,29,29,76,1,,,,,,,,,,,,,space,0.2579,,,,,,,,,,,,,,,,,,,,,,,,,,,,,,,,,,,,,,,,,,,,,,,,,,,,,,,,,,,,,,,,,
,,,,093491,001,2023-10-24_21h31.22.071,fluency,2022.2.5,Win32,119.9184555,,,,,,,,,,,,,,,,,,,,,,,2,1,img/B01_02.jpg,BLEND,Press J if the face is a BLEND and K if the face is a NON-BLEND,A blend is a computer-generated image created by combining together multiple photos of real human faces. A non-blend is a regular photo of a human face.,JK,,,,,,,,,,,,,,,,,,,,,,,,,,,,,,,,,,,,,,,,,,,,,,,,,,,,,271.3328,0,30,30,2,1,109,0,0,0,0,1,98,,,,,,,,,,,,,,,,,,,,,,,,,,,,,,,,,,,,,,,,,,,,,,,,,,,,,,,,,,,,,,,,,,,,,,,,
,,,,093491,001,2023-10-24_21h31.22.071,fluency,2022.2.5,Win32,119.9184555,,,,,,,,,,,,,,,,,,,,,,,,,,,,,,,,,,,,,,,,,,,,,,,,,,,,,,,,,,,,,,,,,,,,,,,,,,,,,,,,,,,,,,,,,0,0,0,0,1,,"[""j""]",[1.3286000000238687],1,"[""j""]",[1.3281000000238805],,,,,,,,,,,,,,,,,,,,,,,,,,,,,,,,,,,,,,,,,,,,,,,,,,,,,,,,,,,,,,,,,,,
,,,,093491,001,2023-10-24_21h31.22.071,fluency,2022.2.5,Win32,119.9184555,,,,,,,,,,,,,,,,,,,,,,,2,1,img/B01_02.jpg,BLEND,Press J if the face is a BLEND and K if the face is a NON-BLEND,A blend is a computer-generated image created by combining together multiple photos of real human faces. A non-blend is a regular photo of a human face.,JK,,,,,,,,,,,,,,,,,,,,,,,,,,,,,,,,,,,,,,,3,0.4453,,,,,,,,,,,,,,0,30,30,2,1,,,,,,,,,,,,,space,0.231,,,,,,,,,,,,,,,,,,,,,,,,,,,,,,,,,,,,,,,,,,,,,,,,,,,,,,,,,,,,,,,,,
,,,,093491,001,2023-10-24_21h31.22.071,fluency,2022.2.5,Win32,119.9184555,,,,,,,,,,,,,,,,,,,,,,,6,3,img/B03_06.jpg,BLEND,Press J if the face is a BLEND and K if the face is a NON-BLEND,A blend is a computer-generated image created by combining together multiple photos of real human faces. A non-blend is a regular photo of a human face.,JK,,,,,,,,,,,,,,,,,,,,,,,,,,,,,,,,,,,,,,,,,,,,,,,,,,,,,276.0245,0,31,31,28,1,109,0,0,0,0,1,98,,,,,,,,,,,,,,,,,,,,,,,,,,,,,,,,,,,,,,,,,,,,,,,,,,,,,,,,,,,,,,,,,,,,,,,,
,,,,093491,001,2023-10-24_21h31.22.071,fluency,2022.2.5,Win32,119.9184555,,,,,,,,,,,,,,,,,,,,,,,,,,,,,,,,,,,,,,,,,,,,,,,,,,,,,,,,,,,,,,,,,,,,,,,,,,,,,,,,,,,,,,,,,0,0,0,0,1,,"[""j""]",[2.4598999999761304],1,"[""j""]",[2.4597999999522813],,,,,,,,,,,,,,,,,,,,,,,,,,,,,,,,,,,,,,,,,,,,,,,,,,,,,,,,,,,,,,,,,,,
,,,,093491,001,2023-10-24_21h31.22.071,fluency,2022.2.5,Win32,119.9184555,,,,,,,,,,,,,,,,,,,,,,,6,3,img/B03_06.jpg,BLEND,Press J if the face is a BLEND and K if the face is a NON-BLEND,A blend is a computer-generated image created by combining together multiple photos of real human faces. A non-blend is a regular photo of a human face.,JK,,,,,,,,,,,,,,,,,,,,,,,,,,,,,,,,,,,,,,,4,0.4219,,,,,,,,,,,,,,0,31,31,28,1,,,,,,,,,,,,,space,0.1748,,,,,,,,,,,,,,,,,,,,,,,,,,,,,,,,,,,,,,,,,,,,,,,,,,,,,,,,,,,,,,,,,
,,,,093491,001,2023-10-24_21h31.22.071,fluency,2022.2.5,Win32,119.9184555,,,,,,,,,,,,,,,,,,,,,,,9,2,img/B02_09.jpg,BLEND,Press J if the face is a BLEND and K if the face is a NON-BLEND,A blend is a computer-generated image created by combining together multiple photos of real human faces. A non-blend is a regular photo of a human face.,JK,,,,,,,,,,,,,,,,,,,,,,,,,,,,,,,,,,,,,,,,,,,,,,,,,,,,,280.6497,0,32,32,20,1,109,0,0,0,0,1,98,,,,,,,,,,,,,,,,,,,,,,,,,,,,,,,,,,,,,,,,,,,,,,,,,,,,,,,,,,,,,,,,,,,,,,,,
,,,,093491,001,2023-10-24_21h31.22.071,fluency,2022.2.5,Win32,119.9184555,,,,,,,,,,,,,,,,,,,,,,,,,,,,,,,,,,,,,,,,,,,,,,,,,,,,,,,,,,,,,,,,,,,,,,,,,,,,,,,,,,,,,,,,,0,0,0,0,1,,"[""j""]",[1.3072999999523063],1,"[""j""]",[1.3072999999523063],,,,,,,,,,,,,,,,,,,,,,,,,,,,,,,,,,,,,,,,,,,,,,,,,,,,,,,,,,,,,,,,,,,
,,,,093491,001,2023-10-24_21h31.22.071,fluency,2022.2.5,Win32,119.9184555,,,,,,,,,,,,,,,,,,,,,,,9,2,img/B02_09.jpg,BLEND,Press J if the face is a BLEND and K if the face is a NON-BLEND,A blend is a computer-generated image created by combining together multiple photos of real human faces. A non-blend is a regular photo of a human face.,JK,,,,,,,,,,,,,,,,,,,,,,,,,,,,,,,,,,,,,,,3,0.9168,,,,,,,,,,,,,,0,32,32,20,1,,,,,,,,,,,,,space,0.9579,,,,,,,,,,,,,,,,,,,,,,,,,,,,,,,,,,,,,,,,,,,,,,,,,,,,,,,,,,,,,,,,,
,,,,093491,001,2023-10-24_21h31.22.071,fluency,2022.2.5,Win32,119.9184555,,,,,,,,,,,,,,,,,,,,,,,5,9,img/B09_05.jpg,BLEND,Press J if the face is a BLEND and K if the face is a NON-BLEND,A blend is a computer-generated image created by combining together multiple photos of real human faces. A non-blend is a regular photo of a human face.,JK,,,,,,,,,,,,,,,,,,,,,,,,,,,,,,,,,,,,,,,,,,,,,,,,,,,,,286.5581,0,33,33,93,1,109,0,0,0,0,1,98,,,,,,,,,,,,,,,,,,,,,,,,,,,,,,,,,,,,,,,,,,,,,,,,,,,,,,,,,,,,,,,,,,,,,,,,
,,,,093491,001,2023-10-24_21h31.22.071,fluency,2022.2.5,Win32,119.9184555,,,,,,,,,,,,,,,,,,,,,,,,,,,,,,,,,,,,,,,,,,,,,,,,,,,,,,,,,,,,,,,,,,,,,,,,,,,,,,,,,,,,,,,,,0,0,0,0,1,,"[""j""]",[0.896000000000015],1,"[""j""]",[0.8958999999761659],,,,,,,,,,,,,,,,,,,,,,,,,,,,,,,,,,,,,,,,,,,,,,,,,,,,,,,,,,,,,,,,,,,
,,,,093491,001,2023-10-24_21h31.22.071,fluency,2022.2.5,Win32,119.9184555,,,,,,,,,,,,,,,,,,,,,,,5,9,img/B09_05.jpg,BLEND,Press J if the face is a BLEND and K if the face is a NON-BLEND,A blend is a computer-generated image created by combining together multiple photos of real human faces. A non-blend is a regular photo of a human face.,JK,,,,,,,,,,,,,,,,,,,,,,,,,,,,,,,,,,,,,,,3,0.4093,,,,,,,,,,,,,,0,33,33,93,1,,,,,,,,,,,,,space,0.2507,,,,,,,,,,,,,,,,,,,,,,,,,,,,,,,,,,,,,,,,,,,,,,,,,,,,,,,,,,,,,,,,,
,,,,093491,001,2023-10-24_21h31.22.071,fluency,2022.2.5,Win32,119.9184555,,,,,,,,,,,,,,,,,,,,,,,4,6,img/B06_04.jpg,BLEND,Press J if the face is a BLEND and K if the face is a NON-BLEND,A blend is a computer-generated image created by combining together multiple photos of real human faces. A non-blend is a regular photo of a human face.,JK,,,,,,,,,,,,,,,,,,,,,,,,,,,,,,,,,,,,,,,,,,,,,,,,,,,,,292.2499,0,34,34,59,1,109,0,0,0,0,1,98,,,,,,,,,,,,,,,,,,,,,,,,,,,,,,,,,,,,,,,,,,,,,,,,,,,,,,,,,,,,,,,,,,,,,,,,
,,,,093491,001,2023-10-24_21h31.22.071,fluency,2022.2.5,Win32,119.9184555,,,,,,,,,,,,,,,,,,,,,,,,,,,,,,,,,,,,,,,,,,,,,,,,,,,,,,,,,,,,,,,,,,,,,,,,,,,,,,,,,,,,,,,,,0,0,0,0,1,,"[""j""]",[0.7471000000238632],1,"[""j""]",[0.7470000000000141],,,,,,,,,,,,,,,,,,,,,,,,,,,,,,,,,,,,,,,,,,,,,,,,,,,,,,,,,,,,,,,,,,,
,,,,093491,001,2023-10-24_21h31.22.071,fluency,2022.2.5,Win32,119.9184555,,,,,,,,,,,,,,,,,,,,,,,4,6,img/B06_04.jpg,BLEND,Press J if the face is a BLEND and K if the face is a NON-BLEND,A blend is a computer-generated image created by combining together multiple photos of real human faces. A non-blend is a regular photo of a human face.,JK,,,,,,,,,,,,,,,,,,,,,,,,,,,,,,,,,,,,,,,2,0.2966,,,,,,,,,,,,,,0,34,34,59,1,,,,,,,,,,,,,space,0.2379,,,,,,,,,,,,,,,,,,,,,,,,,,,,,,,,,,,,,,,,,,,,,,,,,,,,,,,,,,,,,,,,,
,,,,093491,001,2023-10-24_21h31.22.071,fluency,2022.2.5,Win32,119.9184555,,,,,,,,,,,,,,,,,,,,,,,8,4,img/B04_08.jpg,BLEND,Press J if the face is a BLEND and K if the face is a NON-BLEND,A blend is a computer-generated image created by combining together multiple photos of real human faces. A non-blend is a regular photo of a human face.,JK,,,,,,,,,,,,,,,,,,,,,,,,,,,,,,,,,,,,,,,,,,,,,,,,,,,,,297.8,0,35,35,41,1,109,0,0,0,0,1,98,,,,,,,,,,,,,,,,,,,,,,,,,,,,,,,,,,,,,,,,,,,,,,,,,,,,,,,,,,,,,,,,,,,,,,,,
,,,,093491,001,2023-10-24_21h31.22.071,fluency,2022.2.5,Win32,119.9184555,,,,,,,,,,,,,,,,,,,,,,,,,,,,,,,,,,,,,,,,,,,,,,,,,,,,,,,,,,,,,,,,,,,,,,,,,,,,,,,,,,,,,,,,,0,0,0,0,1,,"[""j""]",[0.7681000000238214],1,"[""j""]",[0.7681000000238214],,,,,,,,,,,,,,,,,,,,,,,,,,,,,,,,,,,,,,,,,,,,,,,,,,,,,,,,,,,,,,,,,,,
,,,,093491,001,2023-10-24_21h31.22.071,fluency,2022.2.5,Win32,119.9184555,,,,,,,,,,,,,,,,,,,,,,,8,4,img/B04_08.jpg,BLEND,Press J if the face is a BLEND and K if the face is a NON-BLEND,A blend is a computer-generated image created by combining together multiple photos of real human faces. A non-blend is a regular photo of a human face.,JK,,,,,,,,,,,,,,,,,,,,,,,,,,,,,,,,,,,,,,,1,0.2458,,,,,,,,,,,,,,0,35,35,41,1,,,,,,,,,,,,,space,0.6534,,,,,,,,,,,,,,,,,,,,,,,,,,,,,,,,,,,,,,,,,,,,,,,,,,,,,,,,,,,,,,,,,
,,,,093491,001,2023-10-24_21h31.22.071,fluency,2022.2.5,Win32,119.9184555,,,,,,,,,,,,,,,,,,,,,,,4,1,img/B01_04.jpg,BLEND,Press J if the face is a BLEND and K if the face is a NON-BLEND,A blend is a computer-generated image created by combining together multiple photos of real human faces. A non-blend is a regular photo of a human face.,JK,,,,,,,,,,,,,,,,,,,,,,,,,,,,,,,,,,,,,,,,,,,,,,,,,,,,,303.7252,0,36,36,4,1,109,0,0,0,0,1,98,,,,,,,,,,,,,,,,,,,,,,,,,,,,,,,,,,,,,,,,,,,,,,,,,,,,,,,,,,,,,,,,,,,,,,,,
,,,,093491,001,2023-10-24_21h31.22.071,fluency,2022.2.5,Win32,119.9184555,,,,,,,,,,,,,,,,,,,,,,,,,,,,,,,,,,,,,,,,,,,,,,,,,,,,,,,,,,,,,,,,,,,,,,,,,,,,,,,,,,,,,,,,,0,0,0,0,1,,"[""j""]",[0.6531000000238691],1,"[""j""]",[0.6531000000238691],,,,,,,,,,,,,,,,,,,,,,,,,,,,,,,,,,,,,,,,,,,,,,,,,,,,,,,,,,,,,,,,,,,
,,,,093491,001,2023-10-24_21h31.22.071,fluency,2022.2.5,Win32,119.9184555,,,,,,,,,,,,,,,,,,,,,,,4,1,img/B01_04.jpg,BLEND,Press J if the face is a BLEND and K if the face is a NON-BLEND,A blend is a computer-generated image created by combining together multiple photos of real human faces. A non-blend is a regular photo of a human face.,JK,,,,,,,,,,,,,,,,,,,,,,,,,,,,,,,,,,,,,,,3,0.3792,,,,,,,,,,,,,,0,36,36,4,1,,,,,,,,,,,,,space,0.2665,,,,,,,,,,,,,,,,,,,,,,,,,,,,,,,,,,,,,,,,,,,,,,,,,,,,,,,,,,,,,,,,,
,,,,093491,001,2023-10-24_21h31.22.071,fluency,2022.2.5,Win32,119.9184555,,,,,,,,,,,,,,,,,,,,,,,2,9,img/B09_02.jpg,BLEND,Press J if the face is a BLEND and K if the face is a NON-BLEND,A blend is a computer-generated image created by combining together multiple photos of real human faces. A non-blend is a regular photo of a human face.,JK,,,,,,,,,,,,,,,,,,,,,,,,,,,,,,,,,,,,,,,,,,,,,,,,,,,,,308.392,0,37,37,90,1,109,0,0,0,0,1,98,,,,,,,,,,,,,,,,,,,,,,,,,,,,,,,,,,,,,,,,,,,,,,,,,,,,,,,,,,,,,,,,,,,,,,,,
,,,,093491,001,2023-10-24_21h31.22.071,fluency,2022.2.5,Win32,119.9184555,,,,,,,,,,,,,,,,,,,,,,,,,,,,,,,,,,,,,,,,,,,,,,,,,,,,,,,,,,,,,,,,,,,,,,,,,,,,,,,,,,,,,,,,,0,0,0,0,1,,"[""j""]",[0.9194999999999709],1,"[""space"",""j""]","[0.561300000071526,0.9194999999999709]",,,,,,,,,,,,,,,,,,,,,,,,,,,,,,,,,,,,,,,,,,,,,,,,,,,,,,,,,,,,,,,,,,,
,,,,093491,001,2023-10-24_21h31.22.071,fluency,2022.2.5,Win32,119.9184555,,,,,,,,,,,,,,,,,,,,,,,2,9,img/B09_02.jpg,BLEND,Press J if the face is a BLEND and K if the face is a NON-BLEND,A blend is a computer-generated image created by combining together multiple photos of real human faces. A non-blend is a regular photo of a human face.,JK,,,,,,,,,,,,,,,,,,,,,,,,,,,,,,,,,,,,,,,2,0.3445,,,,,,,,,,,,,,0,37,37,90,1,,,,,,,,,,,,,space,0.3005,,,,,,,,,,,,,,,,,,,,,,,,,,,,,,,,,,,,,,,,,,,,,,,,,,,,,,,,,,,,,,,,,
,,,,093491,001,2023-10-24_21h31.22.071,fluency,2022.2.5,Win32,119.9184555,,,,,,,,,,,,,,,,,,,,,,,1,8,img/B08_01.jpg,BLEND,Press J if the face is a BLEND and K if the face is a NON-BLEND,A blend is a computer-generated image created by combining together multiple photos of real human faces. A non-blend is a regular photo of a human face.,JK,,,,,,,,,,,,,,,,,,,,,,,,,,,,,,,,,,,,,,,,,,,,,,,,,,,,,314.0671,0,38,38,78,1,109,0,0,0,0,1,98,,,,,,,,,,,,,,,,,,,,,,,,,,,,,,,,,,,,,,,,,,,,,,,,,,,,,,,,,,,,,,,,,,,,,,,,
,,,,093491,001,2023-10-24_21h31.22.071,fluency,2022.2.5,Win32,119.9184555,,,,,,,,,,,,,,,,,,,,,,,,,,,,,,,,,,,,,,,,,,,,,,,,,,,,,,,,,,,,,,,,,,,,,,,,,,,,,,,,,,,,,,,,,0,0,0,0,1,,"[""j""]",[0.6779999999999973],1,"[""j""]",[0.6778999999761481],,,,,,,,,,,,,,,,,,,,,,,,,,,,,,,,,,,,,,,,,,,,,,,,,,,,,,,,,,,,,,,,,,,
,,,,093491,001,2023-10-24_21h31.22.071,fluency,2022.2.5,Win32,119.9184555,,,,,,,,,,,,,,,,,,,,,,,1,8,img/B08_01.jpg,BLEND,Press J if the face is a BLEND and K if the face is a NON-BLEND,A blend is a computer-generated image created by combining together multiple photos of real human faces. A non-blend is a regular photo of a human face.,JK,,,,,,,,,,,,,,,,,,,,,,,,,,,,,,,,,,,,,,,4,1.24,,,,,,,,,,,,,,0,38,38,78,1,,,,,,,,,,,,,space,0.3622,,,,,,,,,,,,,,,,,,,,,,,,,,,,,,,,,,,,,,,,,,,,,,,,,,,,,,,,,,,,,,,,,
,,,,093491,001,2023-10-24_21h31.22.071,fluency,2022.2.5,Win32,119.9184555,,,,,,,,,,,,,,,,,,,,,,,8,2,img/B02_08.jpg,BLEND,Press J if the face is a BLEND and K if the face is a NON-BLEND,A blend is a computer-generated image created by combining together multiple photos of real human faces. A non-blend is a regular photo of a human face.,JK,,,,,,,,,,,,,,,,,,,,,,,,,,,,,,,,,,,,,,,,,,,,,,,,,,,,,320.7006,0,39,39,19,1,109,0,0,0,0,1,98,,,,,,,,,,,,,,,,,,,,,,,,,,,,,,,,,,,,,,,,,,,,,,,,,,,,,,,,,,,,,,,,,,,,,,,,
,,,,093491,001,2023-10-24_21h31.22.071,fluency,2022.2.5,Win32,119.9184555,,,,,,,,,,,,,,,,,,,,,,,,,,,,,,,,,,,,,,,,,,,,,,,,,,,,,,,,,,,,,,,,,,,,,,,,,,,,,,,,,,,,,,,,,0,0,0,0,1,,"[""j""]",[1.4116999999284303],1,"[""j""]",[1.4116999999284303],,,,,,,,,,,,,,,,,,,,,,,,,,,,,,,,,,,,,,,,,,,,,,,,,,,,,,,,,,,,,,,,,,,
,,,,093491,001,2023-10-24_21h31.22.071,fluency,2022.2.5,Win32,119.9184555,,,,,,,,,,,,,,,,,,,,,,,8,2,img/B02_08.jpg,BLEND,Press J if the face is a BLEND and K if the face is a NON-BLEND,A blend is a computer-generated image created by combining together multiple photos of real human faces. A non-blend is a regular photo of a human face.,JK,,,,,,,,,,,,,,,,,,,,,,,,,,,,,,,,,,,,,,,5,0.7416,,,,,,,,,,,,,,0,39,39,19,1,,,,,,,,,,,,,space,0.5919,,,,,,,,,,,,,,,,,,,,,,,,,,,,,,,,,,,,,,,,,,,,,,,,,,,,,,,,,,,,,,,,,
,,,,093491,001,2023-10-24_21h31.22.071,fluency,2022.2.5,Win32,119.9184555,,,,,,,,,,,,,,,,,,,,,,,4,9,img/B09_04.jpg,BLEND,Press J if the face is a BLEND and K if the face is a NON-BLEND,A blend is a computer-generated image created by combining together multiple photos of real human faces. A non-blend is a regular photo of a human face.,JK,,,,,,,,,,,,,,,,,,,,,,,,,,,,,,,,,,,,,,,,,,,,,,,,,,,,,326.0674,0,40,40,92,1,109,0,0,0,0,1,98,,,,,,,,,,,,,,,,,,,,,,,,,,,,,,,,,,,,,,,,,,,,,,,,,,,,,,,,,,,,,,,,,,,,,,,,
,,,,093491,001,2023-10-24_21h31.22.071,fluency,2022.2.5,Win32,119.9184555,,,,,,,,,,,,,,,,,,,,,,,,,,,,,,,,,,,,,,,,,,,,,,,,,,,,,,,,,,,,,,,,,,,,,,,,,,,,,,,,,,,,,,,,,0,0,0,0,1,,"[""j""]",[1.3027000000476505],1,"[""j""]",[1.3027000000476505],,,,,,,,,,,,,,,,,,,,,,,,,,,,,,,,,,,,,,,,,,,,,,,,,,,,,,,,,,,,,,,,,,,
,,,,093491,001,2023-10-24_21h31.22.071,fluency,2022.2.5,Win32,119.9184555,,,,,,,,,,,,,,,,,,,,,,,4,9,img/B09_04.jpg,BLEND,Press J if the face is a BLEND and K if the face is a NON-BLEND,A blend is a computer-generated image created by combining together multiple photos of real human faces. A non-blend is a regular photo of a human face.,JK,,,,,,,,,,,,,,,,,,,,,,,,,,,,,,,,,,,,,,,4,1.6367,,,,,,,,,,,,,,0,40,40,92,1,,,,,,,,,,,,,space,1.9182,,,,,,,,,,,,,,,,,,,,,,,,,,,,,,,,,,,,,,,,,,,,,,,,,,,,,,,,,,,,,,,,,
,,,,093491,001,2023-10-24_21h31.22.071,fluency,2022.2.5,Win32,119.9184555,,,,,,,,,,,,,,,,,,,,,,,8,9,img/B09_08.jpg,BLEND,Press J if the face is a BLEND and K if the face is a NON-BLEND,A blend is a computer-generated image created by combining together multiple photos of real human faces. A non-blend is a regular photo of a human face.,JK,,,,,,,,,,,,,,,,,,,,,,,,,,,,,,,,,,,,,,,,,,,,,,,,,,,,,334.6509,0,41,41,96,1,109,0,0,0,0,1,98,,,,,,,,,,,,,,,,,,,,,,,,,,,,,,,,,,,,,,,,,,,,,,,,,,,,,,,,,,,,,,,,,,,,,,,,
,,,,093491,001,2023-10-24_21h31.22.071,fluency,2022.2.5,Win32,119.9184555,,,,,,,,,,,,,,,,,,,,,,,,,,,,,,,,,,,,,,,,,,,,,,,,,,,,,,,,,,,,,,,,,,,,,,,,,,,,,,,,,,,,,,,,,0,0,0,0,1,,"[""j""]",[0.765199999928484],1,"[""j""]",[0.765199999928484],,,,,,,,,,,,,,,,,,,,,,,,,,,,,,,,,,,,,,,,,,,,,,,,,,,,,,,,,,,,,,,,,,,
,,,,093491,001,2023-10-24_21h31.22.071,fluency,2022.2.5,Win32,119.9184555,,,,,,,,,,,,,,,,,,,,,,,8,9,img/B09_08.jpg,BLEND,Press J if the face is a BLEND and K if the face is a NON-BLEND,A blend is a computer-generated image created by combining together multiple photos of real human faces. A non-blend is a regular photo of a human face.,JK,,,,,,,,,,,,,,,,,,,,,,,,,,,,,,,,,,,,,,,5,0.467,,,,,,,,,,,,,,0,41,41,96,1,,,,,,,,,,,,,space,0.2496,,,,,,,,,,,,,,,,,,,,,,,,,,,,,,,,,,,,,,,,,,,,,,,,,,,,,,,,,,,,,,,,,
,,,,093491,001,2023-10-24_21h31.22.071,fluency,2022.2.5,Win32,119.9184555,,,,,,,,,,,,,,,,,,,,,,,10,6,img/B06_10.jpg,BLEND,Press J if the face is a BLEND and K if the face is a NON-BLEND,A blend is a computer-generated image created by combining together multiple photos of real human faces. A non-blend is a regular photo of a human face.,JK,,,,,,,,,,,,,,,,,,,,,,,,,,,,,,,,,,,,,,,,,,,,,,,,,,,,,340.4011,0,42,42,65,1,109,0,0,0,0,1,98,,,,,,,,,,,,,,,,,,,,,,,,,,,,,,,,,,,,,,,,,,,,,,,,,,,,,,,,,,,,,,,,,,,,,,,,
,,,,093491,001,2023-10-24_21h31.22.071,fluency,2022.2.5,Win32,119.9184555,,,,,,,,,,,,,,,,,,,,,,,,,,,,,,,,,,,,,,,,,,,,,,,,,,,,,,,,,,,,,,,,,,,,,,,,,,,,,,,,,,,,,,,,,0,0,0,0,1,,"[""j""]",[0.6088000000715397],1,"[""j""]",[0.6088000000715397],,,,,,,,,,,,,,,,,,,,,,,,,,,,,,,,,,,,,,,,,,,,,,,,,,,,,,,,,,,,,,,,,,,
,,,,093491,001,2023-10-24_21h31.22.071,fluency,2022.2.5,Win32,119.9184555,,,,,,,,,,,,,,,,,,,,,,,10,6,img/B06_10.jpg,BLEND,Press J if the face is a BLEND and K if the face is a NON-BLEND,A blend is a computer-generated image created by combining together multiple photos of real human faces. A non-blend is a regular photo of a human face.,JK,,,,,,,,,,,,,,,,,,,,,,,,,,,,,,,,,,,,,,,3,0.3974,,,,,,,,,,,,,,0,42,42,65,1,,,,,,,,,,,,,space,0.4943,,,,,,,,,,,,,,,,,,,,,,,,,,,,,,,,,,,,,,,,,,,,,,,,,,,,,,,,,,,,,,,,,
,,,,093491,001,2023-10-24_21h31.22.071,fluency,2022.2.5,Win32,119.9184555,,,,,,,,,,,,,,,,,,,,,,,3,5,img/B05_03.jpg,BLEND,Press J if the face is a BLEND and K if the face is a NON-BLEND,A blend is a computer-generated image created by combining together multiple photos of real human faces. A non-blend is a regular photo of a human face.,JK,,,,,,,,,,,,,,,,,,,,,,,,,,,,,,,,,,,,,,,,,,,,,,,,,,,,,345.3178,0,43,43,47,1,109,0,0,0,0,1,98,,,,,,,,,,,,,,,,,,,,,,,,,,,,,,,,,,,,,,,,,,,,,,,,,,,,,,,,,,,,,,,,,,,,,,,,
,,,,093491,001,2023-10-24_21h31.22.071,fluency,2022.2.5,Win32,119.9184555,,,,,,,,,,,,,,,,,,,,,,,,,,,,,,,,,,,,,,,,,,,,,,,,,,,,,,,,,,,,,,,,,,,,,,,,,,,,,,,,,,,,,,,,,0,0,0,0,1,,"[""j""]",[0.7513999999761154],1,"[""j""]",[0.7513999999761154],,,,,,,,,,,,,,,,,,,,,,,,,,,,,,,,,,,,,,,,,,,,,,,,,,,,,,,,,,,,,,,,,,,
,,,,093491,001,2023-10-24_21h31.22.071,fluency,2022.2.5,Win32,119.9184555,,,,,,,,,,,,,,,,,,,,,,,3,5,img/B05_03.jpg,BLEND,Press J if the face is a BLEND and K if the face is a NON-BLEND,A blend is a computer-generated image created by combining together multiple photos of real human faces. A non-blend is a regular photo of a human face.,JK,,,,,,,,,,,,,,,,,,,,,,,,,,,,,,,,,,,,,,,5,0.3894,,,,,,,,,,,,,,0,43,43,47,1,,,,,,,,,,,,,space,0.2448,,,,,,,,,,,,,,,,,,,,,,,,,,,,,,,,,,,,,,,,,,,,,,,,,,,,,,,,,,,,,,,,,
,,,,093491,001,2023-10-24_21h31.22.071,fluency,2022.2.5,Win32,119.9184555,,,,,,,,,,,,,,,,,,,,,,,0,6,img/B06_00.jpg,BLEND,Press J if the face is a BLEND and K if the face is a NON-BLEND,A blend is a computer-generated image created by combining together multiple photos of real human faces. A non-blend is a regular photo of a human face.,JK,,,,,,,,,,,,,,,,,,,,,,,,,,,,,,,,,,,,,,,,,,,,,,,,,,,,,350.9763,0,44,44,55,1,109,0,0,0,0,1,98,,,,,,,,,,,,,,,,,,,,,,,,,,,,,,,,,,,,,,,,,,,,,,,,,,,,,,,,,,,,,,,,,,,,,,,,
,,,,093491,001,2023-10-24_21h31.22.071,fluency,2022.2.5,Win32,119.9184555,,,,,,,,,,,,,,,,,,,,,,,,,,,,,,,,,,,,,,,,,,,,,,,,,,,,,,,,,,,,,,,,,,,,,,,,,,,,,,,,,,,,,,,,,0,0,0,0,1,,"[""j""]",[0.9036000000238573],1,"[""j""]",[0.9036000000238573],,,,,,,,,,,,,,,,,,,,,,,,,,,,,,,,,,,,,,,,,,,,,,,,,,,,,,,,,,,,,,,,,,,
,,,,093491,001,2023-10-24_21h31.22.071,fluency,2022.2.5,Win32,119.9184555,,,,,,,,,,,,,,,,,,,,,,,0,6,img/B06_00.jpg,BLEND,Press J if the face is a BLEND and K if the face is a NON-BLEND,A blend is a computer-generated image created by combining together multiple photos of real human faces. A non-blend is a regular photo of a human face.,JK,,,,,,,,,,,,,,,,,,,,,,,,,,,,,,,,,,,,,,,4,0.3206,,,,,,,,,,,,,,0,44,44,55,1,,,,,,,,,,,,,space,0.3731,,,,,,,,,,,,,,,,,,,,,,,,,,,,,,,,,,,,,,,,,,,,,,,,,,,,,,,,,,,,,,,,,
,,,,093491,001,2023-10-24_21h31.22.071,fluency,2022.2.5,Win32,119.9184555,,,,,,,,,,,,,,,,,,,,,,,0,9,img/B09_00.jpg,BLEND,Press J if the face is a BLEND and K if the face is a NON-BLEND,A blend is a computer-generated image created by combining together multiple photos of real human faces. A non-blend is a regular photo of a human face.,JK,,,,,,,,,,,,,,,,,,,,,,,,,,,,,,,,,,,,,,,,,,,,,,,,,,,,,355.693,0,45,45,88,1,109,0,0,0,0,1,98,,,,,,,,,,,,,,,,,,,,,,,,,,,,,,,,,,,,,,,,,,,,,,,,,,,,,,,,,,,,,,,,,,,,,,,,
,,,,093491,001,2023-10-24_21h31.22.071,fluency,2022.2.5,Win32,119.9184555,,,,,,,,,,,,,,,,,,,,,,,,,,,,,,,,,,,,,,,,,,,,,,,,,,,,,,,,,,,,,,,,,,,,,,,,,,,,,,,,,,,,,,,,,0,0,0,0,1,,"[""j""]",[0.7491000000238728],1,"[""j""]",[0.7491000000238728],,,,,,,,,,,,,,,,,,,,,,,,,,,,,,,,,,,,,,,,,,,,,,,,,,,,,,,,,,,,,,,,,,,
,,,,093491,001,2023-10-24_21h31.22.071,fluency,2022.2.5,Win32,119.9184555,,,,,,,,,,,,,,,,,,,,,,,0,9,img/B09_00.jpg,BLEND,Press J if the face is a BLEND and K if the face is a NON-BLEND,A blend is a computer-generated image created by combining together multiple photos of real human faces. A non-blend is a regular photo of a human face.,JK,,,,,,,,,,,,,,,,,,,,,,,,,,,,,,,,,,,,,,,3,0.4068,,,,,,,,,,,,,,0,45,45,88,1,,,,,,,,,,,,,space,0.2632,,,,,,,,,,,,,,,,,,,,,,,,,,,,,,,,,,,,,,,,,,,,,,,,,,,,,,,,,,,,,,,,,
,,,,093491,001,2023-10-24_21h31.22.071,fluency,2022.2.5,Win32,119.9184555,,,,,,,,,,,,,,,,,,,,,,,2,6,img/B06_02.jpg,BLEND,Press J if the face is a BLEND and K if the face is a NON-BLEND,A blend is a computer-generated image created by combining together multiple photos of real human faces. A non-blend is a regular photo of a human face.,JK,,,,,,,,,,,,,,,,,,,,,,,,,,,,,,,,,,,,,,,,,,,,,,,,,,,,,360.3765,0,46,46,57,1,109,0,0,0,0,1,98,,,,,,,,,,,,,,,,,,,,,,,,,,,,,,,,,,,,,,,,,,,,,,,,,,,,,,,,,,,,,,,,,,,,,,,,
,,,,093491,001,2023-10-24_21h31.22.071,fluency,2022.2.5,Win32,119.9184555,,,,,,,,,,,,,,,,,,,,,,,,,,,,,,,,,,,,,,,,,,,,,,,,,,,,,,,space,3.1045,,,,,,,,,,,,,,,,,,,,,,,,,,,,,,,,,,,,,,,,,2,,,,,0,0,0,0,1,,,,,,,,,,,,,,,,,,,,,,,,,,,,,,,,,,,,,,,,,,,,,,,,,,,,,,,,,,,,
,,,,093491,001,2023-10-24_21h31.22.071,fluency,2022.2.5,Win32,119.9184555,,,,,,,,,,,,,,,,,,,,,,,,,,,,,,,,,,,,,,,,,,,,,,,,,,,,,,,,,,,,,,,,,,,,,,,,,,,,,,,,,,,,,,,,,0,0,0,0,1,,,,,,,,,,,,,,,,,,,,,,,,,,,,,,,,,,,,,,,,,,,,,,,,,,,,,,,,,,,,,,,,,,,,,,,,,
,,,,093491,001,2023-10-24_21h31.22.071,fluency,2022.2.5,Win32,119.9184555,,,,,,,,,,,,,,,,,,,,,,,2,6,img/B06_02.jpg,BLEND,Press J if the face is a BLEND and K if the face is a NON-BLEND,A blend is a computer-generated image created by combining together multiple photos of real human faces. A non-blend is a regular photo of a human face.,JK,,,,,,,,,,,,,,,,,,,,,,,,,,,,,,,,,,,,,,,,,,,,,,,,,,,,,367.5017,0,46,46,57,1,109,1,0,1,0,1,98,,,,,,,,,,,,,,,,,,,,,,,,,,,,,,,,,,,,,,,,,,,,,,,,,,,,,,,,,,,,,,,,,,,,,,,,
,,,,093491,001,2023-10-24_21h31.22.071,fluency,2022.2.5,Win32,119.9184555,,,,,,,,,,,,,,,,,,,,,,,,,,,,,,,,,,,,,,,,,,,,,,,,,,,,,,,,,,,,,,,,,,,,,,,,,,,,,,,,,,,,,,,,,1,0,1,0,1,,"[""k""]",[1.0196000000238428],2,"[""k""]",[1.0194999999999936],,,,,,,,,,,,,,,,,,,,,,,,,,,,,,,,,,,,,,,,,,,,,,,,,,,,,,,,,,,,,,,,,,,
,,,,093491,001,2023-10-24_21h31.22.071,fluency,2022.2.5,Win32,119.9184555,,,,,,,,,,,,,,,,,,,,,,,2,6,img/B06_02.jpg,BLEND,Press J if the face is a BLEND and K if the face is a NON-BLEND,A blend is a computer-generated image created by combining together multiple photos of real human faces. A non-blend is a regular photo of a human face.,JK,,,,,,,,,,,,,,,,,,,,,,,,,,,,,,,,,,,,,,,5,1.1711,,,,,,,,,,,,,,0,46,46,57,1,,,,,,,,,,,,,space,0.5516,,,,,,,,,,,,,,,,,,,,,,,,,,,,,,,,,,,,,,,,,,,,,,,,,,,,,,,,,,,,,,,,,
,,,,093491,001,2023-10-24_21h31.22.071,fluency,2022.2.5,Win32,119.9184555,,,,,,,,,,,,,,,,,,,,,,,9,8,img/B08_09.jpg,BLEND,Press J if the face is a BLEND and K if the face is a NON-BLEND,A blend is a computer-generated image created by combining together multiple photos of real human faces. A non-blend is a regular photo of a human face.,JK,,,,,,,,,,,,,,,,,,,,,,,,,,,,,,,,,,,,,,,,,,,,,,,,,,,,,373.2518,0,47,47,86,1,109,0,0,0,0,1,98,,,,,,,,,,,,,,,,,,,,,,,,,,,,,,,,,,,,,,,,,,,,,,,,,,,,,,,,,,,,,,,,,,,,,,,,
,,,,093491,001,2023-10-24_21h31.22.071,fluency,2022.2.5,Win32,119.9184555,,,,,,,,,,,,,,,,,,,,,,,,,,,,,,,,,,,,,,,,,,,,,,,,,,,,,,,,,,,,,,,,,,,,,,,,,,,,,,,,,,,,,,,,,0,0,0,0,1,,"[""k""]",[1.2401999999285067],2,"[""k""]",[1.2401999999285067],,,,,,,,,,,,,,,,,,,,,,,,,,,,,,,,,,,,,,,,,,,,,,,,,,,,,,,,,,,,,,,,,,,
,,,,093491,001,2023-10-24_21h31.22.071,fluency,2022.2.5,Win32,119.9184555,,,,,,,,,,,,,,,,,,,,,,,9,8,img/B08_09.jpg,BLEND,Press J if the face is a BLEND and K if the face is a NON-BLEND,A blend is a computer-generated image created by combining together multiple photos of real human faces. A non-blend is a regular photo of a human face.,JK,,,,,,,,,,,,,,,,,,,,,,,,,,,,,,,,,,,,,,,2,0.3137,,,,,,,,,,,,,,0,47,47,86,1,,,,,,,,,,,,,space,0.2618,,,,,,,,,,,,,,,,,,,,,,,,,,,,,,,,,,,,,,,,,,,,,,,,,,,,,,,,,,,,,,,,,
,,,,093491,001,2023-10-24_21h31.22.071,fluency,2022.2.5,Win32,119.9184555,,,,,,,,,,,,,,,,,,,,,,,2,5,img/B05_02.jpg,BLEND,Press J if the face is a BLEND and K if the face is a NON-BLEND,A blend is a computer-generated image created by combining together multiple photos of real human faces. A non-blend is a regular photo of a human face.,JK,,,,,,,,,,,,,,,,,,,,,,,,,,,,,,,,,,,,,,,,,,,,,,,,,,,,,377.8519,0,48,48,46,1,109,0,0,0,0,1,98,,,,,,,,,,,,,,,,,,,,,,,,,,,,,,,,,,,,,,,,,,,,,,,,,,,,,,,,,,,,,,,,,,,,,,,,
,,,,093491,001,2023-10-24_21h31.22.071,fluency,2022.2.5,Win32,119.9184555,,,,,,,,,,,,,,,,,,,,,,,,,,,,,,,,,,,,,,,,,,,,,,,,,,,,,,,,,,,,,,,,,,,,,,,,,,,,,,,,,,,,,,,,,0,0,0,0,1,,"[""k""]",[1.1800000000000068],2,"[""k""]",[1.1798999999761577],,,,,,,,,,,,,,,,,,,,,,,,,,,,,,,,,,,,,,,,,,,,,,,,,,,,,,,,,,,,,,,,,,,
,,,,093491,001,2023-10-24_21h31.22.071,fluency,2022.2.5,Win32,119.9184555,,,,,,,,,,,,,,,,,,,,,,,2,5,img/B05_02.jpg,BLEND,Press J if the face is a BLEND and K if the face is a NON-BLEND,A blend is a computer-generated image created by combining together multiple photos of real human faces. A non-blend is a regular photo of a human face.,JK,,,,,,,,,,,,,,,,,,,,,,,,,,,,,,,,,,,,,,,5,0.4855,,,,,,,,,,,,,,0,48,48,46,1,,,,,,,,,,,,,space,0.1975,,,,,,,,,,,,,,,,,,,,,,,,,,,,,,,,,,,,,,,,,,,,,,,,,,,,,,,,,,,,,,,,,
,,,,093491,001,2023-10-24_21h31.22.071,fluency,2022.2.5,Win32,119.9184555,,,,,,,,,,,,,,,,,,,,,,,3,6,img/B06_03.jpg,BLEND,Press J if the face is a BLEND and K if the face is a NON-BLEND,A blend is a computer-generated image created by combining together multiple photos of real human faces. A non-blend is a regular photo of a human face.,JK,,,,,,,,,,,,,,,,,,,,,,,,,,,,,,,,,,,,,,,,,,,,,,,,,,,,,383.5604,0,49,49,58,1,109,0,0,0,0,1,98,,,,,,,,,,,,,,,,,,,,,,,,,,,,,,,,,,,,,,,,,,,,,,,,,,,,,,,,,,,,,,,,,,,,,,,,
,,,,093491,001,2023-10-24_21h31.22.071,fluency,2022.2.5,Win32,119.9184555,,,,,,,,,,,,,,,,,,,,,,,,,,,,,,,,,,,,,,,,,,,,,,,,,,,,,,,,,,,,,,,,,,,,,,,,,,,,,,,,,,,,,,,,,0,0,0,0,1,,"[""j""]",[0.9805000000000064],2,"[""j""]",[0.9805000000000064],,,,,,,,,,,,,,,,,,,,,,,,,,,,,,,,,,,,,,,,,,,,,,,,,,,,,,,,,,,,,,,,,,,
,,,,093491,001,2023-10-24_21h31.22.071,fluency,2022.2.5,Win32,119.9184555,,,,,,,,,,,,,,,,,,,,,,,3,6,img/B06_03.jpg,BLEND,Press J if the face is a BLEND and K if the face is a NON-BLEND,A blend is a computer-generated image created by combining together multiple photos of real human faces. A non-blend is a regular photo of a human face.,JK,,,,,,,,,,,,,,,,,,,,,,,,,,,,,,,,,,,,,,,3,0.336,,,,,,,,,,,,,,0,49,49,58,1,,,,,,,,,,,,,space,0.8005,,,,,,,,,,,,,,,,,,,,,,,,,,,,,,,,,,,,,,,,,,,,,,,,,,,,,,,,,,,,,,,,,
,,,,093491,001,2023-10-24_21h31.22.071,fluency,2022.2.5,Win32,119.9184555,,,,,,,,,,,,,,,,,,,,,,,0,1,img/B01_00.jpg,BLEND,Press J if the face is a BLEND and K if the face is a NON-BLEND,A blend is a computer-generated image created by combining together multiple photos of real human faces. A non-blend is a regular photo of a human face.,JK,,,,,,,,,,,,,,,,,,,,,,,,,,,,,,,,,,,,,,,,,,,,,,,,,,,,,388.7188,0,50,50,0,1,109,0,0,0,0,1,98,,,,,,,,,,,,,,,,,,,,,,,,,,,,,,,,,,,,,,,,,,,,,,,,,,,,,,,,,,,,,,,,,,,,,,,,
,,,,093491,001,2023-10-24_21h31.22.071,fluency,2022.2.5,Win32,119.9184555,,,,,,,,,,,,,,,,,,,,,,,,,,,,,,,,,,,,,,,,,,,,,,,,,,,,,,,,,,,,,,,,,,,,,,,,,,,,,,,,,,,,,,,,,0,0,0,0,1,,"[""j""]",[0.8401000000238241],2,"[""j"",""space""]","[0.839999999999975,1.4048999999761236]",,,,,,,,,,,,,,,,,,,,,,,,,,,,,,,,,,,,,,,,,,,,,,,,,,,,,,,,,,,,,,,,,,,
,,,,093491,001,2023-10-24_21h31.22.071,fluency,2022.2.5,Win32,119.9184555,,,,,,,,,,,,,,,,,,,,,,,0,1,img/B01_00.jpg,BLEND,Press J if the face is a BLEND and K if the face is a NON-BLEND,A blend is a computer-generated image created by combining together multiple photos of real human faces. A non-blend is a regular photo of a human face.,JK,,,,,,,,,,,,,,,,,,,,,,,,,,,,,,,,,,,,,,,4,0.2796,,,,,,,,,,,,,,0,50,50,0,1,,,,,,,,,,,,,space,0.226,,,,,,,,,,,,,,,,,,,,,,,,,,,,,,,,,,,,,,,,,,,,,,,,,,,,,,,,,,,,,,,,,
,,,,093491,001,2023-10-24_21h31.22.071,fluency,2022.2.5,Win32,119.9184555,,,,,,,,,,,,,,,,,,,,,,,7,10,img/B10_07.jpg,BLEND,Press J if the face is a BLEND and K if the face is a NON-BLEND,A blend is a computer-generated image created by combining together multiple photos of real human faces. A non-blend is a regular photo of a human face.,JK,,,,,,,,,,,,,,,,,,,,,,,,,,,,,,,,,,,,,,,,,,,,,,,,,,,,,393.2523,0,51,51,106,1,109,0,0,0,0,1,98,,,,,,,,,,,,,,,,,,,,,,,,,,,,,,,,,,,,,,,,,,,,,,,,,,,,,,,,,,,,,,,,,,,,,,,,
,,,,093491,001,2023-10-24_21h31.22.071,fluency,2022.2.5,Win32,119.9184555,,,,,,,,,,,,,,,,,,,,,,,,,,,,,,,,,,,,,,,,,,,,,,,,,,,,,,,,,,,,,,,,,,,,,,,,,,,,,,,,,,,,,,,,,0,0,0,0,1,,"[""k""]",[2.062000000000012],2,"[""k""]",[2.0618999999761627],,,,,,,,,,,,,,,,,,,,,,,,,,,,,,,,,,,,,,,,,,,,,,,,,,,,,,,,,,,,,,,,,,,
,,,,093491,001,2023-10-24_21h31.22.071,fluency,2022.2.5,Win32,119.9184555,,,,,,,,,,,,,,,,,,,,,,,7,10,img/B10_07.jpg,BLEND,Press J if the face is a BLEND and K if the face is a NON-BLEND,A blend is a computer-generated image created by combining together multiple photos of real human faces. A non-blend is a regular photo of a human face.,JK,,,,,,,,,,,,,,,,,,,,,,,,,,,,,,,,,,,,,,,5,0.7143,,,,,,,,,,,,,,0,51,51,106,1,,,,,,,,,,,,,space,0.3032,,,,,,,,,,,,,,,,,,,,,,,,,,,,,,,,,,,,,,,,,,,,,,,,,,,,,,,,,,,,,,,,,
,,,,093491,001,2023-10-24_21h31.22.071,fluency,2022.2.5,Win32,119.9184555,,,,,,,,,,,,,,,,,,,,,,,0,4,img/B04_00.jpg,BLEND,Press J if the face is a BLEND and K if the face is a NON-BLEND,A blend is a computer-generated image created by combining together multiple photos of real human faces. A non-blend is a regular photo of a human face.,JK,,,,,,,,,,,,,,,,,,,,,,,,,,,,,,,,,,,,,,,,,,,,,,,,,,,,,398.2857,0,52,52,33,1,109,0,0,0,0,1,98,,,,,,,,,,,,,,,,,,,,,,,,,,,,,,,,,,,,,,,,,,,,,,,,,,,,,,,,,,,,,,,,,,,,,,,,
,,,,093491,001,2023-10-24_21h31.22.071,fluency,2022.2.5,Win32,119.9184555,,,,,,,,,,,,,,,,,,,,,,,,,,,,,,,,,,,,,,,,,,,,,,,,,,,,,,,,,,,,,,,,,,,,,,,,,,,,,,,,,,,,,,,,,0,0,0,0,1,,"[""j""]",[1.4071999999284799],2,"[""j"",""space"",""space""]","[1.4071999999284799,1.7551000000238446,2.8331999999284676]",,,,,,,,,,,,,,,,,,,,,,,,,,,,,,,,,,,,,,,,,,,,,,,,,,,,,,,,,,,,,,,,,,,
,,,,093491,001,2023-10-24_21h31.22.071,fluency,2022.2.5,Win32,119.9184555,,,,,,,,,,,,,,,,,,,,,,,0,4,img/B04_00.jpg,BLEND,Press J if the face is a BLEND and K if the face is a NON-BLEND,A blend is a computer-generated image created by combining together multiple photos of real human faces. A non-blend is a regular photo of a human face.,JK,,,,,,,,,,,,,,,,,,,,,,,,,,,,,,,,,,,,,,,5,0.4229,,,,,,,,,,,,,,0,52,52,33,1,,,,,,,,,,,,,space,0.1232,,,,,,,,,,,,,,,,,,,,,,,,,,,,,,,,,,,,,,,,,,,,,,,,,,,,,,,,,,,,,,,,,
,,,,093491,001,2023-10-24_21h31.22.071,fluency,2022.2.5,Win32,119.9184555,,,,,,,,,,,,,,,,,,,,,,,6,8,img/B08_06.jpg,BLEND,Press J if the face is a BLEND and K if the face is a NON-BLEND,A blend is a computer-generated image created by combining together multiple photos of real human faces. A non-blend is a regular photo of a human face.,JK,,,,,,,,,,,,,,,,,,,,,,,,,,,,,,,,,,,,,,,,,,,,,,,,,,,,,403.8609,0,53,53,83,1,109,0,0,0,0,1,98,,,,,,,,,,,,,,,,,,,,,,,,,,,,,,,,,,,,,,,,,,,,,,,,,,,,,,,,,,,,,,,,,,,,,,,,
,,,,093491,001,2023-10-24_21h31.22.071,fluency,2022.2.5,Win32,119.9184555,,,,,,,,,,,,,,,,,,,,,,,,,,,,,,,,,,,,,,,,,,,,,,,,,,,,,,,,,,,,,,,,,,,,,,,,,,,,,,,,,,,,,,,,,0,0,0,0,1,,"[""j""]",[0.9651999999285295],2,"[""j"",""space""]","[0.9651999999285295,1.1300000000000523]",,,,,,,,,,,,,,,,,,,,,,,,,,,,,,,,,,,,,,,,,,,,,,,,,,,,,,,,,,,,,,,,,,,
,,,,093491,001,2023-10-24_21h31.22.071,fluency,2022.2.5,Win32,119.9184555,,,,,,,,,,,,,,,,,,,,,,,6,8,img/B08_06.jpg,BLEND,Press J if the face is a BLEND and K if the face is a NON-BLEND,A blend is a computer-generated image created by combining together multiple photos of real human faces. A non-blend is a regular photo of a human face.,JK,,,,,,,,,,,,,,,,,,,,,,,,,,,,,,,,,,,,,,,4,0.3932,,,,,,,,,,,,,,0,53,53,83,1,,,,,,,,,,,,,space,0.2646,,,,,,,,,,,,,,,,,,,,,,,,,,,,,,,,,,,,,,,,,,,,,,,,,,,,,,,,,,,,,,,,,
,,,,093491,001,2023-10-24_21h31.22.071,fluency,2022.2.5,Win32,119.9184555,,,,,,,,,,,,,,,,,,,,,,,3,2,img/B02_03.jpg,BLEND,Press J if the face is a BLEND and K if the face is a NON-BLEND,A blend is a computer-generated image created by combining together multiple photos of real human faces. A non-blend is a regular photo of a human face.,JK,,,,,,,,,,,,,,,,,,,,,,,,,,,,,,,,,,,,,,,,,,,,,,,,,,,,,408.536,0,54,54,14,1,109,0,0,0,0,1,98,,,,,,,,,,,,,,,,,,,,,,,,,,,,,,,,,,,,,,,,,,,,,,,,,,,,,,,,,,,,,,,,,,,,,,,,
,,,,093491,001,2023-10-24_21h31.22.071,fluency,2022.2.5,Win32,119.9184555,,,,,,,,,,,,,,,,,,,,,,,,,,,,,,,,,,,,,,,,,,,,,,,,,,,,,,,,,,,,,,,,,,,,,,,,,,,,,,,,,,,,,,,,,0,0,0,0,1,,"[""j""]",[0.8570999999046194],2,"[""j""]",[0.8570999999046194],,,,,,,,,,,,,,,,,,,,,,,,,,,,,,,,,,,,,,,,,,,,,,,,,,,,,,,,,,,,,,,,,,,
,,,,093491,001,2023-10-24_21h31.22.071,fluency,2022.2.5,Win32,119.9184555,,,,,,,,,,,,,,,,,,,,,,,3,2,img/B02_03.jpg,BLEND,Press J if the face is a BLEND and K if the face is a NON-BLEND,A blend is a computer-generated image created by combining together multiple photos of real human faces. A non-blend is a regular photo of a human face.,JK,,,,,,,,,,,,,,,,,,,,,,,,,,,,,,,,,,,,,,,1,0.3049,,,,,,,,,,,,,,0,54,54,14,1,,,,,,,,,,,,,space,1.2012,,,,,,,,,,,,,,,,,,,,,,,,,,,,,,,,,,,,,,,,,,,,,,,,,,,,,,,,,,,,,,,,,
,,,,093491,001,2023-10-24_21h31.22.071,fluency,2022.2.5,Win32,119.9184555,,,,,,,,,,,,,,,,,,,,,,,5,6,img/B06_05.jpg,BLEND,Press J if the face is a BLEND and K if the face is a NON-BLEND,A blend is a computer-generated image created by combining together multiple photos of real human faces. A non-blend is a regular photo of a human face.,JK,,,,,,,,,,,,,,,,,,,,,,,,,,,,,,,,,,,,,,,,,,,,,,,,,,,,,415.0611,0,55,55,60,1,109,0,0,0,0,1,98,,,,,,,,,,,,,,,,,,,,,,,,,,,,,,,,,,,,,,,,,,,,,,,,,,,,,,,,,,,,,,,,,,,,,,,,
,,,,093491,001,2023-10-24_21h31.22.071,fluency,2022.2.5,Win32,119.9184555,,,,,,,,,,,,,,,,,,,,,,,,,,,,,,,,,,,,,,,,,,,,,,,,,,,,,,,,,,,,,,,,,,,,,,,,,,,,,,,,,,,,,,,,,0,0,0,0,1,,"[""j""]",[1.762800000071536],2,"[""j""]",[1.7628999999761845],,,,,,,,,,,,,,,,,,,,,,,,,,,,,,,,,,,,,,,,,,,,,,,,,,,,,,,,,,,,,,,,,,,
,,,,093491,001,2023-10-24_21h31.22.071,fluency,2022.2.5,Win32,119.9184555,,,,,,,,,,,,,,,,,,,,,,,5,6,img/B06_05.jpg,BLEND,Press J if the face is a BLEND and K if the face is a NON-BLEND,A blend is a computer-generated image created by combining together multiple photos of real human faces. A non-blend is a regular photo of a human face.,JK,,,,,,,,,,,,,,,,,,,,,,,,,,,,,,,,,,,,,,,5,0.3879,,,,,,,,,,,,,,0,55,55,60,1,,,,,,,,,,,,,space,0.2135,,,,,,,,,,,,,,,,,,,,,,,,,,,,,,,,,,,,,,,,,,,,,,,,,,,,,,,,,,,,,,,,,
,,,,093491,001,2023-10-24_21h31.22.071,fluency,2022.2.5,Win32,119.9184555,,,,,,,,,,,,,,,,,,,,,,,6,6,img/B06_06.jpg,BLEND,Press J if the face is a BLEND and K if the face is a NON-BLEND,A blend is a computer-generated image created by combining together multiple photos of real human faces. A non-blend is a regular photo of a human face.,JK,,,,,,,,,,,,,,,,,,,,,,,,,,,,,,,,,,,,,,,,,,,,,,,,,,,,,419.6862,0,56,56,61,1,109,0,0,0,0,1,98,,,,,,,,,,,,,,,,,,,,,,,,,,,,,,,,,,,,,,,,,,,,,,,,,,,,,,,,,,,,,,,,,,,,,,,,
,,,,093491,001,2023-10-24_21h31.22.071,fluency,2022.2.5,Win32,119.9184555,,,,,,,,,,,,,,,,,,,,,,,,,,,,,,,,,,,,,,,,,,,,,,,,,,,,,,,,,,,,,,,,,,,,,,,,,,,,,,,,,,,,,,,,,0,0,0,0,1,,"[""j""]",[0.9076000000238196],2,"[""j""]",[0.9074999999999704],,,,,,,,,,,,,,,,,,,,,,,,,,,,,,,,,,,,,,,,,,,,,,,,,,,,,,,,,,,,,,,,,,,
,,,,093491,001,2023-10-24_21h31.22.071,fluency,2022.2.5,Win32,119.9184555,,,,,,,,,,,,,,,,,,,,,,,6,6,img/B06_06.jpg,BLEND,Press J if the face is a BLEND and K if the face is a NON-BLEND,A blend is a computer-generated image created by combining together multiple photos of real human faces. A non-blend is a regular photo of a human face.,JK,,,,,,,,,,,,,,,,,,,,,,,,,,,,,,,,,,,,,,,5,0.3558,,,,,,,,,,,,,,0,56,56,61,1,,,,,,,,,,,,,space,0.1437,,,,,,,,,,,,,,,,,,,,,,,,,,,,,,,,,,,,,,,,,,,,,,,,,,,,,,,,,,,,,,,,,
,,,,093491,001,2023-10-24_21h31.22.071,fluency,2022.2.5,Win32,119.9184555,,,,,,,,,,,,,,,,,,,,,,,9,10,img/B10_09.jpg,BLEND,Press J if the face is a BLEND and K if the face is a NON-BLEND,A blend is a computer-generated image created by combining together multiple photos of real human faces. A non-blend is a regular photo of a human face.,JK,,,,,,,,,,,,,,,,,,,,,,,,,,,,,,,,,,,,,,,,,,,,,,,,,,,,,425.2113,0,57,57,108,1,109,0,0,0,0,1,98,,,,,,,,,,,,,,,,,,,,,,,,,,,,,,,,,,,,,,,,,,,,,,,,,,,,,,,,,,,,,,,,,,,,,,,,
,,,,093491,001,2023-10-24_21h31.22.071,fluency,2022.2.5,Win32,119.9184555,,,,,,,,,,,,,,,,,,,,,,,,,,,,,,,,,,,,,,,,,,,,,,,,,,,,,,,,,,,,,,,,,,,,,,,,,,,,,,,,,,,,,,,,,0,0,0,0,1,,"[""j""]",[0.8456999999285131],2,"[""j""]",[0.8451999999284681],,,,,,,,,,,,,,,,,,,,,,,,,,,,,,,,,,,,,,,,,,,,,,,,,,,,,,,,,,,,,,,,,,,
,,,,093491,001,2023-10-24_21h31.22.071,fluency,2022.2.5,Win32,119.9184555,,,,,,,,,,,,,,,,,,,,,,,9,10,img/B10_09.jpg,BLEND,Press J if the face is a BLEND and K if the face is a NON-BLEND,A blend is a computer-generated image created by combining together multiple photos of real human faces. A non-blend is a regular photo of a human face.,JK,,,,,,,,,,,,,,,,,,,,,,,,,,,,,,,,,,,,,,,4,0.2958,,,,,,,,,,,,,,0,57,57,108,1,,,,,,,,,,,,,space,0.2648,,,,,,,,,,,,,,,,,,,,,,,,,,,,,,,,,,,,,,,,,,,,,,,,,,,,,,,,,,,,,,,,,
,,,,093491,001,2023-10-24_21h31.22.071,fluency,2022.2.5,Win32,119.9184555,,,,,,,,,,,,,,,,,,,,,,,10,5,img/B05_10.jpg,BLEND,Press J if the face is a BLEND and K if the face is a NON-BLEND,A blend is a computer-generated image created by combining together multiple photos of real human faces. A non-blend is a regular photo of a human face.,JK,,,,,,,,,,,,,,,,,,,,,,,,,,,,,,,,,,,,,,,,,,,,,,,,,,,,,429.7948,0,58,58,54,1,109,0,0,0,0,1,98,,,,,,,,,,,,,,,,,,,,,,,,,,,,,,,,,,,,,,,,,,,,,,,,,,,,,,,,,,,,,,,,,,,,,,,,
,,,,093491,001,2023-10-24_21h31.22.071,fluency,2022.2.5,Win32,119.9184555,,,,,,,,,,,,,,,,,,,,,,,,,,,,,,,,,,,,,,,,,,,,,,,,,,,,,,,,,,,,,,,,,,,,,,,,,,,,,,,,,,,,,,,,,0,0,0,0,1,,"[""j""]",[1.137099999904649],2,"[""j""]",[1.1370000000000005],,,,,,,,,,,,,,,,,,,,,,,,,,,,,,,,,,,,,,,,,,,,,,,,,,,,,,,,,,,,,,,,,,,
,,,,093491,001,2023-10-24_21h31.22.071,fluency,2022.2.5,Win32,119.9184555,,,,,,,,,,,,,,,,,,,,,,,10,5,img/B05_10.jpg,BLEND,Press J if the face is a BLEND and K if the face is a NON-BLEND,A blend is a computer-generated image created by combining together multiple photos of real human faces. A non-blend is a regular photo of a human face.,JK,,,,,,,,,,,,,,,,,,,,,,,,,,,,,,,,,,,,,,,4,0.5866,,,,,,,,,,,,,,0,58,58,54,1,,,,,,,,,,,,,space,0.1575,,,,,,,,,,,,,,,,,,,,,,,,,,,,,,,,,,,,,,,,,,,,,,,,,,,,,,,,,,,,,,,,,
,,,,093491,001,2023-10-24_21h31.22.071,fluency,2022.2.5,Win32,119.9184555,,,,,,,,,,,,,,,,,,,,,,,9,7,img/B07_09.jpg,BLEND,Press J if the face is a BLEND and K if the face is a NON-BLEND,A blend is a computer-generated image created by combining together multiple photos of real human faces. A non-blend is a regular photo of a human face.,JK,,,,,,,,,,,,,,,,,,,,,,,,,,,,,,,,,,,,,,,,,,,,,,,,,,,,,435.57,0,59,59,75,1,109,0,0,0,0,1,98,,,,,,,,,,,,,,,,,,,,,,,,,,,,,,,,,,,,,,,,,,,,,,,,,,,,,,,,,,,,,,,,,,,,,,,,
,,,,093491,001,2023-10-24_21h31.22.071,fluency,2022.2.5,Win32,119.9184555,,,,,,,,,,,,,,,,,,,,,,,,,,,,,,,,,,,,,,,,,,,,,,,,,,,,,,,,,,,,,,,,,,,,,,,,,,,,,,,,,,,,,,,,,0,0,0,0,1,,"[""j""]",[1.715299999952265],2,"[""j""]",[1.715299999952265],,,,,,,,,,,,,,,,,,,,,,,,,,,,,,,,,,,,,,,,,,,,,,,,,,,,,,,,,,,,,,,,,,,
,,,,093491,001,2023-10-24_21h31.22.071,fluency,2022.2.5,Win32,119.9184555,,,,,,,,,,,,,,,,,,,,,,,9,7,img/B07_09.jpg,BLEND,Press J if the face is a BLEND and K if the face is a NON-BLEND,A blend is a computer-generated image created by combining together multiple photos of real human faces. A non-blend is a regular photo of a human face.,JK,,,,,,,,,,,,,,,,,,,,,,,,,,,,,,,,,,,,,,,7,2.0832,,,,,,,,,,,,,,0,59,59,75,1,,,,,,,,,,,,,space,0.1787,,,,,,,,,,,,,,,,,,,,,,,,,,,,,,,,,,,,,,,,,,,,,,,,,,,,,,,,,,,,,,,,,
,,,,093491,001,2023-10-24_21h31.22.071,fluency,2022.2.5,Win32,119.9184555,,,,,,,,,,,,,,,,,,,,,,,10,3,img/B03_10.jpg,BLEND,Press J if the face is a BLEND and K if the face is a NON-BLEND,A blend is a computer-generated image created by combining together multiple photos of real human faces. A non-blend is a regular photo of a human face.,JK,,,,,,,,,,,,,,,,,,,,,,,,,,,,,,,,,,,,,,,,,,,,,,,,,,,,,441.8535,0,60,60,32,1,109,0,0,0,0,1,98,,,,,,,,,,,,,,,,,,,,,,,,,,,,,,,,,,,,,,,,,,,,,,,,,,,,,,,,,,,,,,,,,,,,,,,,
,,,,093491,001,2023-10-24_21h31.22.071,fluency,2022.2.5,Win32,119.9184555,,,,,,,,,,,,,,,,,,,,,,,,,,,,,,,,,,,,,,,,,,,,,,,,,,,,,,,,,,,,,,,,,,,,,,,,,,,,,,,,,,,,,,,,,0,0,0,0,1,,"[""j""]",[1.179300000071521],2,"[""j""]",[1.179300000071521],,,,,,,,,,,,,,,,,,,,,,,,,,,,,,,,,,,,,,,,,,,,,,,,,,,,,,,,,,,,,,,,,,,
,,,,093491,001,2023-10-24_21h31.22.071,fluency,2022.2.5,Win32,119.9184555,,,,,,,,,,,,,,,,,,,,,,,10,3,img/B03_10.jpg,BLEND,Press J if the face is a BLEND and K if the face is a NON-BLEND,A blend is a computer-generated image created by combining together multiple photos of real human faces. A non-blend is a regular photo of a human face.,JK,,,,,,,,,,,,,,,,,,,,,,,,,,,,,,,,,,,,,,,5,0.5388,,,,,,,,,,,,,,0,60,60,32,1,,,,,,,,,,,,,space,0.1865,,,,,,,,,,,,,,,,,,,,,,,,,,,,,,,,,,,,,,,,,,,,,,,,,,,,,,,,,,,,,,,,,
,,,,093491,001,2023-10-24_21h31.22.071,fluency,2022.2.5,Win32,119.9184555,,,,,,,,,,,,,,,,,,,,,,,10,1,img/B01_10.jpg,BLEND,Press J if the face is a BLEND and K if the face is a NON-BLEND,A blend is a computer-generated image created by combining together multiple photos of real human faces. A non-blend is a regular photo of a human face.,JK,,,,,,,,,,,,,,,,,,,,,,,,,,,,,,,,,,,,,,,,,,,,,,,,,,,,,447.6036,0,61,61,10,1,109,0,0,0,0,1,98,,,,,,,,,,,,,,,,,,,,,,,,,,,,,,,,,,,,,,,,,,,,,,,,,,,,,,,,,,,,,,,,,,,,,,,,
,,,,093491,001,2023-10-24_21h31.22.071,fluency,2022.2.5,Win32,119.9184555,,,,,,,,,,,,,,,,,,,,,,,,,,,,,,,,,,,,,,,,,,,,,,,,,,,,,,,,,,,,,,,,,,,,,,,,,,,,,,,,,,,,,,,,,0,0,0,0,1,,"[""j""]",[1.0705000000000382],2,"[""j""]",[1.0701000000238423],,,,,,,,,,,,,,,,,,,,,,,,,,,,,,,,,,,,,,,,,,,,,,,,,,,,,,,,,,,,,,,,,,,
,,,,093491,001,2023-10-24_21h31.22.071,fluency,2022.2.5,Win32,119.9184555,,,,,,,,,,,,,,,,,,,,,,,10,1,img/B01_10.jpg,BLEND,Press J if the face is a BLEND and K if the face is a NON-BLEND,A blend is a computer-generated image created by combining together multiple photos of real human faces. A non-blend is a regular photo of a human face.,JK,,,,,,,,,,,,,,,,,,,,,,,,,,,,,,,,,,,,,,,3,0.3116,,,,,,,,,,,,,,0,61,61,10,1,,,,,,,,,,,,,space,0.2534,,,,,,,,,,,,,,,,,,,,,,,,,,,,,,,,,,,,,,,,,,,,,,,,,,,,,,,,,,,,,,,,,
,,,,093491,001,2023-10-24_21h31.22.071,fluency,2022.2.5,Win32,119.9184555,,,,,,,,,,,,,,,,,,,,,,,1,1,img/B01_01.jpg,BLEND,Press J if the face is a BLEND and K if the face is a NON-BLEND,A blend is a computer-generated image created by combining together multiple photos of real human faces. A non-blend is a regular photo of a human face.,JK,,,,,,,,,,,,,,,,,,,,,,,,,,,,,,,,,,,,,,,,,,,,,,,,,,,,,452.187,0,62,62,1,1,109,0,0,0,0,1,98,,,,,,,,,,,,,,,,,,,,,,,,,,,,,,,,,,,,,,,,,,,,,,,,,,,,,,,,,,,,,,,,,,,,,,,,
,,,,093491,001,2023-10-24_21h31.22.071,fluency,2022.2.5,Win32,119.9184555,,,,,,,,,,,,,,,,,,,,,,,,,,,,,,,,,,,,,,,,,,,,,,,,,,,,,,,,,,,,,,,,,,,,,,,,,,,,,,,,,,,,,,,,,0,0,0,0,1,,"[""j""]",[1.1868000000715142],2,"[""j""]",[1.1868000000715142],,,,,,,,,,,,,,,,,,,,,,,,,,,,,,,,,,,,,,,,,,,,,,,,,,,,,,,,,,,,,,,,,,,
,,,,093491,001,2023-10-24_21h31.22.071,fluency,2022.2.5,Win32,119.9184555,,,,,,,,,,,,,,,,,,,,,,,1,1,img/B01_01.jpg,BLEND,Press J if the face is a BLEND and K if the face is a NON-BLEND,A blend is a computer-generated image created by combining together multiple photos of real human faces. A non-blend is a regular photo of a human face.,JK,,,,,,,,,,,,,,,,,,,,,,,,,,,,,,,,,,,,,,,2,0.3075,,,,,,,,,,,,,,0,62,62,1,1,,,,,,,,,,,,,space,0.204,,,,,,,,,,,,,,,,,,,,,,,,,,,,,,,,,,,,,,,,,,,,,,,,,,,,,,,,,,,,,,,,,
,,,,093491,001,2023-10-24_21h31.22.071,fluency,2022.2.5,Win32,119.9184555,,,,,,,,,,,,,,,,,,,,,,,0,10,img/B10_00.jpg,BLEND,Press J if the face is a BLEND and K if the face is a NON-BLEND,A blend is a computer-generated image created by combining together multiple photos of real human faces. A non-blend is a regular photo of a human face.,JK,,,,,,,,,,,,,,,,,,,,,,,,,,,,,,,,,,,,,,,,,,,,,,,,,,,,,456.7204,0,63,63,99,1,109,0,0,0,0,1,98,,,,,,,,,,,,,,,,,,,,,,,,,,,,,,,,,,,,,,,,,,,,,,,,,,,,,,,,,,,,,,,,,,,,,,,,
,,,,093491,001,2023-10-24_21h31.22.071,fluency,2022.2.5,Win32,119.9184555,,,,,,,,,,,,,,,,,,,,,,,,,,,,,,,,,,,,,,,,,,,,,,,,,,,,,,,space,1.2281,,,,,,,,,,,,,,,,,,,,,,,,,,,,,,,,,,,,,,,,,3,,,,,0,0,0,0,1,,,,,,,,,,,,,,,,,,,,,,,,,,,,,,,,,,,,,,,,,,,,,,,,,,,,,,,,,,,,
,,,,093491,001,2023-10-24_21h31.22.071,fluency,2022.2.5,Win32,119.9184555,,,,,,,,,,,,,,,,,,,,,,,,,,,,,,,,,,,,,,,,,,,,,,,,,,,,,,,,,,,,,,,,,,,,,,,,,,,,,,,,,,,,,,,,,0,0,0,0,1,,,,,,,,,,,,,,,,,,,,,,,,,,,,,,,,,,,,,,,,,,,,,,,,,,,,,,,,,,,,,,,,,,,,,,,,,
,,,,093491,001,2023-10-24_21h31.22.071,fluency,2022.2.5,Win32,119.9184555,,,,,,,,,,,,,,,,,,,,,,,0,10,img/B10_00.jpg,BLEND,Press J if the face is a BLEND and K if the face is a NON-BLEND,A blend is a computer-generated image created by combining together multiple photos of real human faces. A non-blend is a regular photo of a human face.,JK,,,,,,,,,,,,,,,,,,,,,,,,,,,,,,,,,,,,,,,,,,,,,,,,,,,,,462.9706,0,63,63,99,1,109,1,0,1,0,1,98,,,,,,,,,,,,,,,,,,,,,,,,,,,,,,,,,,,,,,,,,,,,,,,,,,,,,,,,,,,,,,,,,,,,,,,,
,,,,093491,001,2023-10-24_21h31.22.071,fluency,2022.2.5,Win32,119.9184555,,,,,,,,,,,,,,,,,,,,,,,,,,,,,,,,,,,,,,,,,,,,,,,,,,,,,,,,,,,,,,,,,,,,,,,,,,,,,,,,,,,,,,,,,1,0,1,0,1,,"[""k""]",[0.5081000000238873],3,"[""k""]",[0.5081000000238873],,,,,,,,,,,,,,,,,,,,,,,,,,,,,,,,,,,,,,,,,,,,,,,,,,,,,,,,,,,,,,,,,,,
,,,,093491,001,2023-10-24_21h31.22.071,fluency,2022.2.5,Win32,119.9184555,,,,,,,,,,,,,,,,,,,,,,,0,10,img/B10_00.jpg,BLEND,Press J if the face is a BLEND and K if the face is a NON-BLEND,A blend is a computer-generated image created by combining together multiple photos of real human faces. A non-blend is a regular photo of a human face.,JK,,,,,,,,,,,,,,,,,,,,,,,,,,,,,,,,,,,,,,,6,0.2955,,,,,,,,,,,,,,0,63,63,99,1,,,,,,,,,,,,,space,1.0286,,,,,,,,,,,,,,,,,,,,,,,,,,,,,,,,,,,,,,,,,,,,,,,,,,,,,,,,,,,,,,,,,
,,,,093491,001,2023-10-24_21h31.22.071,fluency,2022.2.5,Win32,119.9184555,,,,,,,,,,,,,,,,,,,,,,,6,5,img/B05_06.jpg,BLEND,Press J if the face is a BLEND and K if the face is a NON-BLEND,A blend is a computer-generated image created by combining together multiple photos of real human faces. A non-blend is a regular photo of a human face.,JK,,,,,,,,,,,,,,,,,,,,,,,,,,,,,,,,,,,,,,,,,,,,,,,,,,,,,468.3208,0,64,64,50,1,109,0,0,0,0,1,98,,,,,,,,,,,,,,,,,,,,,,,,,,,,,,,,,,,,,,,,,,,,,,,,,,,,,,,,,,,,,,,,,,,,,,,,
,,,,093491,001,2023-10-24_21h31.22.071,fluency,2022.2.5,Win32,119.9184555,,,,,,,,,,,,,,,,,,,,,,,,,,,,,,,,,,,,,,,,,,,,,,,,,,,,,,,,,,,,,,,,,,,,,,,,,,,,,,,,,,,,,,,,,0,0,0,0,1,,"[""j""]",[1.0091000000238068],3,"[""j""]",[1.0091000000238068],,,,,,,,,,,,,,,,,,,,,,,,,,,,,,,,,,,,,,,,,,,,,,,,,,,,,,,,,,,,,,,,,,,
,,,,093491,001,2023-10-24_21h31.22.071,fluency,2022.2.5,Win32,119.9184555,,,,,,,,,,,,,,,,,,,,,,,6,5,img/B05_06.jpg,BLEND,Press J if the face is a BLEND and K if the face is a NON-BLEND,A blend is a computer-generated image created by combining together multiple photos of real human faces. A non-blend is a regular photo of a human face.,JK,,,,,,,,,,,,,,,,,,,,,,,,,,,,,,,,,,,,,,,5,0.274,,,,,,,,,,,,,,0,64,64,50,1,,,,,,,,,,,,,space,0.4935,,,,,,,,,,,,,,,,,,,,,,,,,,,,,,,,,,,,,,,,,,,,,,,,,,,,,,,,,,,,,,,,,
,,,,093491,001,2023-10-24_21h31.22.071,fluency,2022.2.5,Win32,119.9184555,,,,,,,,,,,,,,,,,,,,,,,10,9,img/B09_10.jpg,BLEND,Press J if the face is a BLEND and K if the face is a NON-BLEND,A blend is a computer-generated image created by combining together multiple photos of real human faces. A non-blend is a regular photo of a human face.,JK,,,,,,,,,,,,,,,,,,,,,,,,,,,,,,,,,,,,,,,,,,,,,,,,,,,,,474.1125,0,65,65,98,1,109,0,0,0,0,1,98,,,,,,,,,,,,,,,,,,,,,,,,,,,,,,,,,,,,,,,,,,,,,,,,,,,,,,,,,,,,,,,,,,,,,,,,
,,,,093491,001,2023-10-24_21h31.22.071,fluency,2022.2.5,Win32,119.9184555,,,,,,,,,,,,,,,,,,,,,,,,,,,,,,,,,,,,,,,,,,,,,,,,,,,,,,,,,,,,,,,,,,,,,,,,,,,,,,,,,,,,,,,,,0,0,0,0,1,,"[""j""]",[1.524000000000001],3,"[""j""]",[1.524000000000001],,,,,,,,,,,,,,,,,,,,,,,,,,,,,,,,,,,,,,,,,,,,,,,,,,,,,,,,,,,,,,,,,,,
,,,,093491,001,2023-10-24_21h31.22.071,fluency,2022.2.5,Win32,119.9184555,,,,,,,,,,,,,,,,,,,,,,,10,9,img/B09_10.jpg,BLEND,Press J if the face is a BLEND and K if the face is a NON-BLEND,A blend is a computer-generated image created by combining together multiple photos of real human faces. A non-blend is a regular photo of a human face.,JK,,,,,,,,,,,,,,,,,,,,,,,,,,,,,,,,,,,,,,,5,0.2401,,,,,,,,,,,,,,0,65,65,98,1,,,,,,,,,,,,,space,0.9317,,,,,,,,,,,,,,,,,,,,,,,,,,,,,,,,,,,,,,,,,,,,,,,,,,,,,,,,,,,,,,,,,
,,,,093491,001,2023-10-24_21h31.22.071,fluency,2022.2.5,Win32,119.9184555,,,,,,,,,,,,,,,,,,,,,,,2,3,img/B03_02.jpg,BLEND,Press J if the face is a BLEND and K if the face is a NON-BLEND,A blend is a computer-generated image created by combining together multiple photos of real human faces. A non-blend is a regular photo of a human face.,JK,,,,,,,,,,,,,,,,,,,,,,,,,,,,,,,,,,,,,,,,,,,,,,,,,,,,,480.3127,0,66,66,24,1,109,0,0,0,0,1,98,,,,,,,,,,,,,,,,,,,,,,,,,,,,,,,,,,,,,,,,,,,,,,,,,,,,,,,,,,,,,,,,,,,,,,,,
,,,,093491,001,2023-10-24_21h31.22.071,fluency,2022.2.5,Win32,119.9184555,,,,,,,,,,,,,,,,,,,,,,,,,,,,,,,,,,,,,,,,,,,,,,,,,,,,,,,,,,,,,,,,,,,,,,,,,,,,,,,,,,,,,,,,,0,0,0,0,1,,"[""k""]",[1.3694999999999595],3,"[""k""]",[1.3694999999999595],,,,,,,,,,,,,,,,,,,,,,,,,,,,,,,,,,,,,,,,,,,,,,,,,,,,,,,,,,,,,,,,,,,
,,,,093491,001,2023-10-24_21h31.22.071,fluency,2022.2.5,Win32,119.9184555,,,,,,,,,,,,,,,,,,,,,,,2,3,img/B03_02.jpg,BLEND,Press J if the face is a BLEND and K if the face is a NON-BLEND,A blend is a computer-generated image created by combining together multiple photos of real human faces. A non-blend is a regular photo of a human face.,JK,,,,,,,,,,,,,,,,,,,,,,,,,,,,,,,,,,,,,,,8,0.4156,,,,,,,,,,,,,,0,66,66,24,1,,,,,,,,,,,,,space,3.6646,,,,,,,,,,,,,,,,,,,,,,,,,,,,,,,,,,,,,,,,,,,,,,,,,,,,,,,,,,,,,,,,,
,,,,093491,001,2023-10-24_21h31.22.071,fluency,2022.2.5,Win32,119.9184555,,,,,,,,,,,,,,,,,,,,,,,5,7,img/B07_05.jpg,BLEND,Press J if the face is a BLEND and K if the face is a NON-BLEND,A blend is a computer-generated image created by combining together multiple photos of real human faces. A non-blend is a regular photo of a human face.,JK,,,,,,,,,,,,,,,,,,,,,,,,,,,,,,,,,,,,,,,,,,,,,,,,,,,,,488.4212,0,67,67,71,1,109,0,0,0,0,1,98,,,,,,,,,,,,,,,,,,,,,,,,,,,,,,,,,,,,,,,,,,,,,,,,,,,,,,,,,,,,,,,,,,,,,,,,
,,,,093491,001,2023-10-24_21h31.22.071,fluency,2022.2.5,Win32,119.9184555,,,,,,,,,,,,,,,,,,,,,,,,,,,,,,,,,,,,,,,,,,,,,,,,,,,,,,,,,,,,,,,,,,,,,,,,,,,,,,,,,,,,,,,,,0,0,0,0,1,,"[""j""]",[0.9375],3,"[""j""]",[0.9374000000952947],,,,,,,,,,,,,,,,,,,,,,,,,,,,,,,,,,,,,,,,,,,,,,,,,,,,,,,,,,,,,,,,,,,
,,,,093491,001,2023-10-24_21h31.22.071,fluency,2022.2.5,Win32,119.9184555,,,,,,,,,,,,,,,,,,,,,,,5,7,img/B07_05.jpg,BLEND,Press J if the face is a BLEND and K if the face is a NON-BLEND,A blend is a computer-generated image created by combining together multiple photos of real human faces. A non-blend is a regular photo of a human face.,JK,,,,,,,,,,,,,,,,,,,,,,,,,,,,,,,,,,,,,,,5,0.4158,,,,,,,,,,,,,,0,67,67,71,1,,,,,,,,,,,,,space,5.5831,,,,,,,,,,,,,,,,,,,,,,,,,,,,,,,,,,,,,,,,,,,,,,,,,,,,,,,,,,,,,,,,,
,,,,093491,001,2023-10-24_21h31.22.071,fluency,2022.2.5,Win32,119.9184555,,,,,,,,,,,,,,,,,,,,,,,5,5,img/B05_05.jpg,BLEND,Press J if the face is a BLEND and K if the face is a NON-BLEND,A blend is a computer-generated image created by combining together multiple photos of real human faces. A non-blend is a regular photo of a human face.,JK,,,,,,,,,,,,,,,,,,,,,,,,,,,,,,,,,,,,,,,,,,,,,,,,,,,,,499.4548,0,68,68,49,1,109,0,0,0,0,1,98,,,,,,,,,,,,,,,,,,,,,,,,,,,,,,,,,,,,,,,,,,,,,,,,,,,,,,,,,,,,,,,,,,,,,,,,
,,,,093491,001,2023-10-24_21h31.22.071,fluency,2022.2.5,Win32,119.9184555,,,,,,,,,,,,,,,,,,,,,,,,,,,,,,,,,,,,,,,,,,,,,,,,,,,,,,,,,,,,,,,,,,,,,,,,,,,,,,,,,,,,,,,,,0,0,0,0,1,,"[""j""]",[0.7617000000477674],3,"[""j""]",[0.7617000000477674],,,,,,,,,,,,,,,,,,,,,,,,,,,,,,,,,,,,,,,,,,,,,,,,,,,,,,,,,,,,,,,,,,,
