idTextbox.text,welcomeDone.numClicks,welcomeDone.timesOn,welcomeDone.timesOff,participant,session,date,expName,psychopyVersion,OS,frameRate,consent_advance.keys,consent_advance.rt,consent_advance_2.keys,consent_advance_2.rt,consentClick.x,consentClick.y,consentClick.leftButton,consentClick.midButton,consentClick.rightButton,consentClick.time,consentClick.clicked_name,instr_advance_3.keys,instr_advance_3.rt,spec_instr_adv.keys,spec_instr_adv.rt,spec_instr_adv2.keys,spec_instr_adv2.rt,instrLoop.thisRepN,instrLoop.thisTrialN,instrLoop.thisN,instrLoop.thisIndex,instrLoop.ran,steps,fams,face_file,cond,instr,term,key_map,attnKeyResp1.keys,attnKeyResp1.rt,q1.thisRepN,q1.thisTrialN,q1.thisN,q1.thisIndex,q1.ran,attnKeyResp2.keys,attnKeyResp2.rt,q2.thisRepN,q2.thisTrialN,q2.thisN,q2.thisIndex,q2.ran,attnKeyResp3.keys,attnKeyResp3.rt,q3.thisRepN,q3.thisTrialN,q3.thisN,q3.thisIndex,q3.ran,practiceStart.keys,practiceStart.rt,practiceResp.keys,practiceResp.rt,timesRedone,practiceRepeat.thisRepN,practiceRepeat.thisTrialN,practiceRepeat.thisN,practiceRepeat.thisIndex,practiceRepeat.ran,attrRating.keys,attrRating.rt,practiceTrial.thisRepN,practiceTrial.thisTrialN,practiceTrial.thisN,practiceTrial.thisIndex,practiceTrial.ran,key_resp_3.keys,key_resp_3.rt,attnChecker.thisRepN,attnChecker.thisTrialN,attnChecker.thisN,attnChecker.thisIndex,attnChecker.ran,faceOnsetTime,trials.thisRepN,trials.thisTrialN,trials.thisN,trials.thisIndex,trials.ran,trials.order,repeat_loop.thisRepN,repeat_loop.thisTrialN,repeat_loop.thisN,repeat_loop.thisIndex,repeat_loop.ran,repeat_loop.order,catResp.keys,catResp.rt,globalTimesRedone,catAllKeys.keys,catAllKeys.rt,contResp.keys,contResp.rt,contResp_2.keys,contResp_2.rt,respQ1.response,respQ1.rt,respQ2.response,respQ2.rt,respQ3.response,respQ3.rt,respQ4.response,respQ4.rt,surveyContinue1.numClicks,surveyContinue1.timesOn,surveyContinue1.timesOff,respQ5.response,respQ5.rt,respQ6.response,respQ6.rt,respQ7.response,respQ7.rt,respQ8.response,respQ8.rt,surveyContinue2.numClicks,surveyContinue2.timesOn,surveyContinue2.timesOff,respQ9.response,respQ9.rt,respQ10.response,respQ10.rt,respQ11.response,respQ11.rt,respQ12.response,respQ12.rt,surveyContinue3.numClicks,surveyContinue3.timesOn,surveyContinue3.timesOff,respQ13.response,respQ13.rt,respQ14.response,respQ14.rt,respQ15.response,respQ15.rt,surveyContinue4.numClicks,surveyContinue4.timesOn,surveyContinue4.timesOff,respAge.response,respAge.rt,genderResp1.response,genderResp1.rt,genderResp2.text,demogexitClick.numClicks,demogexitClick.timesOn,demogexitClick.timesOff,textbox.text,openAnswerClick.numClicks,openAnswerClick.timesOn,openAnswerClick.timesOff,debriefEnd.keys,debriefEnd.rt,exitKey.keys,exitKey.rt
646389d13c7f21d391c56172,1,[13.515000000000008],[13.515999999999998],517196,001,2023-09-29_00h34.53.253,fluency,2022.2.5,Win32,165.0165017,,,,,,,,,,,,,,,,,,,,,,,,,,,,,,,,,,,,,,,,,,,,,,,,,,,,,,,,,,,,,,,,,,,,,,,,,,,,,,,,,,,,,,,,,,,,,,,,,,,,,,,,,,,,,,,,,,,,,,,,,,,,,,,,,,,,,,,,,,,,,,,,,,,,,,,,,,
,,,,517196,001,2023-09-29_00h34.53.253,fluency,2022.2.5,Win32,165.0165017,space,16.831,,,,,,,,,,,,,,,,,,,,,,,,,,,,,,,,,,,,,,,,,,,,,,,,,,,,,,,,,,,,,,,,,,,,,,,,,,,,,,,,,,,,,,,,,,,,,,,,,,,,,,,,,,,,,,,,,,,,,,,,,,,,,,,,,,,,,,,,,,,,,,,,,,,,,,,,
,,,,517196,001,2023-09-29_00h34.53.253,fluency,2022.2.5,Win32,165.0165017,,,space,8.532,,,,,,,,,,,,,,,,,,,,,,,,,,,,,,,,,,,,,,,,,,,,,,,,,,,,,,,,,,,,,,,,,,,,,,,,,,,,,,,,,,,,,,,,,,,,,,,,,,,,,,,,,,,,,,,,,,,,,,,,,,,,,,,,,,,,,,,,,,,,,,,,,,,,,,
,,,,517196,001,2023-09-29_00h34.53.253,fluency,2022.2.5,Win32,165.0165017,,,,,0.270157068,-0.352356021,1,0,0,23.501,iAgree,,,,,,,,,,,,,,,,,,,,,,,,,,,,,,,,,,,,,,,,,,,,,,,,,,,,,,,,,,,,,,,,,,,,,,,,,,,,,,,,,,,,,,,,,,,,,,,,,,,,,,,,,,,,,,,,,,,,,,,,,,,,,,,,,,,,,,,,,,,,,,,
,,,,517196,001,2023-09-29_00h34.53.253,fluency,2022.2.5,Win32,165.0165017,,,,,,,,,,,,space,4.801,,,,,,,,,,,,,,,,,,,,,,,,,,,,,,,,,,,,,,,,,,,,,,,,,,,,,,,,,,,,,,,,,,,,,,,,,,,,,,,,,,,,,,,,,,,,,,,,,,,,,,,,,,,,,,,,,,,,,,,,,,,,,,,,,,,,,,,,,,,,,
,,,,517196,001,2023-09-29_00h34.53.253,fluency,2022.2.5,Win32,165.0165017,,,,,,,,,,,,,,space,8.372,space,3.664,0,0,0,74,1,8,7,img/B07_08.jpg,CONTROL,Press K as soon as you see a face, ,KJ,,,,,,,,,,,,,,,,,,,,,,,,,,,,,,,,,,,,,,,,,,,,,,,,,,,,,,,,,,,,,,,,,,,,,,,,,,,,,,,,,,,,,,,,,,,,,,,,,,,,,,,,,,,,,,,,,,,,,,,,,,,,,
,,,,517196,001,2023-09-29_00h34.53.253,fluency,2022.2.5,Win32,165.0165017,,,,,,,,,,,,,,,,,,,,,,,,,,,,,,c,5.255,0,0,0,0,1,,,,,,,,,,,,,,,,,,,,,,,,,,,,,,,,,,,,,,,,,,,,,,,,,,,,,,,,,,,,,,,,,,,,,,,,,,,,,,,,,,,,,,,,,,,,,,,,,,,,,,,,,,,,,,,,,,,,,,
,,,,517196,001,2023-09-29_00h34.53.253,fluency,2022.2.5,Win32,165.0165017,,,,,,,,,,,,,,,,,,,,,,,,,,,,,,,,,,,,,a,3.214,0,0,0,0,1,,,,,,,,,,,,,,,,,,,,,,,,,,,,,,,,,,,,,,,,,,,,,,,,,,,,,,,,,,,,,,,,,,,,,,,,,,,,,,,,,,,,,,,,,,,,,,,,,,,,,,,,,,,,,,,
,,,,517196,001,2023-09-29_00h34.53.253,fluency,2022.2.5,Win32,165.0165017,,,,,,,,,,,,,,,,,,,,,,,,,,,,,,,,,,,,,,,,,,,,c,3.741,0,0,0,0,1,,,,,,,,,,,,,,,,,,,,,,,,,,,,,,,,,,,,,,,,,,,,,,,,,,,,,,,,,,,,,,,,,,,,,,,,,,,,,,,,,,,,,,,,,,,,,,,,,,,,,,,,
,,,,517196,001,2023-09-29_00h34.53.253,fluency,2022.2.5,Win32,165.0165017,,,,,,,,,,,,,,,,,,,,,,,,,,,,,,,,,,,,,,,,,,,,,,,,,,,space,0.793,k,0.357,0,0,0,0,0,1,,,,,,,,,,,,,,,,,,,,,,,,,,,,,,,,,,,,,,,,,,,,,,,,,,,,,,,,,,,,,,,,,,,,,,,,,,,,,,,,,,,,,,,,,,,,,,
,,,,517196,001,2023-09-29_00h34.53.253,fluency,2022.2.5,Win32,165.0165017,,,,,,,,,,,,,,,,,,,,,,,,,,,,,,,,,,,,,,,,,,,,,,,,,,,,,,,,,,,,,5,1.958,0,0,0,0,1,,,,,,,,,,,,,,,,,,,,,,,,,,,,,,,,,,,,,,,,,,,,,,,,,,,,,,,,,,,,,,,,,,,,,,,,,,,,,,,,,,,,,,,
,,,,517196,001,2023-09-29_00h34.53.253,fluency,2022.2.5,Win32,165.0165017,,,,,,,,,,,,,,,,,,,,,,,,,,,,,,,,,,,,,,,,,,,,,,,,,,,,,,,,,,,,,,,,,,,,space,2.38,0,0,0,0,1,,,,,,,,,,,,,,,,,,,,,,,,,,,,,,,,,,,,,,,,,,,,,,,,,,,,,,,,,,,,,,,,,,,,,,,,,,,,,,,,
,,,,517196,001,2023-09-29_00h34.53.253,fluency,2022.2.5,Win32,165.0165017,,,,,,,,,,,,,,,,,,,,,,,7,8,img/B08_07.jpg,CONTROL,Press K as soon as you see a face, ,KJ,,,,,,,,,,,,,,,,,,,,,,,,,,,,,,,,,,,,,,,,,,,,,,120.713,0,0,0,84,1,109,0,0,0,0,1,98,,,,,,,,,,,,,,,,,,,,,,,,,,,,,,,,,,,,,,,,,,,,,,,,,,,,,,,,,,,,,,,,,,,
,,,,517196,001,2023-09-29_00h34.53.253,fluency,2022.2.5,Win32,165.0165017,,,,,,,,,,,,,,,,,,,,,,,,,,,,,,,,,,,,,,,,,,,,,,,,,,,,,,,,,,,,,,,,,,,,,,,,,,,,,,,,,,0,0,0,0,1,,"[""k""]",[0.382000000000005],0,"[""k""]",[0.382000000000005],,,,,,,,,,,,,,,,,,,,,,,,,,,,,,,,,,,,,,,,,,,,,,,,,,,,,,,,,,,,,,
,,,,517196,001,2023-09-29_00h34.53.253,fluency,2022.2.5,Win32,165.0165017,,,,,,,,,,,,,,,,,,,,,,,7,8,img/B08_07.jpg,CONTROL,Press K as soon as you see a face, ,KJ,,,,,,,,,,,,,,,,,,,,,,,,,,,,,,,,4,1.793,,,,,,,,,,,,,,0,0,0,84,1,,,,,,,,,,,,,space,3.251,,,,,,,,,,,,,,,,,,,,,,,,,,,,,,,,,,,,,,,,,,,,,,,,,,,,,,,,,,,,
,,,,517196,001,2023-09-29_00h34.53.253,fluency,2022.2.5,Win32,165.0165017,,,,,,,,,,,,,,,,,,,,,,,4,9,img/B09_04.jpg,CONTROL,Press K as soon as you see a face, ,KJ,,,,,,,,,,,,,,,,,,,,,,,,,,,,,,,,,,,,,,,,,,,,,,129.785,0,1,1,92,1,109,0,0,0,0,1,98,,,,,,,,,,,,,,,,,,,,,,,,,,,,,,,,,,,,,,,,,,,,,,,,,,,,,,,,,,,,,,,,,,,
,,,,517196,001,2023-09-29_00h34.53.253,fluency,2022.2.5,Win32,165.0165017,,,,,,,,,,,,,,,,,,,,,,,,,,,,,,,,,,,,,,,,,,,,,,,,,,,,,,,,,,,,,,,,,,,,,,,,,,,,,,,,,,0,0,0,0,1,,"[""k""]",[0.2869999999999777],0,"[""k""]",[0.2869999999999777],,,,,,,,,,,,,,,,,,,,,,,,,,,,,,,,,,,,,,,,,,,,,,,,,,,,,,,,,,,,,,
,,,,517196,001,2023-09-29_00h34.53.253,fluency,2022.2.5,Win32,165.0165017,,,,,,,,,,,,,,,,,,,,,,,4,9,img/B09_04.jpg,CONTROL,Press K as soon as you see a face, ,KJ,,,,,,,,,,,,,,,,,,,,,,,,,,,,,,,,3,0.973,,,,,,,,,,,,,,0,1,1,92,1,,,,,,,,,,,,,space,4.621,,,,,,,,,,,,,,,,,,,,,,,,,,,,,,,,,,,,,,,,,,,,,,,,,,,,,,,,,,,,
,,,,517196,001,2023-09-29_00h34.53.253,fluency,2022.2.5,Win32,165.0165017,,,,,,,,,,,,,,,,,,,,,,,8,1,img/B01_08.jpg,CONTROL,Press K as soon as you see a face, ,KJ,,,,,,,,,,,,,,,,,,,,,,,,,,,,,,,,,,,,,,,,,,,,,,140.404,0,2,2,8,1,109,0,0,0,0,1,98,,,,,,,,,,,,,,,,,,,,,,,,,,,,,,,,,,,,,,,,,,,,,,,,,,,,,,,,,,,,,,,,,,,
,,,,517196,001,2023-09-29_00h34.53.253,fluency,2022.2.5,Win32,165.0165017,,,,,,,,,,,,,,,,,,,,,,,,,,,,,,,,,,,,,,,,,,,,,,,,,,,,,,,,,,,,,,,,,,,,,,,,,,,,,,,,,,0,0,0,0,1,,"[""k""]",[0.39400000000000546],0,"[""k""]",[0.39400000000000546],,,,,,,,,,,,,,,,,,,,,,,,,,,,,,,,,,,,,,,,,,,,,,,,,,,,,,,,,,,,,,
,,,,517196,001,2023-09-29_00h34.53.253,fluency,2022.2.5,Win32,165.0165017,,,,,,,,,,,,,,,,,,,,,,,8,1,img/B01_08.jpg,CONTROL,Press K as soon as you see a face, ,KJ,,,,,,,,,,,,,,,,,,,,,,,,,,,,,,,,4,0.413,,,,,,,,,,,,,,0,2,2,8,1,,,,,,,,,,,,,space,0.973,,,,,,,,,,,,,,,,,,,,,,,,,,,,,,,,,,,,,,,,,,,,,,,,,,,,,,,,,,,,
,,,,517196,001,2023-09-29_00h34.53.253,fluency,2022.2.5,Win32,165.0165017,,,,,,,,,,,,,,,,,,,,,,,9,10,img/B10_09.jpg,CONTROL,Press K as soon as you see a face, ,KJ,,,,,,,,,,,,,,,,,,,,,,,,,,,,,,,,,,,,,,,,,,,,,,146.809,0,3,3,108,1,109,0,0,0,0,1,98,,,,,,,,,,,,,,,,,,,,,,,,,,,,,,,,,,,,,,,,,,,,,,,,,,,,,,,,,,,,,,,,,,,
,,,,517196,001,2023-09-29_00h34.53.253,fluency,2022.2.5,Win32,165.0165017,,,,,,,,,,,,,,,,,,,,,,,,,,,,,,,,,,,,,,,,,,,,,,,,,,,,,,,,,,,,,,,,,,,,,,,,,,,,,,,,,,0,0,0,0,1,,"[""k""]",[0.32099999999999795],0,"[""k""]",[0.32099999999999795],,,,,,,,,,,,,,,,,,,,,,,,,,,,,,,,,,,,,,,,,,,,,,,,,,,,,,,,,,,,,,
,,,,517196,001,2023-09-29_00h34.53.253,fluency,2022.2.5,Win32,165.0165017,,,,,,,,,,,,,,,,,,,,,,,9,10,img/B10_09.jpg,CONTROL,Press K as soon as you see a face, ,KJ,,,,,,,,,,,,,,,,,,,,,,,,,,,,,,,,4,0.322,,,,,,,,,,,,,,0,3,3,108,1,,,,,,,,,,,,,space,0.831,,,,,,,,,,,,,,,,,,,,,,,,,,,,,,,,,,,,,,,,,,,,,,,,,,,,,,,,,,,,
,,,,517196,001,2023-09-29_00h34.53.253,fluency,2022.2.5,Win32,165.0165017,,,,,,,,,,,,,,,,,,,,,,,6,3,img/B03_06.jpg,CONTROL,Press K as soon as you see a face, ,KJ,,,,,,,,,,,,,,,,,,,,,,,,,,,,,,,,,,,,,,,,,,,,,,152.985,0,4,4,28,1,109,0,0,0,0,1,98,,,,,,,,,,,,,,,,,,,,,,,,,,,,,,,,,,,,,,,,,,,,,,,,,,,,,,,,,,,,,,,,,,,
,,,,517196,001,2023-09-29_00h34.53.253,fluency,2022.2.5,Win32,165.0165017,,,,,,,,,,,,,,,,,,,,,,,,,,,,,,,,,,,,,,,,,,,,,,,,,,,,,,,,,,,,,,,,,,,,,,,,,,,,,,,,,,0,0,0,0,1,,"[""k""]",[0.29300000000000637],0,"[""k""]",[0.29300000000000637],,,,,,,,,,,,,,,,,,,,,,,,,,,,,,,,,,,,,,,,,,,,,,,,,,,,,,,,,,,,,,
,,,,517196,001,2023-09-29_00h34.53.253,fluency,2022.2.5,Win32,165.0165017,,,,,,,,,,,,,,,,,,,,,,,6,3,img/B03_06.jpg,CONTROL,Press K as soon as you see a face, ,KJ,,,,,,,,,,,,,,,,,,,,,,,,,,,,,,,,5,0.668,,,,,,,,,,,,,,0,4,4,28,1,,,,,,,,,,,,,space,1.212,,,,,,,,,,,,,,,,,,,,,,,,,,,,,,,,,,,,,,,,,,,,,,,,,,,,,,,,,,,,
,,,,517196,001,2023-09-29_00h34.53.253,fluency,2022.2.5,Win32,165.0165017,,,,,,,,,,,,,,,,,,,,,,,1,9,img/B09_01.jpg,CONTROL,Press K as soon as you see a face, ,KJ,,,,,,,,,,,,,,,,,,,,,,,,,,,,,,,,,,,,,,,,,,,,,,159.888,0,5,5,89,1,109,0,0,0,0,1,98,,,,,,,,,,,,,,,,,,,,,,,,,,,,,,,,,,,,,,,,,,,,,,,,,,,,,,,,,,,,,,,,,,,
,,,,517196,001,2023-09-29_00h34.53.253,fluency,2022.2.5,Win32,165.0165017,,,,,,,,,,,,,,,,,,,,,,,,,,,,,,,,,,,,,,,,,,,,,,,,,,,,,,,,,,,,,,,,,,,,,,,,,,,,,,,,,,0,0,0,0,1,,"[""k""]",[0.24099999999998545],0,"[""k""]",[0.24099999999998545],,,,,,,,,,,,,,,,,,,,,,,,,,,,,,,,,,,,,,,,,,,,,,,,,,,,,,,,,,,,,,
,,,,517196,001,2023-09-29_00h34.53.253,fluency,2022.2.5,Win32,165.0165017,,,,,,,,,,,,,,,,,,,,,,,1,9,img/B09_01.jpg,CONTROL,Press K as soon as you see a face, ,KJ,,,,,,,,,,,,,,,,,,,,,,,,,,,,,,,,5,0.363,,,,,,,,,,,,,,0,5,5,89,1,,,,,,,,,,,,,space,1.332,,,,,,,,,,,,,,,,,,,,,,,,,,,,,,,,,,,,,,,,,,,,,,,,,,,,,,,,,,,,
,,,,517196,001,2023-09-29_00h34.53.253,fluency,2022.2.5,Win32,165.0165017,,,,,,,,,,,,,,,,,,,,,,,8,8,img/B08_08.jpg,CONTROL,Press K as soon as you see a face, ,KJ,,,,,,,,,,,,,,,,,,,,,,,,,,,,,,,,,,,,,,,,,,,,,,166.603,0,6,6,85,1,109,0,0,0,0,1,98,,,,,,,,,,,,,,,,,,,,,,,,,,,,,,,,,,,,,,,,,,,,,,,,,,,,,,,,,,,,,,,,,,,
,,,,517196,001,2023-09-29_00h34.53.253,fluency,2022.2.5,Win32,165.0165017,,,,,,,,,,,,,,,,,,,,,,,,,,,,,,,,,,,,,,,,,,,,,,,,,,,,,,,,,,,,,,,,,,,,,,,,,,,,,,,,,,0,0,0,0,1,,"[""k""]",[0.47400000000001796],0,"[""k""]",[0.47400000000001796],,,,,,,,,,,,,,,,,,,,,,,,,,,,,,,,,,,,,,,,,,,,,,,,,,,,,,,,,,,,,,
,,,,517196,001,2023-09-29_00h34.53.253,fluency,2022.2.5,Win32,165.0165017,,,,,,,,,,,,,,,,,,,,,,,8,8,img/B08_08.jpg,CONTROL,Press K as soon as you see a face, ,KJ,,,,,,,,,,,,,,,,,,,,,,,,,,,,,,,,4,0.549,,,,,,,,,,,,,,0,6,6,85,1,,,,,,,,,,,,,space,0.503,,,,,,,,,,,,,,,,,,,,,,,,,,,,,,,,,,,,,,,,,,,,,,,,,,,,,,,,,,,,
,,,,517196,001,2023-09-29_00h34.53.253,fluency,2022.2.5,Win32,165.0165017,,,,,,,,,,,,,,,,,,,,,,,3,10,img/B10_03.jpg,CONTROL,Press K as soon as you see a face, ,KJ,,,,,,,,,,,,,,,,,,,,,,,,,,,,,,,,,,,,,,,,,,,,,,172.682,0,7,7,102,1,109,0,0,0,0,1,98,,,,,,,,,,,,,,,,,,,,,,,,,,,,,,,,,,,,,,,,,,,,,,,,,,,,,,,,,,,,,,,,,,,
,,,,517196,001,2023-09-29_00h34.53.253,fluency,2022.2.5,Win32,165.0165017,,,,,,,,,,,,,,,,,,,,,,,,,,,,,,,,,,,,,,,,,,,,,,,,,,,,,,,,,,,,,,,,,,,,,,,,,,,,,,,,,,0,0,0,0,1,,"[""k""]",[0.37999999999999545],0,"[""k""]",[0.37999999999999545],,,,,,,,,,,,,,,,,,,,,,,,,,,,,,,,,,,,,,,,,,,,,,,,,,,,,,,,,,,,,,
,,,,517196,001,2023-09-29_00h34.53.253,fluency,2022.2.5,Win32,165.0165017,,,,,,,,,,,,,,,,,,,,,,,3,10,img/B10_03.jpg,CONTROL,Press K as soon as you see a face, ,KJ,,,,,,,,,,,,,,,,,,,,,,,,,,,,,,,,6,0.449,,,,,,,,,,,,,,0,7,7,102,1,,,,,,,,,,,,,space,1.05,,,,,,,,,,,,,,,,,,,,,,,,,,,,,,,,,,,,,,,,,,,,,,,,,,,,,,,,,,,,
,,,,517196,001,2023-09-29_00h34.53.253,fluency,2022.2.5,Win32,165.0165017,,,,,,,,,,,,,,,,,,,,,,,4,2,img/B02_04.jpg,CONTROL,Press K as soon as you see a face, ,KJ,,,,,,,,,,,,,,,,,,,,,,,,,,,,,,,,,,,,,,,,,,,,,,178.203,0,8,8,15,1,109,0,0,0,0,1,98,,,,,,,,,,,,,,,,,,,,,,,,,,,,,,,,,,,,,,,,,,,,,,,,,,,,,,,,,,,,,,,,,,,
,,,,517196,001,2023-09-29_00h34.53.253,fluency,2022.2.5,Win32,165.0165017,,,,,,,,,,,,,,,,,,,,,,,,,,,,,,,,,,,,,,,,,,,,,,,,,,,,,,,,,,,,,,,,,,,,,,,,,,,,,,,,,,0,0,0,0,1,,"[""k""]",[0.9129999999999825],0,"[""space"",""k""]","[0.84699999999998,0.9129999999999825]",,,,,,,,,,,,,,,,,,,,,,,,,,,,,,,,,,,,,,,,,,,,,,,,,,,,,,,,,,,,,,
,,,,517196,001,2023-09-29_00h34.53.253,fluency,2022.2.5,Win32,165.0165017,,,,,,,,,,,,,,,,,,,,,,,4,2,img/B02_04.jpg,CONTROL,Press K as soon as you see a face, ,KJ,,,,,,,,,,,,,,,,,,,,,,,,,,,,,,,,3,0.335,,,,,,,,,,,,,,0,8,8,15,1,,,,,,,,,,,,,space,0.676,,,,,,,,,,,,,,,,,,,,,,,,,,,,,,,,,,,,,,,,,,,,,,,,,,,,,,,,,,,,
,,,,517196,001,2023-09-29_00h34.53.253,fluency,2022.2.5,Win32,165.0165017,,,,,,,,,,,,,,,,,,,,,,,3,4,img/B04_03.jpg,CONTROL,Press K as soon as you see a face, ,KJ,,,,,,,,,,,,,,,,,,,,,,,,,,,,,,,,,,,,,,,,,,,,,,183.233,0,9,9,36,1,109,0,0,0,0,1,98,,,,,,,,,,,,,,,,,,,,,,,,,,,,,,,,,,,,,,,,,,,,,,,,,,,,,,,,,,,,,,,,,,,
,,,,517196,001,2023-09-29_00h34.53.253,fluency,2022.2.5,Win32,165.0165017,,,,,,,,,,,,,,,,,,,,,,,,,,,,,,,,,,,,,,,,,,,,,,,,,,,,,,,,,,,,,,,,,,,,,,,,,,,,,,,,,,0,0,0,0,1,,"[""k""]",[0.27599999999998204],0,"[""k""]",[0.27599999999998204],,,,,,,,,,,,,,,,,,,,,,,,,,,,,,,,,,,,,,,,,,,,,,,,,,,,,,,,,,,,,,
,,,,517196,001,2023-09-29_00h34.53.253,fluency,2022.2.5,Win32,165.0165017,,,,,,,,,,,,,,,,,,,,,,,3,4,img/B04_03.jpg,CONTROL,Press K as soon as you see a face, ,KJ,,,,,,,,,,,,,,,,,,,,,,,,,,,,,,,,5,0.382,,,,,,,,,,,,,,0,9,9,36,1,,,,,,,,,,,,,space,0.947,,,,,,,,,,,,,,,,,,,,,,,,,,,,,,,,,,,,,,,,,,,,,,,,,,,,,,,,,,,,
,,,,517196,001,2023-09-29_00h34.53.253,fluency,2022.2.5,Win32,165.0165017,,,,,,,,,,,,,,,,,,,,,,,5,3,img/B03_05.jpg,CONTROL,Press K as soon as you see a face, ,KJ,,,,,,,,,,,,,,,,,,,,,,,,,,,,,,,,,,,,,,,,,,,,,,188.584,0,10,10,27,1,109,0,0,0,0,1,98,,,,,,,,,,,,,,,,,,,,,,,,,,,,,,,,,,,,,,,,,,,,,,,,,,,,,,,,,,,,,,,,,,,
,,,,517196,001,2023-09-29_00h34.53.253,fluency,2022.2.5,Win32,165.0165017,,,,,,,,,,,,,,,,,,,,,,,,,,,,,,,,,,,,,,,,,,,,,,,,,,,,,,,,,,,,,,,,,,,,,,,,,,,,,,,,,,0,0,0,0,1,,"[""k""]",[0.6760000000000161],0,"[""k""]",[0.6760000000000161],,,,,,,,,,,,,,,,,,,,,,,,,,,,,,,,,,,,,,,,,,,,,,,,,,,,,,,,,,,,,,
,,,,517196,001,2023-09-29_00h34.53.253,fluency,2022.2.5,Win32,165.0165017,,,,,,,,,,,,,,,,,,,,,,,5,3,img/B03_05.jpg,CONTROL,Press K as soon as you see a face, ,KJ,,,,,,,,,,,,,,,,,,,,,,,,,,,,,,,,4,0.824,,,,,,,,,,,,,,0,10,10,27,1,,,,,,,,,,,,,space,0.776,,,,,,,,,,,,,,,,,,,,,,,,,,,,,,,,,,,,,,,,,,,,,,,,,,,,,,,,,,,,
,,,,517196,001,2023-09-29_00h34.53.253,fluency,2022.2.5,Win32,165.0165017,,,,,,,,,,,,,,,,,,,,,,,7,6,img/B06_07.jpg,CONTROL,Press K as soon as you see a face, ,KJ,,,,,,,,,,,,,,,,,,,,,,,,,,,,,,,,,,,,,,,,,,,,,,194.209,0,11,11,62,1,109,0,0,0,0,1,98,,,,,,,,,,,,,,,,,,,,,,,,,,,,,,,,,,,,,,,,,,,,,,,,,,,,,,,,,,,,,,,,,,,
,,,,517196,001,2023-09-29_00h34.53.253,fluency,2022.2.5,Win32,165.0165017,,,,,,,,,,,,,,,,,,,,,,,,,,,,,,,,,,,,,,,,,,,,,,,,,,,,,,,,,,,,,,,,,,,,,,,,,,,,,,,,,,0,0,0,0,1,,"[""k""]",[0.3810000000000002],0,"[""k""]",[0.3810000000000002],,,,,,,,,,,,,,,,,,,,,,,,,,,,,,,,,,,,,,,,,,,,,,,,,,,,,,,,,,,,,,
,,,,517196,001,2023-09-29_00h34.53.253,fluency,2022.2.5,Win32,165.0165017,,,,,,,,,,,,,,,,,,,,,,,7,6,img/B06_07.jpg,CONTROL,Press K as soon as you see a face, ,KJ,,,,,,,,,,,,,,,,,,,,,,,,,,,,,,,,5,0.362,,,,,,,,,,,,,,0,11,11,62,1,,,,,,,,,,,,,space,0.91,,,,,,,,,,,,,,,,,,,,,,,,,,,,,,,,,,,,,,,,,,,,,,,,,,,,,,,,,,,,
,,,,517196,001,2023-09-29_00h34.53.253,fluency,2022.2.5,Win32,165.0165017,,,,,,,,,,,,,,,,,,,,,,,7,3,img/B03_07.jpg,CONTROL,Press K as soon as you see a face, ,KJ,,,,,,,,,,,,,,,,,,,,,,,,,,,,,,,,,,,,,,,,,,,,,,199.499,0,12,12,29,1,109,0,0,0,0,1,98,,,,,,,,,,,,,,,,,,,,,,,,,,,,,,,,,,,,,,,,,,,,,,,,,,,,,,,,,,,,,,,,,,,
,,,,517196,001,2023-09-29_00h34.53.253,fluency,2022.2.5,Win32,165.0165017,,,,,,,,,,,,,,,,,,,,,,,,,,,,,,,,,,,,,,,,,,,,,,,,,,,,,,,,,,,,,,,,,,,,,,,,,,,,,,,,,,0,0,0,0,1,,"[""k""]",[0.45999999999997954],0,"[""k""]",[0.45999999999997954],,,,,,,,,,,,,,,,,,,,,,,,,,,,,,,,,,,,,,,,,,,,,,,,,,,,,,,,,,,,,,
,,,,517196,001,2023-09-29_00h34.53.253,fluency,2022.2.5,Win32,165.0165017,,,,,,,,,,,,,,,,,,,,,,,7,3,img/B03_07.jpg,CONTROL,Press K as soon as you see a face, ,KJ,,,,,,,,,,,,,,,,,,,,,,,,,,,,,,,,5,0.952,,,,,,,,,,,,,,0,12,12,29,1,,,,,,,,,,,,,space,2.728,,,,,,,,,,,,,,,,,,,,,,,,,,,,,,,,,,,,,,,,,,,,,,,,,,,,,,,,,,,,
,,,,517196,001,2023-09-29_00h34.53.253,fluency,2022.2.5,Win32,165.0165017,,,,,,,,,,,,,,,,,,,,,,,10,7,img/B07_10.jpg,CONTROL,Press K as soon as you see a face, ,KJ,,,,,,,,,,,,,,,,,,,,,,,,,,,,,,,,,,,,,,,,,,,,,,207.202,0,13,13,76,1,109,0,0,0,0,1,98,,,,,,,,,,,,,,,,,,,,,,,,,,,,,,,,,,,,,,,,,,,,,,,,,,,,,,,,,,,,,,,,,,,
,,,,517196,001,2023-09-29_00h34.53.253,fluency,2022.2.5,Win32,165.0165017,,,,,,,,,,,,,,,,,,,,,,,,,,,,,,,,,,,,,,,,,,,,,,,,,,,,,,,,,,,,,,,,,,,,,,,,,,,,,,,,,,0,0,0,0,1,,"[""k""]",[0.39400000000000546],0,"[""k""]",[0.39400000000000546],,,,,,,,,,,,,,,,,,,,,,,,,,,,,,,,,,,,,,,,,,,,,,,,,,,,,,,,,,,,,,
,,,,517196,001,2023-09-29_00h34.53.253,fluency,2022.2.5,Win32,165.0165017,,,,,,,,,,,,,,,,,,,,,,,10,7,img/B07_10.jpg,CONTROL,Press K as soon as you see a face, ,KJ,,,,,,,,,,,,,,,,,,,,,,,,,,,,,,,,4,0.429,,,,,,,,,,,,,,0,13,13,76,1,,,,,,,,,,,,,space,0.604,,,,,,,,,,,,,,,,,,,,,,,,,,,,,,,,,,,,,,,,,,,,,,,,,,,,,,,,,,,,
,,,,517196,001,2023-09-29_00h34.53.253,fluency,2022.2.5,Win32,165.0165017,,,,,,,,,,,,,,,,,,,,,,,1,7,img/B07_01.jpg,CONTROL,Press K as soon as you see a face, ,KJ,,,,,,,,,,,,,,,,,,,,,,,,,,,,,,,,,,,,,,,,,,,,,,212.257,0,14,14,67,1,109,0,0,0,0,1,98,,,,,,,,,,,,,,,,,,,,,,,,,,,,,,,,,,,,,,,,,,,,,,,,,,,,,,,,,,,,,,,,,,,
,,,,517196,001,2023-09-29_00h34.53.253,fluency,2022.2.5,Win32,165.0165017,,,,,,,,,,,,,,,,,,,,,,,,,,,,,,,,,,,,,,,,,,,,,,,,,,,,,,,,,,,,,,,,,,,,,,,,,,,,,,,,,,0,0,0,0,1,,"[""k""]",[0.4830000000000041],0,"[""k""]",[0.4830000000000041],,,,,,,,,,,,,,,,,,,,,,,,,,,,,,,,,,,,,,,,,,,,,,,,,,,,,,,,,,,,,,
,,,,517196,001,2023-09-29_00h34.53.253,fluency,2022.2.5,Win32,165.0165017,,,,,,,,,,,,,,,,,,,,,,,1,7,img/B07_01.jpg,CONTROL,Press K as soon as you see a face, ,KJ,,,,,,,,,,,,,,,,,,,,,,,,,,,,,,,,5,0.311,,,,,,,,,,,,,,0,14,14,67,1,,,,,,,,,,,,,space,0.573,,,,,,,,,,,,,,,,,,,,,,,,,,,,,,,,,,,,,,,,,,,,,,,,,,,,,,,,,,,,
,,,,517196,001,2023-09-29_00h34.53.253,fluency,2022.2.5,Win32,165.0165017,,,,,,,,,,,,,,,,,,,,,,,8,5,img/B05_08.jpg,CONTROL,Press K as soon as you see a face, ,KJ,,,,,,,,,,,,,,,,,,,,,,,,,,,,,,,,,,,,,,,,,,,,,,217.16,0,15,15,52,1,109,0,0,0,0,1,98,,,,,,,,,,,,,,,,,,,,,,,,,,,,,,,,,,,,,,,,,,,,,,,,,,,,,,,,,,,,,,,,,,,
,,,,517196,001,2023-09-29_00h34.53.253,fluency,2022.2.5,Win32,165.0165017,,,,,,,,,,,,,,,,,,,,,,,,,,,,,,,,,,,,,,,,,,,,,,,,,,,,,,,,,,,,,,,,,,,,,,,,,,,,,,,,,,0,0,0,0,1,,"[""k""]",[0.43200000000001637],0,"[""k""]",[0.43200000000001637],,,,,,,,,,,,,,,,,,,,,,,,,,,,,,,,,,,,,,,,,,,,,,,,,,,,,,,,,,,,,,
,,,,517196,001,2023-09-29_00h34.53.253,fluency,2022.2.5,Win32,165.0165017,,,,,,,,,,,,,,,,,,,,,,,8,5,img/B05_08.jpg,CONTROL,Press K as soon as you see a face, ,KJ,,,,,,,,,,,,,,,,,,,,,,,,,,,,,,,,4,0.265,,,,,,,,,,,,,,0,15,15,52,1,,,,,,,,,,,,,space,0.663,,,,,,,,,,,,,,,,,,,,,,,,,,,,,,,,,,,,,,,,,,,,,,,,,,,,,,,,,,,,
,,,,517196,001,2023-09-29_00h34.53.253,fluency,2022.2.5,Win32,165.0165017,,,,,,,,,,,,,,,,,,,,,,,9,7,img/B07_09.jpg,CONTROL,Press K as soon as you see a face, ,KJ,,,,,,,,,,,,,,,,,,,,,,,,,,,,,,,,,,,,,,,,,,,,,,222.112,0,16,16,75,1,109,0,0,0,0,1,98,,,,,,,,,,,,,,,,,,,,,,,,,,,,,,,,,,,,,,,,,,,,,,,,,,,,,,,,,,,,,,,,,,,
,,,,517196,001,2023-09-29_00h34.53.253,fluency,2022.2.5,Win32,165.0165017,,,,,,,,,,,,,,,,,,,,,,,,,,,,,,,,,,,,,,,,,,,,,,,,,,,,,,,,,,,,,,,,,,,,,,,,,,,,,,,,,,0,0,0,0,1,,"[""k""]",[0.4399999999999977],0,"[""k""]",[0.4399999999999977],,,,,,,,,,,,,,,,,,,,,,,,,,,,,,,,,,,,,,,,,,,,,,,,,,,,,,,,,,,,,,
,,,,517196,001,2023-09-29_00h34.53.253,fluency,2022.2.5,Win32,165.0165017,,,,,,,,,,,,,,,,,,,,,,,9,7,img/B07_09.jpg,CONTROL,Press K as soon as you see a face, ,KJ,,,,,,,,,,,,,,,,,,,,,,,,,,,,,,,,5,0.446,,,,,,,,,,,,,,0,16,16,75,1,,,,,,,,,,,,,space,0.539,,,,,,,,,,,,,,,,,,,,,,,,,,,,,,,,,,,,,,,,,,,,,,,,,,,,,,,,,,,,
,,,,517196,001,2023-09-29_00h34.53.253,fluency,2022.2.5,Win32,165.0165017,,,,,,,,,,,,,,,,,,,,,,,6,4,img/B04_06.jpg,CONTROL,Press K as soon as you see a face, ,KJ,,,,,,,,,,,,,,,,,,,,,,,,,,,,,,,,,,,,,,,,,,,,,,228.117,0,17,17,39,1,109,0,0,0,0,1,98,,,,,,,,,,,,,,,,,,,,,,,,,,,,,,,,,,,,,,,,,,,,,,,,,,,,,,,,,,,,,,,,,,,
,,,,517196,001,2023-09-29_00h34.53.253,fluency,2022.2.5,Win32,165.0165017,,,,,,,,,,,,,,,,,,,,,,,,,,,,,,,,,,,,,,,,,,,,,,,,,,,,,,,,,,,,,,,,,,,,,,,,,,,,,,,,,,0,0,0,0,1,,"[""k""]",[0.2909999999999968],0,"[""k""]",[0.2909999999999968],,,,,,,,,,,,,,,,,,,,,,,,,,,,,,,,,,,,,,,,,,,,,,,,,,,,,,,,,,,,,,
,,,,517196,001,2023-09-29_00h34.53.253,fluency,2022.2.5,Win32,165.0165017,,,,,,,,,,,,,,,,,,,,,,,6,4,img/B04_06.jpg,CONTROL,Press K as soon as you see a face, ,KJ,,,,,,,,,,,,,,,,,,,,,,,,,,,,,,,,3,0.284,,,,,,,,,,,,,,0,17,17,39,1,,,,,,,,,,,,,space,0.461,,,,,,,,,,,,,,,,,,,,,,,,,,,,,,,,,,,,,,,,,,,,,,,,,,,,,,,,,,,,
,,,,517196,001,2023-09-29_00h34.53.253,fluency,2022.2.5,Win32,165.0165017,,,,,,,,,,,,,,,,,,,,,,,4,8,img/B08_04.jpg,CONTROL,Press K as soon as you see a face, ,KJ,,,,,,,,,,,,,,,,,,,,,,,,,,,,,,,,,,,,,,,,,,,,,,233.888,0,18,18,81,1,109,0,0,0,0,1,98,,,,,,,,,,,,,,,,,,,,,,,,,,,,,,,,,,,,,,,,,,,,,,,,,,,,,,,,,,,,,,,,,,,
,,,,517196,001,2023-09-29_00h34.53.253,fluency,2022.2.5,Win32,165.0165017,,,,,,,,,,,,,,,,,,,,,,,,,,,,,,,,,,,,,,,,,,,,,,,,,,,,,,,,,,,,,,,,,,,,,,,,,,,,,,,,,,0,0,0,0,1,,"[""k""]",[0.2330000000000041],0,"[""k""]",[0.2330000000000041],,,,,,,,,,,,,,,,,,,,,,,,,,,,,,,,,,,,,,,,,,,,,,,,,,,,,,,,,,,,,,
,,,,517196,001,2023-09-29_00h34.53.253,fluency,2022.2.5,Win32,165.0165017,,,,,,,,,,,,,,,,,,,,,,,4,8,img/B08_04.jpg,CONTROL,Press K as soon as you see a face, ,KJ,,,,,,,,,,,,,,,,,,,,,,,,,,,,,,,,3,0.289,,,,,,,,,,,,,,0,18,18,81,1,,,,,,,,,,,,,space,0.807,,,,,,,,,,,,,,,,,,,,,,,,,,,,,,,,,,,,,,,,,,,,,,,,,,,,,,,,,,,,
,,,,517196,001,2023-09-29_00h34.53.253,fluency,2022.2.5,Win32,165.0165017,,,,,,,,,,,,,,,,,,,,,,,3,7,img/B07_03.jpg,CONTROL,Press K as soon as you see a face, ,KJ,,,,,,,,,,,,,,,,,,,,,,,,,,,,,,,,,,,,,,,,,,,,,,239.008,0,19,19,69,1,109,0,0,0,0,1,98,,,,,,,,,,,,,,,,,,,,,,,,,,,,,,,,,,,,,,,,,,,,,,,,,,,,,,,,,,,,,,,,,,,
,,,,517196,001,2023-09-29_00h34.53.253,fluency,2022.2.5,Win32,165.0165017,,,,,,,,,,,,,,,,,,,,,,,,,,,,,,,,,,,,,,,,,,,,,,,,,,,,,,,,,,,,,,,,,,,,,,,,,,,,,,,,,,0,0,0,0,1,,"[""k""]",[0.3690000000000282],0,"[""k""]",[0.3690000000000282],,,,,,,,,,,,,,,,,,,,,,,,,,,,,,,,,,,,,,,,,,,,,,,,,,,,,,,,,,,,,,
,,,,517196,001,2023-09-29_00h34.53.253,fluency,2022.2.5,Win32,165.0165017,,,,,,,,,,,,,,,,,,,,,,,3,7,img/B07_03.jpg,CONTROL,Press K as soon as you see a face, ,KJ,,,,,,,,,,,,,,,,,,,,,,,,,,,,,,,,4,0.574,,,,,,,,,,,,,,0,19,19,69,1,,,,,,,,,,,,,space,0.806,,,,,,,,,,,,,,,,,,,,,,,,,,,,,,,,,,,,,,,,,,,,,,,,,,,,,,,,,,,,
,,,,517196,001,2023-09-29_00h34.53.253,fluency,2022.2.5,Win32,165.0165017,,,,,,,,,,,,,,,,,,,,,,,6,7,img/B07_06.jpg,CONTROL,Press K as soon as you see a face, ,KJ,,,,,,,,,,,,,,,,,,,,,,,,,,,,,,,,,,,,,,,,,,,,,,245.414,0,20,20,72,1,109,0,0,0,0,1,98,,,,,,,,,,,,,,,,,,,,,,,,,,,,,,,,,,,,,,,,,,,,,,,,,,,,,,,,,,,,,,,,,,,
,,,,517196,001,2023-09-29_00h34.53.253,fluency,2022.2.5,Win32,165.0165017,,,,,,,,,,,,,,,,,,,,,,,,,,,,,,,,,,,,,,,,,,,,,,,,,,,,,,,,,,,,,,,,,,,,,,,,,,,,,,,,,,0,0,0,0,1,,"[""k""]",[0.3310000000000173],0,"[""k""]",[0.3310000000000173],,,,,,,,,,,,,,,,,,,,,,,,,,,,,,,,,,,,,,,,,,,,,,,,,,,,,,,,,,,,,,
,,,,517196,001,2023-09-29_00h34.53.253,fluency,2022.2.5,Win32,165.0165017,,,,,,,,,,,,,,,,,,,,,,,6,7,img/B07_06.jpg,CONTROL,Press K as soon as you see a face, ,KJ,,,,,,,,,,,,,,,,,,,,,,,,,,,,,,,,4,0.329,,,,,,,,,,,,,,0,20,20,72,1,,,,,,,,,,,,,space,0.651,,,,,,,,,,,,,,,,,,,,,,,,,,,,,,,,,,,,,,,,,,,,,,,,,,,,,,,,,,,,
,,,,517196,001,2023-09-29_00h34.53.253,fluency,2022.2.5,Win32,165.0165017,,,,,,,,,,,,,,,,,,,,,,,3,8,img/B08_03.jpg,CONTROL,Press K as soon as you see a face, ,KJ,,,,,,,,,,,,,,,,,,,,,,,,,,,,,,,,,,,,,,,,,,,,,,250.415,0,21,21,80,1,109,0,0,0,0,1,98,,,,,,,,,,,,,,,,,,,,,,,,,,,,,,,,,,,,,,,,,,,,,,,,,,,,,,,,,,,,,,,,,,,
,,,,517196,001,2023-09-29_00h34.53.253,fluency,2022.2.5,Win32,165.0165017,,,,,,,,,,,,,,,,,,,,,,,,,,,,,,,,,,,,,,,,,,,,,,,,,,,,,,,,,,,,,,,,,,,,,,,,,,,,,,,,,,0,0,0,0,1,,"[""k""]",[0.4040000000000532],0,"[""k""]",[0.4040000000000532],,,,,,,,,,,,,,,,,,,,,,,,,,,,,,,,,,,,,,,,,,,,,,,,,,,,,,,,,,,,,,
,,,,517196,001,2023-09-29_00h34.53.253,fluency,2022.2.5,Win32,165.0165017,,,,,,,,,,,,,,,,,,,,,,,3,8,img/B08_03.jpg,CONTROL,Press K as soon as you see a face, ,KJ,,,,,,,,,,,,,,,,,,,,,,,,,,,,,,,,3,0.312,,,,,,,,,,,,,,0,21,21,80,1,,,,,,,,,,,,,space,0.516,,,,,,,,,,,,,,,,,,,,,,,,,,,,,,,,,,,,,,,,,,,,,,,,,,,,,,,,,,,,
,,,,517196,001,2023-09-29_00h34.53.253,fluency,2022.2.5,Win32,165.0165017,,,,,,,,,,,,,,,,,,,,,,,3,1,img/B01_03.jpg,CONTROL,Press K as soon as you see a face, ,KJ,,,,,,,,,,,,,,,,,,,,,,,,,,,,,,,,,,,,,,,,,,,,,,256.269,0,22,22,3,1,109,0,0,0,0,1,98,,,,,,,,,,,,,,,,,,,,,,,,,,,,,,,,,,,,,,,,,,,,,,,,,,,,,,,,,,,,,,,,,,,
,,,,517196,001,2023-09-29_00h34.53.253,fluency,2022.2.5,Win32,165.0165017,,,,,,,,,,,,,,,,,,,,,,,,,,,,,,,,,,,,,,,,,,,,,,,,,,,,,,,,,,,,,,,,,,,,,,,,,,,,,,,,,,0,0,0,0,1,,"[""k""]",[0.2769999999999868],0,"[""k""]",[0.2769999999999868],,,,,,,,,,,,,,,,,,,,,,,,,,,,,,,,,,,,,,,,,,,,,,,,,,,,,,,,,,,,,,
,,,,517196,001,2023-09-29_00h34.53.253,fluency,2022.2.5,Win32,165.0165017,,,,,,,,,,,,,,,,,,,,,,,3,1,img/B01_03.jpg,CONTROL,Press K as soon as you see a face, ,KJ,,,,,,,,,,,,,,,,,,,,,,,,,,,,,,,,2,0.349,,,,,,,,,,,,,,0,22,22,3,1,,,,,,,,,,,,,space,0.718,,,,,,,,,,,,,,,,,,,,,,,,,,,,,,,,,,,,,,,,,,,,,,,,,,,,,,,,,,,,
,,,,517196,001,2023-09-29_00h34.53.253,fluency,2022.2.5,Win32,165.0165017,,,,,,,,,,,,,,,,,,,,,,,10,9,img/B09_10.jpg,CONTROL,Press K as soon as you see a face, ,KJ,,,,,,,,,,,,,,,,,,,,,,,,,,,,,,,,,,,,,,,,,,,,,,261.353,0,23,23,98,1,109,0,0,0,0,1,98,,,,,,,,,,,,,,,,,,,,,,,,,,,,,,,,,,,,,,,,,,,,,,,,,,,,,,,,,,,,,,,,,,,
,,,,517196,001,2023-09-29_00h34.53.253,fluency,2022.2.5,Win32,165.0165017,,,,,,,,,,,,,,,,,,,,,,,,,,,,,,,,,,,,,,,,,,,,,,,,,,,,,,,,,,,,,,,,,,,,,,,,,,,,,,,,,,0,0,0,0,1,,"[""k""]",[0.42500000000001137],0,"[""k""]",[0.42500000000001137],,,,,,,,,,,,,,,,,,,,,,,,,,,,,,,,,,,,,,,,,,,,,,,,,,,,,,,,,,,,,,
,,,,517196,001,2023-09-29_00h34.53.253,fluency,2022.2.5,Win32,165.0165017,,,,,,,,,,,,,,,,,,,,,,,10,9,img/B09_10.jpg,CONTROL,Press K as soon as you see a face, ,KJ,,,,,,,,,,,,,,,,,,,,,,,,,,,,,,,,2,0.755,,,,,,,,,,,,,,0,23,23,98,1,,,,,,,,,,,,,space,0.577,,,,,,,,,,,,,,,,,,,,,,,,,,,,,,,,,,,,,,,,,,,,,,,,,,,,,,,,,,,,
,,,,517196,001,2023-09-29_00h34.53.253,fluency,2022.2.5,Win32,165.0165017,,,,,,,,,,,,,,,,,,,,,,,2,4,img/B04_02.jpg,CONTROL,Press K as soon as you see a face, ,KJ,,,,,,,,,,,,,,,,,,,,,,,,,,,,,,,,,,,,,,,,,,,,,,266.706,0,24,24,35,1,109,0,0,0,0,1,98,,,,,,,,,,,,,,,,,,,,,,,,,,,,,,,,,,,,,,,,,,,,,,,,,,,,,,,,,,,,,,,,,,,
,,,,517196,001,2023-09-29_00h34.53.253,fluency,2022.2.5,Win32,165.0165017,,,,,,,,,,,,,,,,,,,,,,,,,,,,,,,,,,,,,,,,,,,,,,,,,,,,,,,,,,,,,,,,,,,,,,,,,,,,,,,,,,0,0,0,0,1,,"[""k""]",[0.3190000000000168],0,"[""k""]",[0.3190000000000168],,,,,,,,,,,,,,,,,,,,,,,,,,,,,,,,,,,,,,,,,,,,,,,,,,,,,,,,,,,,,,
,,,,517196,001,2023-09-29_00h34.53.253,fluency,2022.2.5,Win32,165.0165017,,,,,,,,,,,,,,,,,,,,,,,2,4,img/B04_02.jpg,CONTROL,Press K as soon as you see a face, ,KJ,,,,,,,,,,,,,,,,,,,,,,,,,,,,,,,,5,0.668,,,,,,,,,,,,,,0,24,24,35,1,,,,,,,,,,,,,space,0.414,,,,,,,,,,,,,,,,,,,,,,,,,,,,,,,,,,,,,,,,,,,,,,,,,,,,,,,,,,,,
,,,,517196,001,2023-09-29_00h34.53.253,fluency,2022.2.5,Win32,165.0165017,,,,,,,,,,,,,,,,,,,,,,,6,2,img/B02_06.jpg,CONTROL,Press K as soon as you see a face, ,KJ,,,,,,,,,,,,,,,,,,,,,,,,,,,,,,,,,,,,,,,,,,,,,,271.802,0,25,25,17,1,109,0,0,0,0,1,98,,,,,,,,,,,,,,,,,,,,,,,,,,,,,,,,,,,,,,,,,,,,,,,,,,,,,,,,,,,,,,,,,,,
,,,,517196,001,2023-09-29_00h34.53.253,fluency,2022.2.5,Win32,165.0165017,,,,,,,,,,,,,,,,,,,,,,,,,,,,,,,,,,,,,,,,,,,,,,,,,,,,,,,,,,,,,,,,,,,,,,,,,,,,,,,,,,0,0,0,0,1,,"[""k""]",[0.30700000000001637],0,"[""k""]",[0.30700000000001637],,,,,,,,,,,,,,,,,,,,,,,,,,,,,,,,,,,,,,,,,,,,,,,,,,,,,,,,,,,,,,
,,,,517196,001,2023-09-29_00h34.53.253,fluency,2022.2.5,Win32,165.0165017,,,,,,,,,,,,,,,,,,,,,,,6,2,img/B02_06.jpg,CONTROL,Press K as soon as you see a face, ,KJ,,,,,,,,,,,,,,,,,,,,,,,,,,,,,,,,3,0.293,,,,,,,,,,,,,,0,25,25,17,1,,,,,,,,,,,,,space,0.366,,,,,,,,,,,,,,,,,,,,,,,,,,,,,,,,,,,,,,,,,,,,,,,,,,,,,,,,,,,,
,,,,517196,001,2023-09-29_00h34.53.253,fluency,2022.2.5,Win32,165.0165017,,,,,,,,,,,,,,,,,,,,,,,2,5,img/B05_02.jpg,CONTROL,Press K as soon as you see a face, ,KJ,,,,,,,,,,,,,,,,,,,,,,,,,,,,,,,,,,,,,,,,,,,,,,277.486,0,26,26,46,1,109,0,0,0,0,1,98,,,,,,,,,,,,,,,,,,,,,,,,,,,,,,,,,,,,,,,,,,,,,,,,,,,,,,,,,,,,,,,,,,,
,,,,517196,001,2023-09-29_00h34.53.253,fluency,2022.2.5,Win32,165.0165017,,,,,,,,,,,,,,,,,,,,,,,,,,,,,,,,,,,,,,,,,,,,,,,,,,,,,,,,,,,,,,,,,,,,,,,,,,,,,,,,,,0,0,0,0,1,,"[""k""]",[0.28300000000001546],0,"[""k""]",[0.28300000000001546],,,,,,,,,,,,,,,,,,,,,,,,,,,,,,,,,,,,,,,,,,,,,,,,,,,,,,,,,,,,,,
,,,,517196,001,2023-09-29_00h34.53.253,fluency,2022.2.5,Win32,165.0165017,,,,,,,,,,,,,,,,,,,,,,,2,5,img/B05_02.jpg,CONTROL,Press K as soon as you see a face, ,KJ,,,,,,,,,,,,,,,,,,,,,,,,,,,,,,,,5,0.331,,,,,,,,,,,,,,0,26,26,46,1,,,,,,,,,,,,,space,0.368,,,,,,,,,,,,,,,,,,,,,,,,,,,,,,,,,,,,,,,,,,,,,,,,,,,,,,,,,,,,
,,,,517196,001,2023-09-29_00h34.53.253,fluency,2022.2.5,Win32,165.0165017,,,,,,,,,,,,,,,,,,,,,,,3,9,img/B09_03.jpg,CONTROL,Press K as soon as you see a face, ,KJ,,,,,,,,,,,,,,,,,,,,,,,,,,,,,,,,,,,,,,,,,,,,,,282.208,0,27,27,91,1,109,0,0,0,0,1,98,,,,,,,,,,,,,,,,,,,,,,,,,,,,,,,,,,,,,,,,,,,,,,,,,,,,,,,,,,,,,,,,,,,
,,,,517196,001,2023-09-29_00h34.53.253,fluency,2022.2.5,Win32,165.0165017,,,,,,,,,,,,,,,,,,,,,,,,,,,,,,,,,,,,,,,,,,,,,,,,,,,,,,,,,,,,,,,,,,,,,,,,,,,,,,,,,,0,0,0,0,1,,"[""k""]",[0.39500000000003865],0,"[""k""]",[0.39400000000000546],,,,,,,,,,,,,,,,,,,,,,,,,,,,,,,,,,,,,,,,,,,,,,,,,,,,,,,,,,,,,,
,,,,517196,001,2023-09-29_00h34.53.253,fluency,2022.2.5,Win32,165.0165017,,,,,,,,,,,,,,,,,,,,,,,3,9,img/B09_03.jpg,CONTROL,Press K as soon as you see a face, ,KJ,,,,,,,,,,,,,,,,,,,,,,,,,,,,,,,,4,0.296,,,,,,,,,,,,,,0,27,27,91,1,,,,,,,,,,,,,space,0.444,,,,,,,,,,,,,,,,,,,,,,,,,,,,,,,,,,,,,,,,,,,,,,,,,,,,,,,,,,,,
,,,,517196,001,2023-09-29_00h34.53.253,fluency,2022.2.5,Win32,165.0165017,,,,,,,,,,,,,,,,,,,,,,,10,2,img/B02_10.jpg,CONTROL,Press K as soon as you see a face, ,KJ,,,,,,,,,,,,,,,,,,,,,,,,,,,,,,,,,,,,,,,,,,,,,,286.972,0,28,28,21,1,109,0,0,0,0,1,98,,,,,,,,,,,,,,,,,,,,,,,,,,,,,,,,,,,,,,,,,,,,,,,,,,,,,,,,,,,,,,,,,,,
,,,,517196,001,2023-09-29_00h34.53.253,fluency,2022.2.5,Win32,165.0165017,,,,,,,,,,,,,,,,,,,,,,,,,,,,,,,,,,,,,,,,,,,,,,,,,,,,,,,,,,,,,,,,,,,,,,,,,,,,,,,,,,0,0,0,0,1,,"[""k""]",[0.33199999999999363],0,"[""k""]",[0.33199999999999363],,,,,,,,,,,,,,,,,,,,,,,,,,,,,,,,,,,,,,,,,,,,,,,,,,,,,,,,,,,,,,
,,,,517196,001,2023-09-29_00h34.53.253,fluency,2022.2.5,Win32,165.0165017,,,,,,,,,,,,,,,,,,,,,,,10,2,img/B02_10.jpg,CONTROL,Press K as soon as you see a face, ,KJ,,,,,,,,,,,,,,,,,,,,,,,,,,,,,,,,3,0.373,,,,,,,,,,,,,,0,28,28,21,1,,,,,,,,,,,,,space,0.383,,,,,,,,,,,,,,,,,,,,,,,,,,,,,,,,,,,,,,,,,,,,,,,,,,,,,,,,,,,,
,,,,517196,001,2023-09-29_00h34.53.253,fluency,2022.2.5,Win32,165.0165017,,,,,,,,,,,,,,,,,,,,,,,5,1,img/B01_05.jpg,CONTROL,Press K as soon as you see a face, ,KJ,,,,,,,,,,,,,,,,,,,,,,,,,,,,,,,,,,,,,,,,,,,,,,291.754,0,29,29,5,1,109,0,0,0,0,1,98,,,,,,,,,,,,,,,,,,,,,,,,,,,,,,,,,,,,,,,,,,,,,,,,,,,,,,,,,,,,,,,,,,,
,,,,517196,001,2023-09-29_00h34.53.253,fluency,2022.2.5,Win32,165.0165017,,,,,,,,,,,,,,,,,,,,,,,,,,,,,,,,,,,,,,,,,,,,,,,,,,,,,,,,,,,,,,,,,,,,,,,,,,,,,,,,,,0,0,0,0,1,,"[""k""]",[0.2769999999999868],0,"[""k""]",[0.2769999999999868],,,,,,,,,,,,,,,,,,,,,,,,,,,,,,,,,,,,,,,,,,,,,,,,,,,,,,,,,,,,,,
,,,,517196,001,2023-09-29_00h34.53.253,fluency,2022.2.5,Win32,165.0165017,,,,,,,,,,,,,,,,,,,,,,,5,1,img/B01_05.jpg,CONTROL,Press K as soon as you see a face, ,KJ,,,,,,,,,,,,,,,,,,,,,,,,,,,,,,,,3,0.248,,,,,,,,,,,,,,0,29,29,5,1,,,,,,,,,,,,,space,0.404,,,,,,,,,,,,,,,,,,,,,,,,,,,,,,,,,,,,,,,,,,,,,,,,,,,,,,,,,,,,
,,,,517196,001,2023-09-29_00h34.53.253,fluency,2022.2.5,Win32,165.0165017,,,,,,,,,,,,,,,,,,,,,,,10,4,img/B04_10.jpg,CONTROL,Press K as soon as you see a face, ,KJ,,,,,,,,,,,,,,,,,,,,,,,,,,,,,,,,,,,,,,,,,,,,,,296.426,0,30,30,43,1,109,0,0,0,0,1,98,,,,,,,,,,,,,,,,,,,,,,,,,,,,,,,,,,,,,,,,,,,,,,,,,,,,,,,,,,,,,,,,,,,
,,,,517196,001,2023-09-29_00h34.53.253,fluency,2022.2.5,Win32,165.0165017,,,,,,,,,,,,,,,,,,,,,,,,,,,,,,,,,,,,,,,,,,,,,,,,,,,,,,,,,,,,,,,,,,,,,,,,,,,,,,,,,,0,0,0,0,1,,"[""k""]",[0.33300000000002683],0,"[""k""]",[0.33300000000002683],,,,,,,,,,,,,,,,,,,,,,,,,,,,,,,,,,,,,,,,,,,,,,,,,,,,,,,,,,,,,,
,,,,517196,001,2023-09-29_00h34.53.253,fluency,2022.2.5,Win32,165.0165017,,,,,,,,,,,,,,,,,,,,,,,10,4,img/B04_10.jpg,CONTROL,Press K as soon as you see a face, ,KJ,,,,,,,,,,,,,,,,,,,,,,,,,,,,,,,,2,0.309,,,,,,,,,,,,,,0,30,30,43,1,,,,,,,,,,,,,space,0.406,,,,,,,,,,,,,,,,,,,,,,,,,,,,,,,,,,,,,,,,,,,,,,,,,,,,,,,,,,,,
,,,,517196,001,2023-09-29_00h34.53.253,fluency,2022.2.5,Win32,165.0165017,,,,,,,,,,,,,,,,,,,,,,,2,7,img/B07_02.jpg,CONTROL,Press K as soon as you see a face, ,KJ,,,,,,,,,,,,,,,,,,,,,,,,,,,,,,,,,,,,,,,,,,,,,,301.165,0,31,31,68,1,109,0,0,0,0,1,98,,,,,,,,,,,,,,,,,,,,,,,,,,,,,,,,,,,,,,,,,,,,,,,,,,,,,,,,,,,,,,,,,,,
,,,,517196,001,2023-09-29_00h34.53.253,fluency,2022.2.5,Win32,165.0165017,,,,,,,,,,,,,,,,,,,,,,,,,,,,,,,,,,,,,,,,,,,,,,,,,,,,,,,,,,,,,,,,,,,,,,,,,,,,,,,,,,0,0,0,0,1,,"[""k""]",[0.26099999999996726],0,"[""k""]",[0.26099999999996726],,,,,,,,,,,,,,,,,,,,,,,,,,,,,,,,,,,,,,,,,,,,,,,,,,,,,,,,,,,,,,
,,,,517196,001,2023-09-29_00h34.53.253,fluency,2022.2.5,Win32,165.0165017,,,,,,,,,,,,,,,,,,,,,,,2,7,img/B07_02.jpg,CONTROL,Press K as soon as you see a face, ,KJ,,,,,,,,,,,,,,,,,,,,,,,,,,,,,,,,4,0.317,,,,,,,,,,,,,,0,31,31,68,1,,,,,,,,,,,,,space,0.439,,,,,,,,,,,,,,,,,,,,,,,,,,,,,,,,,,,,,,,,,,,,,,,,,,,,,,,,,,,,
,,,,517196,001,2023-09-29_00h34.53.253,fluency,2022.2.5,Win32,165.0165017,,,,,,,,,,,,,,,,,,,,,,,10,8,img/B08_10.jpg,CONTROL,Press K as soon as you see a face, ,KJ,,,,,,,,,,,,,,,,,,,,,,,,,,,,,,,,,,,,,,,,,,,,,,305.947,0,32,32,87,1,109,0,0,0,0,1,98,,,,,,,,,,,,,,,,,,,,,,,,,,,,,,,,,,,,,,,,,,,,,,,,,,,,,,,,,,,,,,,,,,,
,,,,517196,001,2023-09-29_00h34.53.253,fluency,2022.2.5,Win32,165.0165017,,,,,,,,,,,,,,,,,,,,,,,,,,,,,,,,,,,,,,,,,,,,,,,,,,,,,,,,,,,,,,,,,,,,,,,,,,,,,,,,,,0,0,0,0,1,,"[""k""]",[0.41399999999998727],0,"[""k""]",[0.41399999999998727],,,,,,,,,,,,,,,,,,,,,,,,,,,,,,,,,,,,,,,,,,,,,,,,,,,,,,,,,,,,,,
,,,,517196,001,2023-09-29_00h34.53.253,fluency,2022.2.5,Win32,165.0165017,,,,,,,,,,,,,,,,,,,,,,,10,8,img/B08_10.jpg,CONTROL,Press K as soon as you see a face, ,KJ,,,,,,,,,,,,,,,,,,,,,,,,,,,,,,,,4,0.28,,,,,,,,,,,,,,0,32,32,87,1,,,,,,,,,,,,,space,0.301,,,,,,,,,,,,,,,,,,,,,,,,,,,,,,,,,,,,,,,,,,,,,,,,,,,,,,,,,,,,
,,,,517196,001,2023-09-29_00h34.53.253,fluency,2022.2.5,Win32,165.0165017,,,,,,,,,,,,,,,,,,,,,,,6,9,img/B09_06.jpg,CONTROL,Press K as soon as you see a face, ,KJ,,,,,,,,,,,,,,,,,,,,,,,,,,,,,,,,,,,,,,,,,,,,,,310.547,0,33,33,94,1,109,0,0,0,0,1,98,,,,,,,,,,,,,,,,,,,,,,,,,,,,,,,,,,,,,,,,,,,,,,,,,,,,,,,,,,,,,,,,,,,
,,,,517196,001,2023-09-29_00h34.53.253,fluency,2022.2.5,Win32,165.0165017,,,,,,,,,,,,,,,,,,,,,,,,,,,,,,,,,,,,,,,,,,,,,,,,,,,,,,,,,,,,,,,,,,,,,,,,,,,,,,,,,,0,0,0,0,1,,"[""k""]",[0.20299999999997453],0,"[""k""]",[0.20299999999997453],,,,,,,,,,,,,,,,,,,,,,,,,,,,,,,,,,,,,,,,,,,,,,,,,,,,,,,,,,,,,,
,,,,517196,001,2023-09-29_00h34.53.253,fluency,2022.2.5,Win32,165.0165017,,,,,,,,,,,,,,,,,,,,,,,6,9,img/B09_06.jpg,CONTROL,Press K as soon as you see a face, ,KJ,,,,,,,,,,,,,,,,,,,,,,,,,,,,,,,,4,0.26,,,,,,,,,,,,,,0,33,33,94,1,,,,,,,,,,,,,space,0.352,,,,,,,,,,,,,,,,,,,,,,,,,,,,,,,,,,,,,,,,,,,,,,,,,,,,,,,,,,,,
,,,,517196,001,2023-09-29_00h34.53.253,fluency,2022.2.5,Win32,165.0165017,,,,,,,,,,,,,,,,,,,,,,,4,6,img/B06_04.jpg,CONTROL,Press K as soon as you see a face, ,KJ,,,,,,,,,,,,,,,,,,,,,,,,,,,,,,,,,,,,,,,,,,,,,,315.183,0,34,34,59,1,109,0,0,0,0,1,98,,,,,,,,,,,,,,,,,,,,,,,,,,,,,,,,,,,,,,,,,,,,,,,,,,,,,,,,,,,,,,,,,,,
,,,,517196,001,2023-09-29_00h34.53.253,fluency,2022.2.5,Win32,165.0165017,,,,,,,,,,,,,,,,,,,,,,,,,,,,,,,,,,,,,,,,,,,,,,,,,,,,,,,,,,,,,,,,,,,,,,,,,,,,,,,,,,0,0,0,0,1,,"[""k""]",[0.2330000000000041],0,"[""k""]",[0.2330000000000041],,,,,,,,,,,,,,,,,,,,,,,,,,,,,,,,,,,,,,,,,,,,,,,,,,,,,,,,,,,,,,
,,,,517196,001,2023-09-29_00h34.53.253,fluency,2022.2.5,Win32,165.0165017,,,,,,,,,,,,,,,,,,,,,,,4,6,img/B06_04.jpg,CONTROL,Press K as soon as you see a face, ,KJ,,,,,,,,,,,,,,,,,,,,,,,,,,,,,,,,5,0.827,,,,,,,,,,,,,,0,34,34,59,1,,,,,,,,,,,,,space,0.447,,,,,,,,,,,,,,,,,,,,,,,,,,,,,,,,,,,,,,,,,,,,,,,,,,,,,,,,,,,,
,,,,517196,001,2023-09-29_00h34.53.253,fluency,2022.2.5,Win32,165.0165017,,,,,,,,,,,,,,,,,,,,,,,2,9,img/B09_02.jpg,CONTROL,Press K as soon as you see a face, ,KJ,,,,,,,,,,,,,,,,,,,,,,,,,,,,,,,,,,,,,,,,,,,,,,321.481,0,35,35,90,1,109,0,0,0,0,1,98,,,,,,,,,,,,,,,,,,,,,,,,,,,,,,,,,,,,,,,,,,,,,,,,,,,,,,,,,,,,,,,,,,,
,,,,517196,001,2023-09-29_00h34.53.253,fluency,2022.2.5,Win32,165.0165017,,,,,,,,,,,,,,,,,,,,,,,,,,,,,,,,,,,,,,,,,,,,,,,,,,,,,,,,,,,,,,,,,,,,,,,,,,,,,,,,,,0,0,0,0,1,,"[""k""]",[0.26499999999998636],0,"[""k""]",[0.26499999999998636],,,,,,,,,,,,,,,,,,,,,,,,,,,,,,,,,,,,,,,,,,,,,,,,,,,,,,,,,,,,,,
,,,,517196,001,2023-09-29_00h34.53.253,fluency,2022.2.5,Win32,165.0165017,,,,,,,,,,,,,,,,,,,,,,,2,9,img/B09_02.jpg,CONTROL,Press K as soon as you see a face, ,KJ,,,,,,,,,,,,,,,,,,,,,,,,,,,,,,,,4,0.385,,,,,,,,,,,,,,0,35,35,90,1,,,,,,,,,,,,,space,0.352,,,,,,,,,,,,,,,,,,,,,,,,,,,,,,,,,,,,,,,,,,,,,,,,,,,,,,,,,,,,
,,,,517196,001,2023-09-29_00h34.53.253,fluency,2022.2.5,Win32,165.0165017,,,,,,,,,,,,,,,,,,,,,,,9,3,img/B03_09.jpg,CONTROL,Press K as soon as you see a face, ,KJ,,,,,,,,,,,,,,,,,,,,,,,,,,,,,,,,,,,,,,,,,,,,,,327.244,0,36,36,31,1,109,0,0,0,0,1,98,,,,,,,,,,,,,,,,,,,,,,,,,,,,,,,,,,,,,,,,,,,,,,,,,,,,,,,,,,,,,,,,,,,
,,,,517196,001,2023-09-29_00h34.53.253,fluency,2022.2.5,Win32,165.0165017,,,,,,,,,,,,,,,,,,,,,,,,,,,,,,,,,,,,,,,,,,,,,,,,,,,,,,,,,,,,,,,,,,,,,,,,,,,,,,,,,,0,0,0,0,1,,"[""k""]",[0.20500000000004093],0,"[""k""]",[0.20500000000004093],,,,,,,,,,,,,,,,,,,,,,,,,,,,,,,,,,,,,,,,,,,,,,,,,,,,,,,,,,,,,,
,,,,517196,001,2023-09-29_00h34.53.253,fluency,2022.2.5,Win32,165.0165017,,,,,,,,,,,,,,,,,,,,,,,9,3,img/B03_09.jpg,CONTROL,Press K as soon as you see a face, ,KJ,,,,,,,,,,,,,,,,,,,,,,,,,,,,,,,,3,0.282,,,,,,,,,,,,,,0,36,36,31,1,,,,,,,,,,,,,space,0.276,,,,,,,,,,,,,,,,,,,,,,,,,,,,,,,,,,,,,,,,,,,,,,,,,,,,,,,,,,,,
,,,,517196,001,2023-09-29_00h34.53.253,fluency,2022.2.5,Win32,165.0165017,,,,,,,,,,,,,,,,,,,,,,,1,1,img/B01_01.jpg,CONTROL,Press K as soon as you see a face, ,KJ,,,,,,,,,,,,,,,,,,,,,,,,,,,,,,,,,,,,,,,,,,,,,,332.826,0,37,37,1,1,109,0,0,0,0,1,98,,,,,,,,,,,,,,,,,,,,,,,,,,,,,,,,,,,,,,,,,,,,,,,,,,,,,,,,,,,,,,,,,,,
,,,,517196,001,2023-09-29_00h34.53.253,fluency,2022.2.5,Win32,165.0165017,,,,,,,,,,,,,,,,,,,,,,,,,,,,,,,,,,,,,,,,,,,,,,,,,,,,,,,,,,,,,,,,,,,,,,,,,,,,,,,,,,0,0,0,0,1,,"[""k""]",[0.2300000000000182],0,"[""k""]",[0.2300000000000182],,,,,,,,,,,,,,,,,,,,,,,,,,,,,,,,,,,,,,,,,,,,,,,,,,,,,,,,,,,,,,
,,,,517196,001,2023-09-29_00h34.53.253,fluency,2022.2.5,Win32,165.0165017,,,,,,,,,,,,,,,,,,,,,,,1,1,img/B01_01.jpg,CONTROL,Press K as soon as you see a face, ,KJ,,,,,,,,,,,,,,,,,,,,,,,,,,,,,,,,6,0.487,,,,,,,,,,,,,,0,37,37,1,1,,,,,,,,,,,,,space,0.428,,,,,,,,,,,,,,,,,,,,,,,,,,,,,,,,,,,,,,,,,,,,,,,,,,,,,,,,,,,,
,,,,517196,001,2023-09-29_00h34.53.253,fluency,2022.2.5,Win32,165.0165017,,,,,,,,,,,,,,,,,,,,,,,5,9,img/B09_05.jpg,CONTROL,Press K as soon as you see a face, ,KJ,,,,,,,,,,,,,,,,,,,,,,,,,,,,,,,,,,,,,,,,,,,,,,338.765,0,38,38,93,1,109,0,0,0,0,1,98,,,,,,,,,,,,,,,,,,,,,,,,,,,,,,,,,,,,,,,,,,,,,,,,,,,,,,,,,,,,,,,,,,,
,,,,517196,001,2023-09-29_00h34.53.253,fluency,2022.2.5,Win32,165.0165017,,,,,,,,,,,,,,,,,,,,,,,,,,,,,,,,,,,,,,,,,,,,,,,,,,,,,,,,,,,,,,,,,,,,,,,,,,,,,,,,,,0,0,0,0,1,,"[""k""]",[0.228999999999985],0,"[""k""]",[0.228999999999985],,,,,,,,,,,,,,,,,,,,,,,,,,,,,,,,,,,,,,,,,,,,,,,,,,,,,,,,,,,,,,
,,,,517196,001,2023-09-29_00h34.53.253,fluency,2022.2.5,Win32,165.0165017,,,,,,,,,,,,,,,,,,,,,,,5,9,img/B09_05.jpg,CONTROL,Press K as soon as you see a face, ,KJ,,,,,,,,,,,,,,,,,,,,,,,,,,,,,,,,6,0.356,,,,,,,,,,,,,,0,38,38,93,1,,,,,,,,,,,,,space,0.3,,,,,,,,,,,,,,,,,,,,,,,,,,,,,,,,,,,,,,,,,,,,,,,,,,,,,,,,,,,,
,,,,517196,001,2023-09-29_00h34.53.253,fluency,2022.2.5,Win32,165.0165017,,,,,,,,,,,,,,,,,,,,,,,3,5,img/B05_03.jpg,CONTROL,Press K as soon as you see a face, ,KJ,,,,,,,,,,,,,,,,,,,,,,,,,,,,,,,,,,,,,,,,,,,,,,343.443,0,39,39,47,1,109,0,0,0,0,1,98,,,,,,,,,,,,,,,,,,,,,,,,,,,,,,,,,,,,,,,,,,,,,,,,,,,,,,,,,,,,,,,,,,,
,,,,517196,001,2023-09-29_00h34.53.253,fluency,2022.2.5,Win32,165.0165017,,,,,,,,,,,,,,,,,,,,,,,,,,,,,,,,,,,,,,,,,,,,,,,,,,,,,,,,,,,,,,,,,,,,,,,,,,,,,,,,,,0,0,0,0,1,,"[""k""]",[0.27199999999999136],0,"[""k""]",[0.27199999999999136],,,,,,,,,,,,,,,,,,,,,,,,,,,,,,,,,,,,,,,,,,,,,,,,,,,,,,,,,,,,,,
,,,,517196,001,2023-09-29_00h34.53.253,fluency,2022.2.5,Win32,165.0165017,,,,,,,,,,,,,,,,,,,,,,,3,5,img/B05_03.jpg,CONTROL,Press K as soon as you see a face, ,KJ,,,,,,,,,,,,,,,,,,,,,,,,,,,,,,,,4,0.259,,,,,,,,,,,,,,0,39,39,47,1,,,,,,,,,,,,,space,0.412,,,,,,,,,,,,,,,,,,,,,,,,,,,,,,,,,,,,,,,,,,,,,,,,,,,,,,,,,,,,
,,,,517196,001,2023-09-29_00h34.53.253,fluency,2022.2.5,Win32,165.0165017,,,,,,,,,,,,,,,,,,,,,,,6,1,img/B01_06.jpg,CONTROL,Press K as soon as you see a face, ,KJ,,,,,,,,,,,,,,,,,,,,,,,,,,,,,,,,,,,,,,,,,,,,,,348.14,0,40,40,6,1,109,0,0,0,0,1,98,,,,,,,,,,,,,,,,,,,,,,,,,,,,,,,,,,,,,,,,,,,,,,,,,,,,,,,,,,,,,,,,,,,
,,,,517196,001,2023-09-29_00h34.53.253,fluency,2022.2.5,Win32,165.0165017,,,,,,,,,,,,,,,,,,,,,,,,,,,,,,,,,,,,,,,,,,,,,,,,,,,,,,,,,,,,,,,,,,,,,,,,,,,,,,,,,,0,0,0,0,1,,"[""k""]",[0.2869999999999777],0,"[""k""]",[0.2869999999999777],,,,,,,,,,,,,,,,,,,,,,,,,,,,,,,,,,,,,,,,,,,,,,,,,,,,,,,,,,,,,,
,,,,517196,001,2023-09-29_00h34.53.253,fluency,2022.2.5,Win32,165.0165017,,,,,,,,,,,,,,,,,,,,,,,6,1,img/B01_06.jpg,CONTROL,Press K as soon as you see a face, ,KJ,,,,,,,,,,,,,,,,,,,,,,,,,,,,,,,,2,0.429,,,,,,,,,,,,,,0,40,40,6,1,,,,,,,,,,,,,space,0.395,,,,,,,,,,,,,,,,,,,,,,,,,,,,,,,,,,,,,,,,,,,,,,,,,,,,,,,,,,,,
,,,,517196,001,2023-09-29_00h34.53.253,fluency,2022.2.5,Win32,165.0165017,,,,,,,,,,,,,,,,,,,,,,,5,7,img/B07_05.jpg,CONTROL,Press K as soon as you see a face, ,KJ,,,,,,,,,,,,,,,,,,,,,,,,,,,,,,,,,,,,,,,,,,,,,,353.983,0,41,41,71,1,109,0,0,0,0,1,98,,,,,,,,,,,,,,,,,,,,,,,,,,,,,,,,,,,,,,,,,,,,,,,,,,,,,,,,,,,,,,,,,,,
,,,,517196,001,2023-09-29_00h34.53.253,fluency,2022.2.5,Win32,165.0165017,,,,,,,,,,,,,,,,,,,,,,,,,,,,,,,,,,,,,,,,,,,,,,,,,,,,,,,,,,,,,,,,,,,,,,,,,,,,,,,,,,0,0,0,0,1,,"[""k""]",[0.20400000000000773],0,"[""k""]",[0.20400000000000773],,,,,,,,,,,,,,,,,,,,,,,,,,,,,,,,,,,,,,,,,,,,,,,,,,,,,,,,,,,,,,
,,,,517196,001,2023-09-29_00h34.53.253,fluency,2022.2.5,Win32,165.0165017,,,,,,,,,,,,,,,,,,,,,,,5,7,img/B07_05.jpg,CONTROL,Press K as soon as you see a face, ,KJ,,,,,,,,,,,,,,,,,,,,,,,,,,,,,,,,3,0.324,,,,,,,,,,,,,,0,41,41,71,1,,,,,,,,,,,,,space,0.37,,,,,,,,,,,,,,,,,,,,,,,,,,,,,,,,,,,,,,,,,,,,,,,,,,,,,,,,,,,,
,,,,517196,001,2023-09-29_00h34.53.253,fluency,2022.2.5,Win32,165.0165017,,,,,,,,,,,,,,,,,,,,,,,6,8,img/B08_06.jpg,CONTROL,Press K as soon as you see a face, ,KJ,,,,,,,,,,,,,,,,,,,,,,,,,,,,,,,,,,,,,,,,,,,,,,359.698,0,42,42,83,1,109,0,0,0,0,1,98,,,,,,,,,,,,,,,,,,,,,,,,,,,,,,,,,,,,,,,,,,,,,,,,,,,,,,,,,,,,,,,,,,,
,,,,517196,001,2023-09-29_00h34.53.253,fluency,2022.2.5,Win32,165.0165017,,,,,,,,,,,,,,,,,,,,,,,,,,,,,,,,,,,,,,,,,,,,,,,,,,,,,,,,,,,,,,,,,,,,,,,,,,,,,,,,,,0,0,0,0,1,,"[""k""]",[0.27499999999997726],0,"[""k""]",[0.27499999999997726],,,,,,,,,,,,,,,,,,,,,,,,,,,,,,,,,,,,,,,,,,,,,,,,,,,,,,,,,,,,,,
,,,,517196,001,2023-09-29_00h34.53.253,fluency,2022.2.5,Win32,165.0165017,,,,,,,,,,,,,,,,,,,,,,,6,8,img/B08_06.jpg,CONTROL,Press K as soon as you see a face, ,KJ,,,,,,,,,,,,,,,,,,,,,,,,,,,,,,,,3,0.47,,,,,,,,,,,,,,0,42,42,83,1,,,,,,,,,,,,,space,0.342,,,,,,,,,,,,,,,,,,,,,,,,,,,,,,,,,,,,,,,,,,,,,,,,,,,,,,,,,,,,
,,,,517196,001,2023-09-29_00h34.53.253,fluency,2022.2.5,Win32,165.0165017,,,,,,,,,,,,,,,,,,,,,,,10,5,img/B05_10.jpg,CONTROL,Press K as soon as you see a face, ,KJ,,,,,,,,,,,,,,,,,,,,,,,,,,,,,,,,,,,,,,,,,,,,,,365.534,0,43,43,54,1,109,0,0,0,0,1,98,,,,,,,,,,,,,,,,,,,,,,,,,,,,,,,,,,,,,,,,,,,,,,,,,,,,,,,,,,,,,,,,,,,
,,,,517196,001,2023-09-29_00h34.53.253,fluency,2022.2.5,Win32,165.0165017,,,,,,,,,,,,,,,,,,,,,,,,,,,,,,,,,,,,,,,,,,,,,,,,,,,,,,,,,,,,,,,,,,,,,,,,,,,,,,,,,,0,0,0,0,1,,"[""k""]",[0.22100000000000364],0,"[""k""]",[0.22100000000000364],,,,,,,,,,,,,,,,,,,,,,,,,,,,,,,,,,,,,,,,,,,,,,,,,,,,,,,,,,,,,,
,,,,517196,001,2023-09-29_00h34.53.253,fluency,2022.2.5,Win32,165.0165017,,,,,,,,,,,,,,,,,,,,,,,10,5,img/B05_10.jpg,CONTROL,Press K as soon as you see a face, ,KJ,,,,,,,,,,,,,,,,,,,,,,,,,,,,,,,,2,0.227,,,,,,,,,,,,,,0,43,43,54,1,,,,,,,,,,,,,space,0.297,,,,,,,,,,,,,,,,,,,,,,,,,,,,,,,,,,,,,,,,,,,,,,,,,,,,,,,,,,,,
,,,,517196,001,2023-09-29_00h34.53.253,fluency,2022.2.5,Win32,165.0165017,,,,,,,,,,,,,,,,,,,,,,,7,5,img/B05_07.jpg,CONTROL,Press K as soon as you see a face, ,KJ,,,,,,,,,,,,,,,,,,,,,,,,,,,,,,,,,,,,,,,,,,,,,,370.087,0,44,44,51,1,109,0,0,0,0,1,98,,,,,,,,,,,,,,,,,,,,,,,,,,,,,,,,,,,,,,,,,,,,,,,,,,,,,,,,,,,,,,,,,,,
,,,,517196,001,2023-09-29_00h34.53.253,fluency,2022.2.5,Win32,165.0165017,,,,,,,,,,,,,,,,,,,,,,,,,,,,,,,,,,,,,,,,,,,,,,,,,,,,,,,,,,,,,,,,,,,,,,,,,,,,,,,,,,0,0,0,0,1,,"[""k""]",[0.257000000000005],0,"[""k""]",[0.257000000000005],,,,,,,,,,,,,,,,,,,,,,,,,,,,,,,,,,,,,,,,,,,,,,,,,,,,,,,,,,,,,,
,,,,517196,001,2023-09-29_00h34.53.253,fluency,2022.2.5,Win32,165.0165017,,,,,,,,,,,,,,,,,,,,,,,7,5,img/B05_07.jpg,CONTROL,Press K as soon as you see a face, ,KJ,,,,,,,,,,,,,,,,,,,,,,,,,,,,,,,,3,0.398,,,,,,,,,,,,,,0,44,44,51,1,,,,,,,,,,,,,space,0.359,,,,,,,,,,,,,,,,,,,,,,,,,,,,,,,,,,,,,,,,,,,,,,,,,,,,,,,,,,,,
,,,,517196,001,2023-09-29_00h34.53.253,fluency,2022.2.5,Win32,165.0165017,,,,,,,,,,,,,,,,,,,,,,,9,9,img/B09_09.jpg,CONTROL,Press K as soon as you see a face, ,KJ,,,,,,,,,,,,,,,,,,,,,,,,,,,,,,,,,,,,,,,,,,,,,,374.868,0,45,45,97,1,109,0,0,0,0,1,98,,,,,,,,,,,,,,,,,,,,,,,,,,,,,,,,,,,,,,,,,,,,,,,,,,,,,,,,,,,,,,,,,,,
,,,,517196,001,2023-09-29_00h34.53.253,fluency,2022.2.5,Win32,165.0165017,,,,,,,,,,,,,,,,,,,,,,,,,,,,,,,,,,,,,,,,,,,,,,,,,,,,,,,,,,,,,,,,,,,,,,,,,,,,,,,,,,0,0,0,0,1,,"[""k""]",[0.30700000000001637],0,"[""k""]",[0.30700000000001637],,,,,,,,,,,,,,,,,,,,,,,,,,,,,,,,,,,,,,,,,,,,,,,,,,,,,,,,,,,,,,
,,,,517196,001,2023-09-29_00h34.53.253,fluency,2022.2.5,Win32,165.0165017,,,,,,,,,,,,,,,,,,,,,,,9,9,img/B09_09.jpg,CONTROL,Press K as soon as you see a face, ,KJ,,,,,,,,,,,,,,,,,,,,,,,,,,,,,,,,2,0.222,,,,,,,,,,,,,,0,45,45,97,1,,,,,,,,,,,,,space,0.324,,,,,,,,,,,,,,,,,,,,,,,,,,,,,,,,,,,,,,,,,,,,,,,,,,,,,,,,,,,,
,,,,517196,001,2023-09-29_00h34.53.253,fluency,2022.2.5,Win32,165.0165017,,,,,,,,,,,,,,,,,,,,,,,8,4,img/B04_08.jpg,CONTROL,Press K as soon as you see a face, ,KJ,,,,,,,,,,,,,,,,,,,,,,,,,,,,,,,,,,,,,,,,,,,,,,380.437,0,46,46,41,1,109,0,0,0,0,1,98,,,,,,,,,,,,,,,,,,,,,,,,,,,,,,,,,,,,,,,,,,,,,,,,,,,,,,,,,,,,,,,,,,,
,,,,517196,001,2023-09-29_00h34.53.253,fluency,2022.2.5,Win32,165.0165017,,,,,,,,,,,,,,,,,,,,,,,,,,,,,,,,,,,,,,,,,,,,,,,,,,,,,,,,,,,,,,,,,,,,,,,,,,,,,,,,,,0,0,0,0,1,,"[""k""]",[0.26400000000001],0,"[""k""]",[0.2650000000000432],,,,,,,,,,,,,,,,,,,,,,,,,,,,,,,,,,,,,,,,,,,,,,,,,,,,,,,,,,,,,,
,,,,517196,001,2023-09-29_00h34.53.253,fluency,2022.2.5,Win32,165.0165017,,,,,,,,,,,,,,,,,,,,,,,8,4,img/B04_08.jpg,CONTROL,Press K as soon as you see a face, ,KJ,,,,,,,,,,,,,,,,,,,,,,,,,,,,,,,,2,0.301,,,,,,,,,,,,,,0,46,46,41,1,,,,,,,,,,,,,space,0.365,,,,,,,,,,,,,,,,,,,,,,,,,,,,,,,,,,,,,,,,,,,,,,,,,,,,,,,,,,,,
,,,,517196,001,2023-09-29_00h34.53.253,fluency,2022.2.5,Win32,165.0165017,,,,,,,,,,,,,,,,,,,,,,,10,6,img/B06_10.jpg,CONTROL,Press K as soon as you see a face, ,KJ,,,,,,,,,,,,,,,,,,,,,,,,,,,,,,,,,,,,,,,,,,,,,,386.122,0,47,47,65,1,109,0,0,0,0,1,98,,,,,,,,,,,,,,,,,,,,,,,,,,,,,,,,,,,,,,,,,,,,,,,,,,,,,,,,,,,,,,,,,,,
,,,,517196,001,2023-09-29_00h34.53.253,fluency,2022.2.5,Win32,165.0165017,,,,,,,,,,,,,,,,,,,,,,,,,,,,,,,,,,,,,,,,,,,,,,,,,,,,,,,,,,,,,,,,,,,,,,,,,,,,,,,,,,0,0,0,0,1,,"[""k""]",[0.32600000000002183],0,"[""k""]",[0.32600000000002183],,,,,,,,,,,,,,,,,,,,,,,,,,,,,,,,,,,,,,,,,,,,,,,,,,,,,,,,,,,,,,
,,,,517196,001,2023-09-29_00h34.53.253,fluency,2022.2.5,Win32,165.0165017,,,,,,,,,,,,,,,,,,,,,,,10,6,img/B06_10.jpg,CONTROL,Press K as soon as you see a face, ,KJ,,,,,,,,,,,,,,,,,,,,,,,,,,,,,,,,2,0.356,,,,,,,,,,,,,,0,47,47,65,1,,,,,,,,,,,,,space,0.339,,,,,,,,,,,,,,,,,,,,,,,,,,,,,,,,,,,,,,,,,,,,,,,,,,,,,,,,,,,,
,,,,517196,001,2023-09-29_00h34.53.253,fluency,2022.2.5,Win32,165.0165017,,,,,,,,,,,,,,,,,,,,,,,3,6,img/B06_03.jpg,CONTROL,Press K as soon as you see a face, ,KJ,,,,,,,,,,,,,,,,,,,,,,,,,,,,,,,,,,,,,,,,,,,,,,390.844,0,48,48,58,1,109,0,0,0,0,1,98,,,,,,,,,,,,,,,,,,,,,,,,,,,,,,,,,,,,,,,,,,,,,,,,,,,,,,,,,,,,,,,,,,,
,,,,517196,001,2023-09-29_00h34.53.253,fluency,2022.2.5,Win32,165.0165017,,,,,,,,,,,,,,,,,,,,,,,,,,,,,,,,,,,,,,,,,,,,,,,,,,,,,,,,,,,,,,,,,,,,,,,,,,,,,,,,,,0,0,0,0,1,,"[""k""]",[0.3039999999999736],0,"[""k""]",[0.3039999999999736],,,,,,,,,,,,,,,,,,,,,,,,,,,,,,,,,,,,,,,,,,,,,,,,,,,,,,,,,,,,,,
,,,,517196,001,2023-09-29_00h34.53.253,fluency,2022.2.5,Win32,165.0165017,,,,,,,,,,,,,,,,,,,,,,,3,6,img/B06_03.jpg,CONTROL,Press K as soon as you see a face, ,KJ,,,,,,,,,,,,,,,,,,,,,,,,,,,,,,,,5,0.265,,,,,,,,,,,,,,0,48,48,58,1,,,,,,,,,,,,,space,0.371,,,,,,,,,,,,,,,,,,,,,,,,,,,,,,,,,,,,,,,,,,,,,,,,,,,,,,,,,,,,
,,,,517196,001,2023-09-29_00h34.53.253,fluency,2022.2.5,Win32,165.0165017,,,,,,,,,,,,,,,,,,,,,,,6,10,img/B10_06.jpg,CONTROL,Press K as soon as you see a face, ,KJ,,,,,,,,,,,,,,,,,,,,,,,,,,,,,,,,,,,,,,,,,,,,,,395.504,0,49,49,105,1,109,0,0,0,0,1,98,,,,,,,,,,,,,,,,,,,,,,,,,,,,,,,,,,,,,,,,,,,,,,,,,,,,,,,,,,,,,,,,,,,
,,,,517196,001,2023-09-29_00h34.53.253,fluency,2022.2.5,Win32,165.0165017,,,,,,,,,,,,,,,,,,,,,,,,,,,,,,,,,,,,,,,,,,,,,,,,,,,,,,,,,,,,,,,,,,,,,,,,,,,,,,,,,,0,0,0,0,1,,"[""k""]",[0.375],0,"[""k""]",[0.375],,,,,,,,,,,,,,,,,,,,,,,,,,,,,,,,,,,,,,,,,,,,,,,,,,,,,,,,,,,,,,
,,,,517196,001,2023-09-29_00h34.53.253,fluency,2022.2.5,Win32,165.0165017,,,,,,,,,,,,,,,,,,,,,,,6,10,img/B10_06.jpg,CONTROL,Press K as soon as you see a face, ,KJ,,,,,,,,,,,,,,,,,,,,,,,,,,,,,,,,3,0.312,,,,,,,,,,,,,,0,49,49,105,1,,,,,,,,,,,,,space,0.315,,,,,,,,,,,,,,,,,,,,,,,,,,,,,,,,,,,,,,,,,,,,,,,,,,,,,,,,,,,,
,,,,517196,001,2023-09-29_00h34.53.253,fluency,2022.2.5,Win32,165.0165017,,,,,,,,,,,,,,,,,,,,,,,0,1,img/B01_00.jpg,CONTROL,Press K as soon as you see a face, ,KJ,,,,,,,,,,,,,,,,,,,,,,,,,,,,,,,,,,,,,,,,,,,,,,400.158,0,50,50,0,1,109,0,0,0,0,1,98,,,,,,,,,,,,,,,,,,,,,,,,,,,,,,,,,,,,,,,,,,,,,,,,,,,,,,,,,,,,,,,,,,,
,,,,517196,001,2023-09-29_00h34.53.253,fluency,2022.2.5,Win32,165.0165017,,,,,,,,,,,,,,,,,,,,,,,,,,,,,,,,,,,,,,,,,,,,,,,,,,,,,,,,,,,,,,,,,,,,,,,,,,,,,,,,,,0,0,0,0,1,,"[""k""]",[0.33799999999996544],0,"[""k""]",[0.33799999999996544],,,,,,,,,,,,,,,,,,,,,,,,,,,,,,,,,,,,,,,,,,,,,,,,,,,,,,,,,,,,,,
,,,,517196,001,2023-09-29_00h34.53.253,fluency,2022.2.5,Win32,165.0165017,,,,,,,,,,,,,,,,,,,,,,,0,1,img/B01_00.jpg,CONTROL,Press K as soon as you see a face, ,KJ,,,,,,,,,,,,,,,,,,,,,,,,,,,,,,,,5,0.341,,,,,,,,,,,,,,0,50,50,0,1,,,,,,,,,,,,,space,0.393,,,,,,,,,,,,,,,,,,,,,,,,,,,,,,,,,,,,,,,,,,,,,,,,,,,,,,,,,,,,
,,,,517196,001,2023-09-29_00h34.53.253,fluency,2022.2.5,Win32,165.0165017,,,,,,,,,,,,,,,,,,,,,,,0,8,img/B08_00.jpg,CONTROL,Press K as soon as you see a face, ,KJ,,,,,,,,,,,,,,,,,,,,,,,,,,,,,,,,,,,,,,,,,,,,,,405.916,0,51,51,77,1,109,0,0,0,0,1,98,,,,,,,,,,,,,,,,,,,,,,,,,,,,,,,,,,,,,,,,,,,,,,,,,,,,,,,,,,,,,,,,,,,
,,,,517196,001,2023-09-29_00h34.53.253,fluency,2022.2.5,Win32,165.0165017,,,,,,,,,,,,,,,,,,,,,,,,,,,,,,,,,,,,,,,,,,,,,,,,,,,,,,,,,,,,,,,,,,,,,,,,,,,,,,,,,,0,0,0,0,1,,"[""k""]",[0.2750000000000341],0,"[""k""]",[0.2750000000000341],,,,,,,,,,,,,,,,,,,,,,,,,,,,,,,,,,,,,,,,,,,,,,,,,,,,,,,,,,,,,,
,,,,517196,001,2023-09-29_00h34.53.253,fluency,2022.2.5,Win32,165.0165017,,,,,,,,,,,,,,,,,,,,,,,0,8,img/B08_00.jpg,CONTROL,Press K as soon as you see a face, ,KJ,,,,,,,,,,,,,,,,,,,,,,,,,,,,,,,,1,0.294,,,,,,,,,,,,,,0,51,51,77,1,,,,,,,,,,,,,space,0.467,,,,,,,,,,,,,,,,,,,,,,,,,,,,,,,,,,,,,,,,,,,,,,,,,,,,,,,,,,,,
,,,,517196,001,2023-09-29_00h34.53.253,fluency,2022.2.5,Win32,165.0165017,,,,,,,,,,,,,,,,,,,,,,,8,2,img/B02_08.jpg,CONTROL,Press K as soon as you see a face, ,KJ,,,,,,,,,,,,,,,,,,,,,,,,,,,,,,,,,,,,,,,,,,,,,,411.703,0,52,52,19,1,109,0,0,0,0,1,98,,,,,,,,,,,,,,,,,,,,,,,,,,,,,,,,,,,,,,,,,,,,,,,,,,,,,,,,,,,,,,,,,,,
,,,,517196,001,2023-09-29_00h34.53.253,fluency,2022.2.5,Win32,165.0165017,,,,,,,,,,,,,,,,,,,,,,,,,,,,,,,,,,,,,,,,,,,,,,,,,,,,,,,,,,,,,,,,,,,,,,,,,,,,,,,,,,0,0,0,0,1,,"[""k""]",[0.26200000000000045],0,"[""k""]",[0.26200000000000045],,,,,,,,,,,,,,,,,,,,,,,,,,,,,,,,,,,,,,,,,,,,,,,,,,,,,,,,,,,,,,
,,,,517196,001,2023-09-29_00h34.53.253,fluency,2022.2.5,Win32,165.0165017,,,,,,,,,,,,,,,,,,,,,,,8,2,img/B02_08.jpg,CONTROL,Press K as soon as you see a face, ,KJ,,,,,,,,,,,,,,,,,,,,,,,,,,,,,,,,2,0.214,,,,,,,,,,,,,,0,52,52,19,1,,,,,,,,,,,,,space,0.201,,,,,,,,,,,,,,,,,,,,,,,,,,,,,,,,,,,,,,,,,,,,,,,,,,,,,,,,,,,,
,,,,517196,001,2023-09-29_00h34.53.253,fluency,2022.2.5,Win32,165.0165017,,,,,,,,,,,,,,,,,,,,,,,9,2,img/B02_09.jpg,CONTROL,Press K as soon as you see a face, ,KJ,,,,,,,,,,,,,,,,,,,,,,,,,,,,,,,,,,,,,,,,,,,,,,416.14,0,53,53,20,1,109,0,0,0,0,1,98,,,,,,,,,,,,,,,,,,,,,,,,,,,,,,,,,,,,,,,,,,,,,,,,,,,,,,,,,,,,,,,,,,,
,,,,517196,001,2023-09-29_00h34.53.253,fluency,2022.2.5,Win32,165.0165017,,,,,,,,,,,,,,,,,,,,,,,,,,,,,,,,,,,,,,,,,,,,,,,,,,,,,,,,,,,,,,,,,,,,,,,,,,,,,,,,,,0,0,0,0,1,,"[""k""]",[0.2829999999999586],0,"[""k""]",[0.2829999999999586],,,,,,,,,,,,,,,,,,,,,,,,,,,,,,,,,,,,,,,,,,,,,,,,,,,,,,,,,,,,,,
,,,,517196,001,2023-09-29_00h34.53.253,fluency,2022.2.5,Win32,165.0165017,,,,,,,,,,,,,,,,,,,,,,,9,2,img/B02_09.jpg,CONTROL,Press K as soon as you see a face, ,KJ,,,,,,,,,,,,,,,,,,,,,,,,,,,,,,,,2,0.298,,,,,,,,,,,,,,0,53,53,20,1,,,,,,,,,,,,,space,0.304,,,,,,,,,,,,,,,,,,,,,,,,,,,,,,,,,,,,,,,,,,,,,,,,,,,,,,,,,,,,
,,,,517196,001,2023-09-29_00h34.53.253,fluency,2022.2.5,Win32,165.0165017,,,,,,,,,,,,,,,,,,,,,,,1,5,img/B05_01.jpg,CONTROL,Press K as soon as you see a face, ,KJ,,,,,,,,,,,,,,,,,,,,,,,,,,,,,,,,,,,,,,,,,,,,,,421.765,0,54,54,45,1,109,0,0,0,0,1,98,,,,,,,,,,,,,,,,,,,,,,,,,,,,,,,,,,,,,,,,,,,,,,,,,,,,,,,,,,,,,,,,,,,
,,,,517196,001,2023-09-29_00h34.53.253,fluency,2022.2.5,Win32,165.0165017,,,,,,,,,,,,,,,,,,,,,,,,,,,,,,,,,,,,,,,,,,,,,,,,,,,,,,,,,,,,,,,,,,,,,,,,,,,,,,,,,,0,0,0,0,1,,"[""k""]",[0.3410000000000082],0,"[""k""]",[0.3410000000000082],,,,,,,,,,,,,,,,,,,,,,,,,,,,,,,,,,,,,,,,,,,,,,,,,,,,,,,,,,,,,,
,,,,517196,001,2023-09-29_00h34.53.253,fluency,2022.2.5,Win32,165.0165017,,,,,,,,,,,,,,,,,,,,,,,1,5,img/B05_01.jpg,CONTROL,Press K as soon as you see a face, ,KJ,,,,,,,,,,,,,,,,,,,,,,,,,,,,,,,,3,0.279,,,,,,,,,,,,,,0,54,54,45,1,,,,,,,,,,,,,space,1.169,,,,,,,,,,,,,,,,,,,,,,,,,,,,,,,,,,,,,,,,,,,,,,,,,,,,,,,,,,,,
,,,,517196,001,2023-09-29_00h34.53.253,fluency,2022.2.5,Win32,165.0165017,,,,,,,,,,,,,,,,,,,,,,,10,1,img/B01_10.jpg,CONTROL,Press K as soon as you see a face, ,KJ,,,,,,,,,,,,,,,,,,,,,,,,,,,,,,,,,,,,,,,,,,,,,,427.231,0,55,55,10,1,109,0,0,0,0,1,98,,,,,,,,,,,,,,,,,,,,,,,,,,,,,,,,,,,,,,,,,,,,,,,,,,,,,,,,,,,,,,,,,,,
,,,,517196,001,2023-09-29_00h34.53.253,fluency,2022.2.5,Win32,165.0165017,,,,,,,,,,,,,,,,,,,,,,,,,,,,,,,,,,,,,,,,,,,,,,,,,,,,,,,,,,,,,,,,,,,,,,,,,,,,,,,,,,0,0,0,0,1,,"[""k""]",[0.4900000000000091],0,"[""k""]",[0.4900000000000091],,,,,,,,,,,,,,,,,,,,,,,,,,,,,,,,,,,,,,,,,,,,,,,,,,,,,,,,,,,,,,
,,,,517196,001,2023-09-29_00h34.53.253,fluency,2022.2.5,Win32,165.0165017,,,,,,,,,,,,,,,,,,,,,,,10,1,img/B01_10.jpg,CONTROL,Press K as soon as you see a face, ,KJ,,,,,,,,,,,,,,,,,,,,,,,,,,,,,,,,3,0.267,,,,,,,,,,,,,,0,55,55,10,1,,,,,,,,,,,,,space,0.32,,,,,,,,,,,,,,,,,,,,,,,,,,,,,,,,,,,,,,,,,,,,,,,,,,,,,,,,,,,,
,,,,517196,001,2023-09-29_00h34.53.253,fluency,2022.2.5,Win32,165.0165017,,,,,,,,,,,,,,,,,,,,,,,0,4,img/B04_00.jpg,CONTROL,Press K as soon as you see a face, ,KJ,,,,,,,,,,,,,,,,,,,,,,,,,,,,,,,,,,,,,,,,,,,,,,432.837,0,56,56,33,1,109,0,0,0,0,1,98,,,,,,,,,,,,,,,,,,,,,,,,,,,,,,,,,,,,,,,,,,,,,,,,,,,,,,,,,,,,,,,,,,,
,,,,517196,001,2023-09-29_00h34.53.253,fluency,2022.2.5,Win32,165.0165017,,,,,,,,,,,,,,,,,,,,,,,,,,,,,,,,,,,,,,,,,,,,,,,,,,,,,,,,,,,,,,,,,,,,,,,,,,,,,,,,,,0,0,0,0,1,,"[""k""]",[0.24799999999999045],0,"[""k""]",[0.24799999999999045],,,,,,,,,,,,,,,,,,,,,,,,,,,,,,,,,,,,,,,,,,,,,,,,,,,,,,,,,,,,,,
,,,,517196,001,2023-09-29_00h34.53.253,fluency,2022.2.5,Win32,165.0165017,,,,,,,,,,,,,,,,,,,,,,,0,4,img/B04_00.jpg,CONTROL,Press K as soon as you see a face, ,KJ,,,,,,,,,,,,,,,,,,,,,,,,,,,,,,,,4,0.294,,,,,,,,,,,,,,0,56,56,33,1,,,,,,,,,,,,,space,0.252,,,,,,,,,,,,,,,,,,,,,,,,,,,,,,,,,,,,,,,,,,,,,,,,,,,,,,,,,,,,
,,,,517196,001,2023-09-29_00h34.53.253,fluency,2022.2.5,Win32,165.0165017,,,,,,,,,,,,,,,,,,,,,,,2,2,img/B02_02.jpg,CONTROL,Press K as soon as you see a face, ,KJ,,,,,,,,,,,,,,,,,,,,,,,,,,,,,,,,,,,,,,,,,,,,,,438.406,0,57,57,13,1,109,0,0,0,0,1,98,,,,,,,,,,,,,,,,,,,,,,,,,,,,,,,,,,,,,,,,,,,,,,,,,,,,,,,,,,,,,,,,,,,
,,,,517196,001,2023-09-29_00h34.53.253,fluency,2022.2.5,Win32,165.0165017,,,,,,,,,,,,,,,,,,,,,,,,,,,,,,,,,,,,,,,,,,,,,,,,,,,,,,,,,,,,,,,,,,,,,,,,,,,,,,,,,,0,0,0,0,1,,"[""k""]",[0.2400000000000091],0,"[""k""]",[0.2400000000000091],,,,,,,,,,,,,,,,,,,,,,,,,,,,,,,,,,,,,,,,,,,,,,,,,,,,,,,,,,,,,,
,,,,517196,001,2023-09-29_00h34.53.253,fluency,2022.2.5,Win32,165.0165017,,,,,,,,,,,,,,,,,,,,,,,2,2,img/B02_02.jpg,CONTROL,Press K as soon as you see a face, ,KJ,,,,,,,,,,,,,,,,,,,,,,,,,,,,,,,,3,0.239,,,,,,,,,,,,,,0,57,57,13,1,,,,,,,,,,,,,space,0.318,,,,,,,,,,,,,,,,,,,,,,,,,,,,,,,,,,,,,,,,,,,,,,,,,,,,,,,,,,,,
,,,,517196,001,2023-09-29_00h34.53.253,fluency,2022.2.5,Win32,165.0165017,,,,,,,,,,,,,,,,,,,,,,,2,1,img/B01_02.jpg,CONTROL,Press K as soon as you see a face, ,KJ,,,,,,,,,,,,,,,,,,,,,,,,,,,,,,,,,,,,,,,,,,,,,,443.989,0,58,58,2,1,109,0,0,0,0,1,98,,,,,,,,,,,,,,,,,,,,,,,,,,,,,,,,,,,,,,,,,,,,,,,,,,,,,,,,,,,,,,,,,,,
,,,,517196,001,2023-09-29_00h34.53.253,fluency,2022.2.5,Win32,165.0165017,,,,,,,,,,,,,,,,,,,,,,,,,,,,,,,,,,,,,,,,,,,,,,,,,,,,,,,,,,,,,,,,,,,,,,,,,,,,,,,,,,0,0,0,0,1,,"[""k""]",[0.22399999999998954],0,"[""k""]",[0.22399999999998954],,,,,,,,,,,,,,,,,,,,,,,,,,,,,,,,,,,,,,,,,,,,,,,,,,,,,,,,,,,,,,
,,,,517196,001,2023-09-29_00h34.53.253,fluency,2022.2.5,Win32,165.0165017,,,,,,,,,,,,,,,,,,,,,,,2,1,img/B01_02.jpg,CONTROL,Press K as soon as you see a face, ,KJ,,,,,,,,,,,,,,,,,,,,,,,,,,,,,,,,5,0.259,,,,,,,,,,,,,,0,58,58,2,1,,,,,,,,,,,,,space,0.587,,,,,,,,,,,,,,,,,,,,,,,,,,,,,,,,,,,,,,,,,,,,,,,,,,,,,,,,,,,,
,,,,517196,001,2023-09-29_00h34.53.253,fluency,2022.2.5,Win32,165.0165017,,,,,,,,,,,,,,,,,,,,,,,9,6,img/B06_09.jpg,CONTROL,Press K as soon as you see a face, ,KJ,,,,,,,,,,,,,,,,,,,,,,,,,,,,,,,,,,,,,,,,,,,,,,449.855,0,59,59,64,1,109,0,0,0,0,1,98,,,,,,,,,,,,,,,,,,,,,,,,,,,,,,,,,,,,,,,,,,,,,,,,,,,,,,,,,,,,,,,,,,,
,,,,517196,001,2023-09-29_00h34.53.253,fluency,2022.2.5,Win32,165.0165017,,,,,,,,,,,,,,,,,,,,,,,,,,,,,,,,,,,,,,,,,,,,,,,,,,,,,,,,,,,,,,,,,,,,,,,,,,,,,,,,,,0,0,0,0,1,,"[""k""]",[0.29300000000000637],0,"[""k""]",[0.29300000000000637],,,,,,,,,,,,,,,,,,,,,,,,,,,,,,,,,,,,,,,,,,,,,,,,,,,,,,,,,,,,,,
,,,,517196,001,2023-09-29_00h34.53.253,fluency,2022.2.5,Win32,165.0165017,,,,,,,,,,,,,,,,,,,,,,,9,6,img/B06_09.jpg,CONTROL,Press K as soon as you see a face, ,KJ,,,,,,,,,,,,,,,,,,,,,,,,,,,,,,,,3,0.326,,,,,,,,,,,,,,0,59,59,64,1,,,,,,,,,,,,,space,0.282,,,,,,,,,,,,,,,,,,,,,,,,,,,,,,,,,,,,,,,,,,,,,,,,,,,,,,,,,,,,
,,,,517196,001,2023-09-29_00h34.53.253,fluency,2022.2.5,Win32,165.0165017,,,,,,,,,,,,,,,,,,,,,,,6,5,img/B05_06.jpg,CONTROL,Press K as soon as you see a face, ,KJ,,,,,,,,,,,,,,,,,,,,,,,,,,,,,,,,,,,,,,,,,,,,,,455.486,0,60,60,50,1,109,0,0,0,0,1,98,,,,,,,,,,,,,,,,,,,,,,,,,,,,,,,,,,,,,,,,,,,,,,,,,,,,,,,,,,,,,,,,,,,
,,,,517196,001,2023-09-29_00h34.53.253,fluency,2022.2.5,Win32,165.0165017,,,,,,,,,,,,,,,,,,,,,,,,,,,,,,,,,,,,,,,,,,,,,,,,,,,,,,,,,,,,,,,,,,,,,,,,,,,,,,,,,,0,0,0,0,1,,"[""k""]",[0.2259999999999991],0,"[""k""]",[0.22500000000002274],,,,,,,,,,,,,,,,,,,,,,,,,,,,,,,,,,,,,,,,,,,,,,,,,,,,,,,,,,,,,,
,,,,517196,001,2023-09-29_00h34.53.253,fluency,2022.2.5,Win32,165.0165017,,,,,,,,,,,,,,,,,,,,,,,6,5,img/B05_06.jpg,CONTROL,Press K as soon as you see a face, ,KJ,,,,,,,,,,,,,,,,,,,,,,,,,,,,,,,,3,0.247,,,,,,,,,,,,,,0,60,60,50,1,,,,,,,,,,,,,space,0.321,,,,,,,,,,,,,,,,,,,,,,,,,,,,,,,,,,,,,,,,,,,,,,,,,,,,,,,,,,,,
,,,,517196,001,2023-09-29_00h34.53.253,fluency,2022.2.5,Win32,165.0165017,,,,,,,,,,,,,,,,,,,,,,,4,1,img/B01_04.jpg,CONTROL,Press K as soon as you see a face, ,KJ,,,,,,,,,,,,,,,,,,,,,,,,,,,,,,,,,,,,,,,,,,,,,,460.079,0,61,61,4,1,109,0,0,0,0,1,98,,,,,,,,,,,,,,,,,,,,,,,,,,,,,,,,,,,,,,,,,,,,,,,,,,,,,,,,,,,,,,,,,,,
,,,,517196,001,2023-09-29_00h34.53.253,fluency,2022.2.5,Win32,165.0165017,,,,,,,,,,,,,,,,,,,,,,,,,,,,,,,,,,,,,,,,,,,,,,,,,,,,,,,,,,,,,,,,,,,,,,,,,,,,,,,,,,0,0,0,0,1,,"[""k""]",[0.34600000000000364],0,"[""k""]",[0.34600000000000364],,,,,,,,,,,,,,,,,,,,,,,,,,,,,,,,,,,,,,,,,,,,,,,,,,,,,,,,,,,,,,
,,,,517196,001,2023-09-29_00h34.53.253,fluency,2022.2.5,Win32,165.0165017,,,,,,,,,,,,,,,,,,,,,,,4,1,img/B01_04.jpg,CONTROL,Press K as soon as you see a face, ,KJ,,,,,,,,,,,,,,,,,,,,,,,,,,,,,,,,4,0.324,,,,,,,,,,,,,,0,61,61,4,1,,,,,,,,,,,,,space,0.334,,,,,,,,,,,,,,,,,,,,,,,,,,,,,,,,,,,,,,,,,,,,,,,,,,,,,,,,,,,,
,,,,517196,001,2023-09-29_00h34.53.253,fluency,2022.2.5,Win32,165.0165017,,,,,,,,,,,,,,,,,,,,,,,4,5,img/B05_04.jpg,CONTROL,Press K as soon as you see a face, ,KJ,,,,,,,,,,,,,,,,,,,,,,,,,,,,,,,,,,,,,,,,,,,,,,465.763,0,62,62,48,1,109,0,0,0,0,1,98,,,,,,,,,,,,,,,,,,,,,,,,,,,,,,,,,,,,,,,,,,,,,,,,,,,,,,,,,,,,,,,,,,,
,,,,517196,001,2023-09-29_00h34.53.253,fluency,2022.2.5,Win32,165.0165017,,,,,,,,,,,,,,,,,,,,,,,,,,,,,,,,,,,,,,,,,,,,,,,,,,,,,,,,,,,,,,,,,,,,,,,,,,,,,,,,,,0,0,0,0,1,,"[""k""]",[0.2259999999999991],0,"[""k""]",[0.2259999999999991],,,,,,,,,,,,,,,,,,,,,,,,,,,,,,,,,,,,,,,,,,,,,,,,,,,,,,,,,,,,,,
,,,,517196,001,2023-09-29_00h34.53.253,fluency,2022.2.5,Win32,165.0165017,,,,,,,,,,,,,,,,,,,,,,,4,5,img/B05_04.jpg,CONTROL,Press K as soon as you see a face, ,KJ,,,,,,,,,,,,,,,,,,,,,,,,,,,,,,,,3,0.292,,,,,,,,,,,,,,0,62,62,48,1,,,,,,,,,,,,,space,0.284,,,,,,,,,,,,,,,,,,,,,,,,,,,,,,,,,,,,,,,,,,,,,,,,,,,,,,,,,,,,
,,,,517196,001,2023-09-29_00h34.53.253,fluency,2022.2.5,Win32,165.0165017,,,,,,,,,,,,,,,,,,,,,,,4,4,img/B04_04.jpg,CONTROL,Press K as soon as you see a face, ,KJ,,,,,,,,,,,,,,,,,,,,,,,,,,,,,,,,,,,,,,,,,,,,,,471.358,0,63,63,37,1,109,0,0,0,0,1,98,,,,,,,,,,,,,,,,,,,,,,,,,,,,,,,,,,,,,,,,,,,,,,,,,,,,,,,,,,,,,,,,,,,
,,,,517196,001,2023-09-29_00h34.53.253,fluency,2022.2.5,Win32,165.0165017,,,,,,,,,,,,,,,,,,,,,,,,,,,,,,,,,,,,,,,,,,,,,,,,,,,,,,,,,,,,,,,,,,,,,,,,,,,,,,,,,,0,0,0,0,1,,"[""k""]",[0.2799999999999727],0,"[""k""]",[0.2799999999999727],,,,,,,,,,,,,,,,,,,,,,,,,,,,,,,,,,,,,,,,,,,,,,,,,,,,,,,,,,,,,,
,,,,517196,001,2023-09-29_00h34.53.253,fluency,2022.2.5,Win32,165.0165017,,,,,,,,,,,,,,,,,,,,,,,4,4,img/B04_04.jpg,CONTROL,Press K as soon as you see a face, ,KJ,,,,,,,,,,,,,,,,,,,,,,,,,,,,,,,,6,0.294,,,,,,,,,,,,,,0,63,63,37,1,,,,,,,,,,,,,space,0.3,,,,,,,,,,,,,,,,,,,,,,,,,,,,,,,,,,,,,,,,,,,,,,,,,,,,,,,,,,,,
,,,,517196,001,2023-09-29_00h34.53.253,fluency,2022.2.5,Win32,165.0165017,,,,,,,,,,,,,,,,,,,,,,,8,10,img/B10_08.jpg,CONTROL,Press K as soon as you see a face, ,KJ,,,,,,,,,,,,,,,,,,,,,,,,,,,,,,,,,,,,,,,,,,,,,,476.976,0,64,64,107,1,109,0,0,0,0,1,98,,,,,,,,,,,,,,,,,,,,,,,,,,,,,,,,,,,,,,,,,,,,,,,,,,,,,,,,,,,,,,,,,,,
,,,,517196,001,2023-09-29_00h34.53.253,fluency,2022.2.5,Win32,165.0165017,,,,,,,,,,,,,,,,,,,,,,,,,,,,,,,,,,,,,,,,,,,,,,,,,,,,,,,,,,,,,,,,,,,,,,,,,,,,,,,,,,0,0,0,0,1,,"[""k""]",[0.23099999999999454],0,"[""k""]",[0.23099999999999454],,,,,,,,,,,,,,,,,,,,,,,,,,,,,,,,,,,,,,,,,,,,,,,,,,,,,,,,,,,,,,
,,,,517196,001,2023-09-29_00h34.53.253,fluency,2022.2.5,Win32,165.0165017,,,,,,,,,,,,,,,,,,,,,,,8,10,img/B10_08.jpg,CONTROL,Press K as soon as you see a face, ,KJ,,,,,,,,,,,,,,,,,,,,,,,,,,,,,,,,2,0.34,,,,,,,,,,,,,,0,64,64,107,1,,,,,,,,,,,,,space,0.337,,,,,,,,,,,,,,,,,,,,,,,,,,,,,,,,,,,,,,,,,,,,,,,,,,,,,,,,,,,,
,,,,517196,001,2023-09-29_00h34.53.253,fluency,2022.2.5,Win32,165.0165017,,,,,,,,,,,,,,,,,,,,,,,0,10,img/B10_00.jpg,CONTROL,Press K as soon as you see a face, ,KJ,,,,,,,,,,,,,,,,,,,,,,,,,,,,,,,,,,,,,,,,,,,,,,482.673,0,65,65,99,1,109,0,0,0,0,1,98,,,,,,,,,,,,,,,,,,,,,,,,,,,,,,,,,,,,,,,,,,,,,,,,,,,,,,,,,,,,,,,,,,,
,,,,517196,001,2023-09-29_00h34.53.253,fluency,2022.2.5,Win32,165.0165017,,,,,,,,,,,,,,,,,,,,,,,,,,,,,,,,,,,,,,,,,,,,,,,,,,,,,,,,,,,,,,,,,,,,,,,,,,,,,,,,,,0,0,0,0,1,,"[""k""]",[0.20300000000008822],0,"[""k""]",[0.20300000000008822],,,,,,,,,,,,,,,,,,,,,,,,,,,,,,,,,,,,,,,,,,,,,,,,,,,,,,,,,,,,,,
,,,,517196,001,2023-09-29_00h34.53.253,fluency,2022.2.5,Win32,165.0165017,,,,,,,,,,,,,,,,,,,,,,,0,10,img/B10_00.jpg,CONTROL,Press K as soon as you see a face, ,KJ,,,,,,,,,,,,,,,,,,,,,,,,,,,,,,,,7,0.279,,,,,,,,,,,,,,0,65,65,99,1,,,,,,,,,,,,,space,0.911,,,,,,,,,,,,,,,,,,,,,,,,,,,,,,,,,,,,,,,,,,,,,,,,,,,,,,,,,,,,
,,,,517196,001,2023-09-29_00h34.53.253,fluency,2022.2.5,Win32,165.0165017,,,,,,,,,,,,,,,,,,,,,,,5,2,img/B02_05.jpg,CONTROL,Press K as soon as you see a face, ,KJ,,,,,,,,,,,,,,,,,,,,,,,,,,,,,,,,,,,,,,,,,,,,,,487.885,0,66,66,16,1,109,0,0,0,0,1,98,,,,,,,,,,,,,,,,,,,,,,,,,,,,,,,,,,,,,,,,,,,,,,,,,,,,,,,,,,,,,,,,,,,
,,,,517196,001,2023-09-29_00h34.53.253,fluency,2022.2.5,Win32,165.0165017,,,,,,,,,,,,,,,,,,,,,,,,,,,,,,,,,,,,,,,,,,,,,,,,,,,,,,,,,,,,,,,,,,,,,,,,,,,,,,,,,,0,0,0,0,1,,"[""k""]",[0.3349999999999227],0,"[""k""]",[0.3349999999999227],,,,,,,,,,,,,,,,,,,,,,,,,,,,,,,,,,,,,,,,,,,,,,,,,,,,,,,,,,,,,,
,,,,517196,001,2023-09-29_00h34.53.253,fluency,2022.2.5,Win32,165.0165017,,,,,,,,,,,,,,,,,,,,,,,5,2,img/B02_05.jpg,CONTROL,Press K as soon as you see a face, ,KJ,,,,,,,,,,,,,,,,,,,,,,,,,,,,,,,,4,0.404,,,,,,,,,,,,,,0,66,66,16,1,,,,,,,,,,,,,space,0.226,,,,,,,,,,,,,,,,,,,,,,,,,,,,,,,,,,,,,,,,,,,,,,,,,,,,,,,,,,,,
,,,,517196,001,2023-09-29_00h34.53.253,fluency,2022.2.5,Win32,165.0165017,,,,,,,,,,,,,,,,,,,,,,,8,7,img/B07_08.jpg,CONTROL,Press K as soon as you see a face, ,KJ,,,,,,,,,,,,,,,,,,,,,,,,,,,,,,,,,,,,,,,,,,,,,,493.54,0,67,67,74,1,109,0,0,0,0,1,98,,,,,,,,,,,,,,,,,,,,,,,,,,,,,,,,,,,,,,,,,,,,,,,,,,,,,,,,,,,,,,,,,,,
,,,,517196,001,2023-09-29_00h34.53.253,fluency,2022.2.5,Win32,165.0165017,,,,,,,,,,,,,,,,,,,,,,,,,,,,,,,,,,,,,,,,,,,,,,,,,,,,,,,,,,,,,,,,,,,,,,,,,,,,,,,,,,0,0,0,0,1,,"[""k""]",[0.2300000000000182],0,"[""k""]",[0.2300000000000182],,,,,,,,,,,,,,,,,,,,,,,,,,,,,,,,,,,,,,,,,,,,,,,,,,,,,,,,,,,,,,
,,,,517196,001,2023-09-29_00h34.53.253,fluency,2022.2.5,Win32,165.0165017,,,,,,,,,,,,,,,,,,,,,,,8,7,img/B07_08.jpg,CONTROL,Press K as soon as you see a face, ,KJ,,,,,,,,,,,,,,,,,,,,,,,,,,,,,,,,5,0.24,,,,,,,,,,,,,,0,67,67,74,1,,,,,,,,,,,,,space,0.175,,,,,,,,,,,,,,,,,,,,,,,,,,,,,,,,,,,,,,,,,,,,,,,,,,,,,,,,,,,,
,,,,517196,001,2023-09-29_00h34.53.253,fluency,2022.2.5,Win32,165.0165017,,,,,,,,,,,,,,,,,,,,,,,9,8,img/B08_09.jpg,CONTROL,Press K as soon as you see a face, ,KJ,,,,,,,,,,,,,,,,,,,,,,,,,,,,,,,,,,,,,,,,,,,,,,498.983,0,68,68,86,1,109,0,0,0,0,1,98,,,,,,,,,,,,,,,,,,,,,,,,,,,,,,,,,,,,,,,,,,,,,,,,,,,,,,,,,,,,,,,,,,,
,,,,517196,001,2023-09-29_00h34.53.253,fluency,2022.2.5,Win32,165.0165017,,,,,,,,,,,,,,,,,,,,,,,,,,,,,,,,,,,,,,,,,,,,,,,,,,,,,,,,,,,,,,,,,,,,,,,,,,,,,,,,,,0,0,0,0,1,,"[""k""]",[0.20299999999997453],0,"[""k""]",[0.20299999999997453],,,,,,,,,,,,,,,,,,,,,,,,,,,,,,,,,,,,,,,,,,,,,,,,,,,,,,,,,,,,,,
,,,,517196,001,2023-09-29_00h34.53.253,fluency,2022.2.5,Win32,165.0165017,,,,,,,,,,,,,,,,,,,,,,,9,8,img/B08_09.jpg,CONTROL,Press K as soon as you see a face, ,KJ,,,,,,,,,,,,,,,,,,,,,,,,,,,,,,,,4,0.273,,,,,,,,,,,,,,0,68,68,86,1,,,,,,,,,,,,,space,0.202,,,,,,,,,,,,,,,,,,,,,,,,,,,,,,,,,,,,,,,,,,,,,,,,,,,,,,,,,,,,
,,,,517196,001,2023-09-29_00h34.53.253,fluency,2022.2.5,Win32,165.0165017,,,,,,,,,,,,,,,,,,,,,,,0,2,img/B02_00.jpg,CONTROL,Press K as soon as you see a face, ,KJ,,,,,,,,,,,,,,,,,,,,,,,,,,,,,,,,,,,,,,,,,,,,,,503.485,0,69,69,11,1,109,0,0,0,0,1,98,,,,,,,,,,,,,,,,,,,,,,,,,,,,,,,,,,,,,,,,,,,,,,,,,,,,,,,,,,,,,,,,,,,
,,,,517196,001,2023-09-29_00h34.53.253,fluency,2022.2.5,Win32,165.0165017,,,,,,,,,,,,,,,,,,,,,,,,,,,,,,,,,,,,,,,,,,,,,,,,,,,,,,,,,,,,,,,,,,,,,,,,,,,,,,,,,,0,0,0,0,1,,"[""k""]",[0.28099999999994907],0,"[""k""]",[0.28099999999994907],,,,,,,,,,,,,,,,,,,,,,,,,,,,,,,,,,,,,,,,,,,,,,,,,,,,,,,,,,,,,,
,,,,517196,001,2023-09-29_00h34.53.253,fluency,2022.2.5,Win32,165.0165017,,,,,,,,,,,,,,,,,,,,,,,0,2,img/B02_00.jpg,CONTROL,Press K as soon as you see a face, ,KJ,,,,,,,,,,,,,,,,,,,,,,,,,,,,,,,,3,0.228,,,,,,,,,,,,,,0,69,69,11,1,,,,,,,,,,,,,space,0.263,,,,,,,,,,,,,,,,,,,,,,,,,,,,,,,,,,,,,,,,,,,,,,,,,,,,,,,,,,,,
,,,,517196,001,2023-09-29_00h34.53.253,fluency,2022.2.5,Win32,165.0165017,,,,,,,,,,,,,,,,,,,,,,,5,10,img/B10_05.jpg,CONTROL,Press K as soon as you see a face, ,KJ,,,,,,,,,,,,,,,,,,,,,,,,,,,,,,,,,,,,,,,,,,,,,,509,0,70,70,104,1,109,0,0,0,0,1,98,,,,,,,,,,,,,,,,,,,,,,,,,,,,,,,,,,,,,,,,,,,,,,,,,,,,,,,,,,,,,,,,,,,
,,,,517196,001,2023-09-29_00h34.53.253,fluency,2022.2.5,Win32,165.0165017,,,,,,,,,,,,,,,,,,,,,,,,,,,,,,,,,,,,,,,,,,,,,,,,,,,,,,,,,,,,,,,,,,,,,,,,,,,,,,,,,,0,0,0,0,1,,"[""k""]",[0.21700000000009823],0,"[""k""]",[0.21700000000009823],,,,,,,,,,,,,,,,,,,,,,,,,,,,,,,,,,,,,,,,,,,,,,,,,,,,,,,,,,,,,,
,,,,517196,001,2023-09-29_00h34.53.253,fluency,2022.2.5,Win32,165.0165017,,,,,,,,,,,,,,,,,,,,,,,5,10,img/B10_05.jpg,CONTROL,Press K as soon as you see a face, ,KJ,,,,,,,,,,,,,,,,,,,,,,,,,,,,,,,,3,0.307,,,,,,,,,,,,,,0,70,70,104,1,,,,,,,,,,,,,space,0.301,,,,,,,,,,,,,,,,,,,,,,,,,,,,,,,,,,,,,,,,,,,,,,,,,,,,,,,,,,,,
,,,,517196,001,2023-09-29_00h34.53.253,fluency,2022.2.5,Win32,165.0165017,,,,,,,,,,,,,,,,,,,,,,,6,6,img/B06_06.jpg,CONTROL,Press K as soon as you see a face, ,KJ,,,,,,,,,,,,,,,,,,,,,,,,,,,,,,,,,,,,,,,,,,,,,,514.63,0,71,71,61,1,109,0,0,0,0,1,98,,,,,,,,,,,,,,,,,,,,,,,,,,,,,,,,,,,,,,,,,,,,,,,,,,,,,,,,,,,,,,,,,,,
,,,,517196,001,2023-09-29_00h34.53.253,fluency,2022.2.5,Win32,165.0165017,,,,,,,,,,,,,,,,,,,,,,,,,,,,,,,,,,,,,,,,,,,,,,,,,,,,,,,,,,,,,,,,,,,,,,,,,,,,,,,,,,0,0,0,0,1,,"[""k""]",[0.3389999999999418],0,"[""k""]",[0.3389999999999418],,,,,,,,,,,,,,,,,,,,,,,,,,,,,,,,,,,,,,,,,,,,,,,,,,,,,,,,,,,,,,
,,,,517196,001,2023-09-29_00h34.53.253,fluency,2022.2.5,Win32,165.0165017,,,,,,,,,,,,,,,,,,,,,,,6,6,img/B06_06.jpg,CONTROL,Press K as soon as you see a face, ,KJ,,,,,,,,,,,,,,,,,,,,,,,,,,,,,,,,2,0.359,,,,,,,,,,,,,,0,71,71,61,1,,,,,,,,,,,,,space,1.019,,,,,,,,,,,,,,,,,,,,,,,,,,,,,,,,,,,,,,,,,,,,,,,,,,,,,,,,,,,,
,,,,517196,001,2023-09-29_00h34.53.253,fluency,2022.2.5,Win32,165.0165017,,,,,,,,,,,,,,,,,,,,,,,4,10,img/B10_04.jpg,CONTROL,Press K as soon as you see a face, ,KJ,,,,,,,,,,,,,,,,,,,,,,,,,,,,,,,,,,,,,,,,,,,,,,520.03,0,72,72,103,1,109,0,0,0,0,1,98,,,,,,,,,,,,,,,,,,,,,,,,,,,,,,,,,,,,,,,,,,,,,,,,,,,,,,,,,,,,,,,,,,,
,,,,517196,001,2023-09-29_00h34.53.253,fluency,2022.2.5,Win32,165.0165017,,,,,,,,,,,,,,,,,,,,,,,,,,,,,,,,,,,,,,,,,,,,,,,,,,,,,,,,,,,,,,,,,,,,,,,,,,,,,,,,,,0,0,0,0,1,,"[""k""]",[1.0950000000000273],0,"[""space"",""k""]","[0.6469999999999345,1.0950000000000273]",,,,,,,,,,,,,,,,,,,,,,,,,,,,,,,,,,,,,,,,,,,,,,,,,,,,,,,,,,,,,,
,,,,517196,001,2023-09-29_00h34.53.253,fluency,2022.2.5,Win32,165.0165017,,,,,,,,,,,,,,,,,,,,,,,4,10,img/B10_04.jpg,CONTROL,Press K as soon as you see a face, ,KJ,,,,,,,,,,,,,,,,,,,,,,,,,,,,,,,,6,0.279,,,,,,,,,,,,,,0,72,72,103,1,,,,,,,,,,,,,space,0.281,,,,,,,,,,,,,,,,,,,,,,,,,,,,,,,,,,,,,,,,,,,,,,,,,,,,,,,,,,,,
,,,,517196,001,2023-09-29_00h34.53.253,fluency,2022.2.5,Win32,165.0165017,,,,,,,,,,,,,,,,,,,,,,,1,4,img/B04_01.jpg,CONTROL,Press K as soon as you see a face, ,KJ,,,,,,,,,,,,,,,,,,,,,,,,,,,,,,,,,,,,,,,,,,,,,,524.612,0,73,73,34,1,109,0,0,0,0,1,98,,,,,,,,,,,,,,,,,,,,,,,,,,,,,,,,,,,,,,,,,,,,,,,,,,,,,,,,,,,,,,,,,,,
,,,,517196,001,2023-09-29_00h34.53.253,fluency,2022.2.5,Win32,165.0165017,,,,,,,,,,,,,,,,,,,,,,,,,,,,,,,,,,,,,,,,,,,,,,,,,,,,,,,,,,,,,,,,,,,,,,,,,,,,,,,,,,0,0,0,0,1,,"[""k""]",[0.2999999999999545],0,"[""k""]",[0.2999999999999545],,,,,,,,,,,,,,,,,,,,,,,,,,,,,,,,,,,,,,,,,,,,,,,,,,,,,,,,,,,,,,
,,,,517196,001,2023-09-29_00h34.53.253,fluency,2022.2.5,Win32,165.0165017,,,,,,,,,,,,,,,,,,,,,,,1,4,img/B04_01.jpg,CONTROL,Press K as soon as you see a face, ,KJ,,,,,,,,,,,,,,,,,,,,,,,,,,,,,,,,6,0.308,,,,,,,,,,,,,,0,73,73,34,1,,,,,,,,,,,,,space,0.304,,,,,,,,,,,,,,,,,,,,,,,,,,,,,,,,,,,,,,,,,,,,,,,,,,,,,,,,,,,,
,,,,517196,001,2023-09-29_00h34.53.253,fluency,2022.2.5,Win32,165.0165017,,,,,,,,,,,,,,,,,,,,,,,5,5,img/B05_05.jpg,CONTROL,Press K as soon as you see a face, ,KJ,,,,,,,,,,,,,,,,,,,,,,,,,,,,,,,,,,,,,,,,,,,,,,530.248,0,74,74,49,1,109,0,0,0,0,1,98,,,,,,,,,,,,,,,,,,,,,,,,,,,,,,,,,,,,,,,,,,,,,,,,,,,,,,,,,,,,,,,,,,,
,,,,517196,001,2023-09-29_00h34.53.253,fluency,2022.2.5,Win32,165.0165017,,,,,,,,,,,,,,,,,,,,,,,,,,,,,,,,,,,,,,,,,,,,,,,,,,,,,,,,,,,,,,,,,,,,,,,,,,,,,,,,,,0,0,0,0,1,,"[""k""]",[0.27800000000002],0,"[""k""]",[0.27800000000002],,,,,,,,,,,,,,,,,,,,,,,,,,,,,,,,,,,,,,,,,,,,,,,,,,,,,,,,,,,,,,
,,,,517196,001,2023-09-29_00h34.53.253,fluency,2022.2.5,Win32,165.0165017,,,,,,,,,,,,,,,,,,,,,,,5,5,img/B05_05.jpg,CONTROL,Press K as soon as you see a face, ,KJ,,,,,,,,,,,,,,,,,,,,,,,,,,,,,,,,3,0.267,,,,,,,,,,,,,,0,74,74,49,1,,,,,,,,,,,,,space,0.362,,,,,,,,,,,,,,,,,,,,,,,,,,,,,,,,,,,,,,,,,,,,,,,,,,,,,,,,,,,,
,,,,517196,001,2023-09-29_00h34.53.253,fluency,2022.2.5,Win32,165.0165017,,,,,,,,,,,,,,,,,,,,,,,7,9,img/B09_07.jpg,CONTROL,Press K as soon as you see a face, ,KJ,,,,,,,,,,,,,,,,,,,,,,,,,,,,,,,,,,,,,,,,,,,,,,535.897,0,75,75,95,1,109,0,0,0,0,1,98,,,,,,,,,,,,,,,,,,,,,,,,,,,,,,,,,,,,,,,,,,,,,,,,,,,,,,,,,,,,,,,,,,,
,,,,517196,001,2023-09-29_00h34.53.253,fluency,2022.2.5,Win32,165.0165017,,,,,,,,,,,,,,,,,,,,,,,,,,,,,,,,,,,,,,,,,,,,,,,,,,,,,,,,,,,,,,,,,,,,,,,,,,,,,,,,,,0,0,0,0,1,,"[""k""]",[0.2620000000000573],0,"[""k""]",[0.2620000000000573],,,,,,,,,,,,,,,,,,,,,,,,,,,,,,,,,,,,,,,,,,,,,,,,,,,,,,,,,,,,,,
,,,,517196,001,2023-09-29_00h34.53.253,fluency,2022.2.5,Win32,165.0165017,,,,,,,,,,,,,,,,,,,,,,,7,9,img/B09_07.jpg,CONTROL,Press K as soon as you see a face, ,KJ,,,,,,,,,,,,,,,,,,,,,,,,,,,,,,,,4,0.256,,,,,,,,,,,,,,0,75,75,95,1,,,,,,,,,,,,,space,0.196,,,,,,,,,,,,,,,,,,,,,,,,,,,,,,,,,,,,,,,,,,,,,,,,,,,,,,,,,,,,
,,,,517196,001,2023-09-29_00h34.53.253,fluency,2022.2.5,Win32,165.0165017,,,,,,,,,,,,,,,,,,,,,,,8,9,img/B09_08.jpg,CONTROL,Press K as soon as you see a face, ,KJ,,,,,,,,,,,,,,,,,,,,,,,,,,,,,,,,,,,,,,,,,,,,,,541.369,0,76,76,96,1,109,0,0,0,0,1,98,,,,,,,,,,,,,,,,,,,,,,,,,,,,,,,,,,,,,,,,,,,,,,,,,,,,,,,,,,,,,,,,,,,
,,,,517196,001,2023-09-29_00h34.53.253,fluency,2022.2.5,Win32,165.0165017,,,,,,,,,,,,,,,,,,,,,,,,,,,,,,,,,,,,,,,,,,,,,,,,,,,,,,,,,,,,,,,,,,,,,,,,,,,,,,,,,,0,0,0,0,1,,"[""k""]",[0.2319999999999709],0,"[""k""]",[0.2319999999999709],,,,,,,,,,,,,,,,,,,,,,,,,,,,,,,,,,,,,,,,,,,,,,,,,,,,,,,,,,,,,,
,,,,517196,001,2023-09-29_00h34.53.253,fluency,2022.2.5,Win32,165.0165017,,,,,,,,,,,,,,,,,,,,,,,8,9,img/B09_08.jpg,CONTROL,Press K as soon as you see a face, ,KJ,,,,,,,,,,,,,,,,,,,,,,,,,,,,,,,,4,0.271,,,,,,,,,,,,,,0,76,76,96,1,,,,,,,,,,,,,space,0.282,,,,,,,,,,,,,,,,,,,,,,,,,,,,,,,,,,,,,,,,,,,,,,,,,,,,,,,,,,,,
,,,,517196,001,2023-09-29_00h34.53.253,fluency,2022.2.5,Win32,165.0165017,,,,,,,,,,,,,,,,,,,,,,,1,8,img/B08_01.jpg,CONTROL,Press K as soon as you see a face, ,KJ,,,,,,,,,,,,,,,,,,,,,,,,,,,,,,,,,,,,,,,,,,,,,,546.945,0,77,77,78,1,109,0,0,0,0,1,98,,,,,,,,,,,,,,,,,,,,,,,,,,,,,,,,,,,,,,,,,,,,,,,,,,,,,,,,,,,,,,,,,,,
,,,,517196,001,2023-09-29_00h34.53.253,fluency,2022.2.5,Win32,165.0165017,,,,,,,,,,,,,,,,,,,,,,,,,,,,,,,,,,,,,,,,,,,,,,,,,,,,,,,,,,,,,,,,,,,,,,,,,,,,,,,,,,0,0,0,0,1,,"[""k""]",[0.5230000000000246],0,"[""k""]",[0.5230000000000246],,,,,,,,,,,,,,,,,,,,,,,,,,,,,,,,,,,,,,,,,,,,,,,,,,,,,,,,,,,,,,
,,,,517196,001,2023-09-29_00h34.53.253,fluency,2022.2.5,Win32,165.0165017,,,,,,,,,,,,,,,,,,,,,,,1,8,img/B08_01.jpg,CONTROL,Press K as soon as you see a face, ,KJ,,,,,,,,,,,,,,,,,,,,,,,,,,,,,,,,2,0.311,,,,,,,,,,,,,,0,77,77,78,1,,,,,,,,,,,,,space,0.353,,,,,,,,,,,,,,,,,,,,,,,,,,,,,,,,,,,,,,,,,,,,,,,,,,,,,,,,,,,,
,,,,517196,001,2023-09-29_00h34.53.253,fluency,2022.2.5,Win32,165.0165017,,,,,,,,,,,,,,,,,,,,,,,5,4,img/B04_05.jpg,CONTROL,Press K as soon as you see a face, ,KJ,,,,,,,,,,,,,,,,,,,,,,,,,,,,,,,,,,,,,,,,,,,,,,552.63,0,78,78,38,1,109,0,0,0,0,1,98,,,,,,,,,,,,,,,,,,,,,,,,,,,,,,,,,,,,,,,,,,,,,,,,,,,,,,,,,,,,,,,,,,,
,,,,517196,001,2023-09-29_00h34.53.253,fluency,2022.2.5,Win32,165.0165017,,,,,,,,,,,,,,,,,,,,,,,,,,,,,,,,,,,,,,,,,,,,,,,,,,,,,,,,,,,,,,,,,,,,,,,,,,,,,,,,,,0,0,0,0,1,,"[""k""]",[0.3100000000000591],0,"[""k""]",[0.3100000000000591],,,,,,,,,,,,,,,,,,,,,,,,,,,,,,,,,,,,,,,,,,,,,,,,,,,,,,,,,,,,,,
,,,,517196,001,2023-09-29_00h34.53.253,fluency,2022.2.5,Win32,165.0165017,,,,,,,,,,,,,,,,,,,,,,,5,4,img/B04_05.jpg,CONTROL,Press K as soon as you see a face, ,KJ,,,,,,,,,,,,,,,,,,,,,,,,,,,,,,,,4,0.222,,,,,,,,,,,,,,0,78,78,38,1,,,,,,,,,,,,,space,0.204,,,,,,,,,,,,,,,,,,,,,,,,,,,,,,,,,,,,,,,,,,,,,,,,,,,,,,,,,,,,
,,,,517196,001,2023-09-29_00h34.53.253,fluency,2022.2.5,Win32,165.0165017,,,,,,,,,,,,,,,,,,,,,,,3,3,img/B03_03.jpg,CONTROL,Press K as soon as you see a face, ,KJ,,,,,,,,,,,,,,,,,,,,,,,,,,,,,,,,,,,,,,,,,,,,,,558.078,0,79,79,25,1,109,0,0,0,0,1,98,,,,,,,,,,,,,,,,,,,,,,,,,,,,,,,,,,,,,,,,,,,,,,,,,,,,,,,,,,,,,,,,,,,
,,,,517196,001,2023-09-29_00h34.53.253,fluency,2022.2.5,Win32,165.0165017,,,,,,,,,,,,,,,,,,,,,,,,,,,,,,,,,,,,,,,,,,,,,,,,,,,,,,,,,,,,,,,,,,,,,,,,,,,,,,,,,,0,0,0,0,1,,"[""k""]",[0.33299999999997],0,"[""k""]",[0.33299999999997],,,,,,,,,,,,,,,,,,,,,,,,,,,,,,,,,,,,,,,,,,,,,,,,,,,,,,,,,,,,,,
,,,,517196,001,2023-09-29_00h34.53.253,fluency,2022.2.5,Win32,165.0165017,,,,,,,,,,,,,,,,,,,,,,,3,3,img/B03_03.jpg,CONTROL,Press K as soon as you see a face, ,KJ,,,,,,,,,,,,,,,,,,,,,,,,,,,,,,,,7,0.244,,,,,,,,,,,,,,0,79,79,25,1,,,,,,,,,,,,,space,0.401,,,,,,,,,,,,,,,,,,,,,,,,,,,,,,,,,,,,,,,,,,,,,,,,,,,,,,,,,,,,
,,,,517196,001,2023-09-29_00h34.53.253,fluency,2022.2.5,Win32,165.0165017,,,,,,,,,,,,,,,,,,,,,,,7,7,img/B07_07.jpg,CONTROL,Press K as soon as you see a face, ,KJ,,,,,,,,,,,,,,,,,,,,,,,,,,,,,,,,,,,,,,,,,,,,,,563.745,0,80,80,73,1,109,0,0,0,0,1,98,,,,,,,,,,,,,,,,,,,,,,,,,,,,,,,,,,,,,,,,,,,,,,,,,,,,,,,,,,,,,,,,,,,
,,,,517196,001,2023-09-29_00h34.53.253,fluency,2022.2.5,Win32,165.0165017,,,,,,,,,,,,,,,,,,,,,,,,,,,,,,,,,,,,,,,,,,,,,,,,,,,,,,,,,,,,,,,,,,,,,,,,,,,,,,,,,,0,0,0,0,1,,"[""k""]",[0.26100000000008095],0,"[""k""]",[0.26100000000008095],,,,,,,,,,,,,,,,,,,,,,,,,,,,,,,,,,,,,,,,,,,,,,,,,,,,,,,,,,,,,,
,,,,517196,001,2023-09-29_00h34.53.253,fluency,2022.2.5,Win32,165.0165017,,,,,,,,,,,,,,,,,,,,,,,7,7,img/B07_07.jpg,CONTROL,Press K as soon as you see a face, ,KJ,,,,,,,,,,,,,,,,,,,,,,,,,,,,,,,,5,0.296,,,,,,,,,,,,,,0,80,80,73,1,,,,,,,,,,,,,space,0.2,,,,,,,,,,,,,,,,,,,,,,,,,,,,,,,,,,,,,,,,,,,,,,,,,,,,,,,,,,,,
,,,,517196,001,2023-09-29_00h34.53.253,fluency,2022.2.5,Win32,165.0165017,,,,,,,,,,,,,,,,,,,,,,,2,10,img/B10_02.jpg,CONTROL,Press K as soon as you see a face, ,KJ,,,,,,,,,,,,,,,,,,,,,,,,,,,,,,,,,,,,,,,,,,,,,,568.267,0,81,81,101,1,109,0,0,0,0,1,98,,,,,,,,,,,,,,,,,,,,,,,,,,,,,,,,,,,,,,,,,,,,,,,,,,,,,,,,,,,,,,,,,,,
,,,,517196,001,2023-09-29_00h34.53.253,fluency,2022.2.5,Win32,165.0165017,,,,,,,,,,,,,,,,,,,,,,,,,,,,,,,,,,,,,,,,,,,,,,,,,,,,,,,,,,,,,,,,,,,,,,,,,,,,,,,,,,0,0,0,0,1,,"[""k""]",[0.3089999999999691],0,"[""k""]",[0.3089999999999691],,,,,,,,,,,,,,,,,,,,,,,,,,,,,,,,,,,,,,,,,,,,,,,,,,,,,,,,,,,,,,
,,,,517196,001,2023-09-29_00h34.53.253,fluency,2022.2.5,Win32,165.0165017,,,,,,,,,,,,,,,,,,,,,,,2,10,img/B10_02.jpg,CONTROL,Press K as soon as you see a face, ,KJ,,,,,,,,,,,,,,,,,,,,,,,,,,,,,,,,7,0.244,,,,,,,,,,,,,,0,81,81,101,1,,,,,,,,,,,,,space,0.328,,,,,,,,,,,,,,,,,,,,,,,,,,,,,,,,,,,,,,,,,,,,,,,,,,,,,,,,,,,,
,,,,517196,001,2023-09-29_00h34.53.253,fluency,2022.2.5,Win32,165.0165017,,,,,,,,,,,,,,,,,,,,,,,1,3,img/B03_01.jpg,CONTROL,Press K as soon as you see a face, ,KJ,,,,,,,,,,,,,,,,,,,,,,,,,,,,,,,,,,,,,,,,,,,,,,572.866,0,82,82,23,1,109,0,0,0,0,1,98,,,,,,,,,,,,,,,,,,,,,,,,,,,,,,,,,,,,,,,,,,,,,,,,,,,,,,,,,,,,,,,,,,,
,,,,517196,001,2023-09-29_00h34.53.253,fluency,2022.2.5,Win32,165.0165017,,,,,,,,,,,,,,,,,,,,,,,,,,,,,,,,,,,,,,,,,,,,,,,,,,,,,,,,,,,,,,,,,,,,,,,,,,,,,,,,,,0,0,0,0,1,,"[""k""]",[0.23699999999996635],0,"[""k""]",[0.23699999999996635],,,,,,,,,,,,,,,,,,,,,,,,,,,,,,,,,,,,,,,,,,,,,,,,,,,,,,,,,,,,,,
,,,,517196,001,2023-09-29_00h34.53.253,fluency,2022.2.5,Win32,165.0165017,,,,,,,,,,,,,,,,,,,,,,,1,3,img/B03_01.jpg,CONTROL,Press K as soon as you see a face, ,KJ,,,,,,,,,,,,,,,,,,,,,,,,,,,,,,,,6,0.342,,,,,,,,,,,,,,0,82,82,23,1,,,,,,,,,,,,,space,0.327,,,,,,,,,,,,,,,,,,,,,,,,,,,,,,,,,,,,,,,,,,,,,,,,,,,,,,,,,,,,
,,,,517196,001,2023-09-29_00h34.53.253,fluency,2022.2.5,Win32,165.0165017,,,,,,,,,,,,,,,,,,,,,,,4,7,img/B07_04.jpg,CONTROL,Press K as soon as you see a face, ,KJ,,,,,,,,,,,,,,,,,,,,,,,,,,,,,,,,,,,,,,,,,,,,,,578.563,0,83,83,70,1,109,0,0,0,0,1,98,,,,,,,,,,,,,,,,,,,,,,,,,,,,,,,,,,,,,,,,,,,,,,,,,,,,,,,,,,,,,,,,,,,
,,,,517196,001,2023-09-29_00h34.53.253,fluency,2022.2.5,Win32,165.0165017,,,,,,,,,,,,,,,,,,,,,,,,,,,,,,,,,,,,,,,,,,,,,,,,,,,,,,,,,,,,,,,,,,,,,,,,,,,,,,,,,,0,0,0,0,1,,"[""k""]",[0.2759999999999536],0,"[""k""]",[0.2759999999999536],,,,,,,,,,,,,,,,,,,,,,,,,,,,,,,,,,,,,,,,,,,,,,,,,,,,,,,,,,,,,,
,,,,517196,001,2023-09-29_00h34.53.253,fluency,2022.2.5,Win32,165.0165017,,,,,,,,,,,,,,,,,,,,,,,4,7,img/B07_04.jpg,CONTROL,Press K as soon as you see a face, ,KJ,,,,,,,,,,,,,,,,,,,,,,,,,,,,,,,,4,0.266,,,,,,,,,,,,,,0,83,83,70,1,,,,,,,,,,,,,space,0.391,,,,,,,,,,,,,,,,,,,,,,,,,,,,,,,,,,,,,,,,,,,,,,,,,,,,,,,,,,,,
,,,,517196,001,2023-09-29_00h34.53.253,fluency,2022.2.5,Win32,165.0165017,,,,,,,,,,,,,,,,,,,,,,,10,10,img/B10_10.jpg,CONTROL,Press K as soon as you see a face, ,KJ,,,,,,,,,,,,,,,,,,,,,,,,,,,,,,,,,,,,,,,,,,,,,,584.242,0,84,84,109,1,109,0,0,0,0,1,98,,,,,,,,,,,,,,,,,,,,,,,,,,,,,,,,,,,,,,,,,,,,,,,,,,,,,,,,,,,,,,,,,,,
,,,,517196,001,2023-09-29_00h34.53.253,fluency,2022.2.5,Win32,165.0165017,,,,,,,,,,,,,,,,,,,,,,,,,,,,,,,,,,,,,,,,,,,,,,,,,,,,,,,,,,,,,,,,,,,,,,,,,,,,,,,,,,0,0,0,0,1,,"[""k""]",[0.2939999999999827],0,"[""k""]",[0.2939999999999827],,,,,,,,,,,,,,,,,,,,,,,,,,,,,,,,,,,,,,,,,,,,,,,,,,,,,,,,,,,,,,
,,,,517196,001,2023-09-29_00h34.53.253,fluency,2022.2.5,Win32,165.0165017,,,,,,,,,,,,,,,,,,,,,,,10,10,img/B10_10.jpg,CONTROL,Press K as soon as you see a face, ,KJ,,,,,,,,,,,,,,,,,,,,,,,,,,,,,,,,3,0.247,,,,,,,,,,,,,,0,84,84,109,1,,,,,,,,,,,,,space,0.339,,,,,,,,,,,,,,,,,,,,,,,,,,,,,,,,,,,,,,,,,,,,,,,,,,,,,,,,,,,,
,,,,517196,001,2023-09-29_00h34.53.253,fluency,2022.2.5,Win32,165.0165017,,,,,,,,,,,,,,,,,,,,,,,7,10,img/B10_07.jpg,CONTROL,Press K as soon as you see a face, ,KJ,,,,,,,,,,,,,,,,,,,,,,,,,,,,,,,,,,,,,,,,,,,,,,589.854,0,85,85,106,1,109,0,0,0,0,1,98,,,,,,,,,,,,,,,,,,,,,,,,,,,,,,,,,,,,,,,,,,,,,,,,,,,,,,,,,,,,,,,,,,,
,,,,517196,001,2023-09-29_00h34.53.253,fluency,2022.2.5,Win32,165.0165017,,,,,,,,,,,,,,,,,,,,,,,,,,,,,,,,,,,,,,,,,,,,,,,,,,,,,,,,,,,,,,,,,,,,,,,,,,,,,,,,,,0,0,0,0,1,,"[""k""]",[0.3380000000000791],0,"[""k""]",[0.3380000000000791],,,,,,,,,,,,,,,,,,,,,,,,,,,,,,,,,,,,,,,,,,,,,,,,,,,,,,,,,,,,,,
,,,,517196,001,2023-09-29_00h34.53.253,fluency,2022.2.5,Win32,165.0165017,,,,,,,,,,,,,,,,,,,,,,,7,10,img/B10_07.jpg,CONTROL,Press K as soon as you see a face, ,KJ,,,,,,,,,,,,,,,,,,,,,,,,,,,,,,,,3,0.252,,,,,,,,,,,,,,0,85,85,106,1,,,,,,,,,,,,,space,0.285,,,,,,,,,,,,,,,,,,,,,,,,,,,,,,,,,,,,,,,,,,,,,,,,,,,,,,,,,,,,
,,,,517196,001,2023-09-29_00h34.53.253,fluency,2022.2.5,Win32,165.0165017,,,,,,,,,,,,,,,,,,,,,,,1,10,img/B10_01.jpg,CONTROL,Press K as soon as you see a face, ,KJ,,,,,,,,,,,,,,,,,,,,,,,,,,,,,,,,,,,,,,,,,,,,,,594.417,0,86,86,100,1,109,0,0,0,0,1,98,,,,,,,,,,,,,,,,,,,,,,,,,,,,,,,,,,,,,,,,,,,,,,,,,,,,,,,,,,,,,,,,,,,
,,,,517196,001,2023-09-29_00h34.53.253,fluency,2022.2.5,Win32,165.0165017,,,,,,,,,,,,,,,,,,,,,,,,,,,,,,,,,,,,,,,,,,,,,,,,,,,,,,,,,,,,,,,,,,,,,,,,,,,,,,,,,,0,0,0,0,1,,"[""k""]",[0.3670000000000755],0,"[""k""]",[0.3670000000000755],,,,,,,,,,,,,,,,,,,,,,,,,,,,,,,,,,,,,,,,,,,,,,,,,,,,,,,,,,,,,,
,,,,517196,001,2023-09-29_00h34.53.253,fluency,2022.2.5,Win32,165.0165017,,,,,,,,,,,,,,,,,,,,,,,1,10,img/B10_01.jpg,CONTROL,Press K as soon as you see a face, ,KJ,,,,,,,,,,,,,,,,,,,,,,,,,,,,,,,,6,0.244,,,,,,,,,,,,,,0,86,86,100,1,,,,,,,,,,,,,space,0.24,,,,,,,,,,,,,,,,,,,,,,,,,,,,,,,,,,,,,,,,,,,,,,,,,,,,,,,,,,,,
,,,,517196,001,2023-09-29_00h34.53.253,fluency,2022.2.5,Win32,165.0165017,,,,,,,,,,,,,,,,,,,,,,,0,3,img/B03_00.jpg,CONTROL,Press K as soon as you see a face, ,KJ,,,,,,,,,,,,,,,,,,,,,,,,,,,,,,,,,,,,,,,,,,,,,,598.914,0,87,87,22,1,109,0,0,0,0,1,98,,,,,,,,,,,,,,,,,,,,,,,,,,,,,,,,,,,,,,,,,,,,,,,,,,,,,,,,,,,,,,,,,,,
,,,,517196,001,2023-09-29_00h34.53.253,fluency,2022.2.5,Win32,165.0165017,,,,,,,,,,,,,,,,,,,,,,,,,,,,,,,,,,,,,,,,,,,,,,,,,,,,,,,,,,,,,,,,,,,,,,,,,,,,,,,,,,0,0,0,0,1,,"[""k""]",[0.32799999999997453],0,"[""k""]",[0.32799999999997453],,,,,,,,,,,,,,,,,,,,,,,,,,,,,,,,,,,,,,,,,,,,,,,,,,,,,,,,,,,,,,
,,,,517196,001,2023-09-29_00h34.53.253,fluency,2022.2.5,Win32,165.0165017,,,,,,,,,,,,,,,,,,,,,,,0,3,img/B03_00.jpg,CONTROL,Press K as soon as you see a face, ,KJ,,,,,,,,,,,,,,,,,,,,,,,,,,,,,,,,5,0.281,,,,,,,,,,,,,,0,87,87,22,1,,,,,,,,,,,,,space,0.253,,,,,,,,,,,,,,,,,,,,,,,,,,,,,,,,,,,,,,,,,,,,,,,,,,,,,,,,,,,,
,,,,517196,001,2023-09-29_00h34.53.253,fluency,2022.2.5,Win32,165.0165017,,,,,,,,,,,,,,,,,,,,,,,8,6,img/B06_08.jpg,CONTROL,Press K as soon as you see a face, ,KJ,,,,,,,,,,,,,,,,,,,,,,,,,,,,,,,,,,,,,,,,,,,,,,604.466,0,88,88,63,1,109,0,0,0,0,1,98,,,,,,,,,,,,,,,,,,,,,,,,,,,,,,,,,,,,,,,,,,,,,,,,,,,,,,,,,,,,,,,,,,,
,,,,517196,001,2023-09-29_00h34.53.253,fluency,2022.2.5,Win32,165.0165017,,,,,,,,,,,,,,,,,,,,,,,,,,,,,,,,,,,,,,,,,,,,,,,,,,,,,,,,,,,,,,,,,,,,,,,,,,,,,,,,,,0,0,0,0,1,,"[""k""]",[0.2300000000000182],0,"[""k""]",[0.2300000000000182],,,,,,,,,,,,,,,,,,,,,,,,,,,,,,,,,,,,,,,,,,,,,,,,,,,,,,,,,,,,,,
,,,,517196,001,2023-09-29_00h34.53.253,fluency,2022.2.5,Win32,165.0165017,,,,,,,,,,,,,,,,,,,,,,,8,6,img/B06_08.jpg,CONTROL,Press K as soon as you see a face, ,KJ,,,,,,,,,,,,,,,,,,,,,,,,,,,,,,,,4,0.388,,,,,,,,,,,,,,0,88,88,63,1,,,,,,,,,,,,,space,0.297,,,,,,,,,,,,,,,,,,,,,,,,,,,,,,,,,,,,,,,,,,,,,,,,,,,,,,,,,,,,
,,,,517196,001,2023-09-29_00h34.53.253,fluency,2022.2.5,Win32,165.0165017,,,,,,,,,,,,,,,,,,,,,,,0,7,img/B07_00.jpg,CONTROL,Press K as soon as you see a face, ,KJ,,,,,,,,,,,,,,,,,,,,,,,,,,,,,,,,,,,,,,,,,,,,,,609.175,0,89,89,66,1,109,0,0,0,0,1,98,,,,,,,,,,,,,,,,,,,,,,,,,,,,,,,,,,,,,,,,,,,,,,,,,,,,,,,,,,,,,,,,,,,
,,,,517196,001,2023-09-29_00h34.53.253,fluency,2022.2.5,Win32,165.0165017,,,,,,,,,,,,,,,,,,,,,,,,,,,,,,,,,,,,,,,,,,,,,,,,,,,,,,,,,,,,,,,,,,,,,,,,,,,,,,,,,,0,0,0,0,1,,"[""k""]",[0.27899999999999636],0,"[""k""]",[0.27899999999999636],,,,,,,,,,,,,,,,,,,,,,,,,,,,,,,,,,,,,,,,,,,,,,,,,,,,,,,,,,,,,,
,,,,517196,001,2023-09-29_00h34.53.253,fluency,2022.2.5,Win32,165.0165017,,,,,,,,,,,,,,,,,,,,,,,0,7,img/B07_00.jpg,CONTROL,Press K as soon as you see a face, ,KJ,,,,,,,,,,,,,,,,,,,,,,,,,,,,,,,,4,0.312,,,,,,,,,,,,,,0,89,89,66,1,,,,,,,,,,,,,space,1.215,,,,,,,,,,,,,,,,,,,,,,,,,,,,,,,,,,,,,,,,,,,,,,,,,,,,,,,,,,,,
,,,,517196,001,2023-09-29_00h34.53.253,fluency,2022.2.5,Win32,165.0165017,,,,,,,,,,,,,,,,,,,,,,,2,8,img/B08_02.jpg,CONTROL,Press K as soon as you see a face, ,KJ,,,,,,,,,,,,,,,,,,,,,,,,,,,,,,,,,,,,,,,,,,,,,,614.72,0,90,90,79,1,109,0,0,0,0,1,98,,,,,,,,,,,,,,,,,,,,,,,,,,,,,,,,,,,,,,,,,,,,,,,,,,,,,,,,,,,,,,,,,,,
,,,,517196,001,2023-09-29_00h34.53.253,fluency,2022.2.5,Win32,165.0165017,,,,,,,,,,,,,,,,,,,,,,,,,,,,,,,,,,,,,,,,,,,,,,,,,,,,,,,,,,,,,,,,,,,,,,,,,,,,,,,,,,0,0,0,0,1,,"[""k""]",[0.29900000000009186],0,"[""k""]",[0.29900000000009186],,,,,,,,,,,,,,,,,,,,,,,,,,,,,,,,,,,,,,,,,,,,,,,,,,,,,,,,,,,,,,
,,,,517196,001,2023-09-29_00h34.53.253,fluency,2022.2.5,Win32,165.0165017,,,,,,,,,,,,,,,,,,,,,,,2,8,img/B08_02.jpg,CONTROL,Press K as soon as you see a face, ,KJ,,,,,,,,,,,,,,,,,,,,,,,,,,,,,,,,4,0.237,,,,,,,,,,,,,,0,90,90,79,1,,,,,,,,,,,,,space,0.714,,,,,,,,,,,,,,,,,,,,,,,,,,,,,,,,,,,,,,,,,,,,,,,,,,,,,,,,,,,,
,,,,517196,001,2023-09-29_00h34.53.253,fluency,2022.2.5,Win32,165.0165017,,,,,,,,,,,,,,,,,,,,,,,9,5,img/B05_09.jpg,CONTROL,Press K as soon as you see a face, ,KJ,,,,,,,,,,,,,,,,,,,,,,,,,,,,,,,,,,,,,,,,,,,,,,620.69,0,91,91,53,1,109,0,0,0,0,1,98,,,,,,,,,,,,,,,,,,,,,,,,,,,,,,,,,,,,,,,,,,,,,,,,,,,,,,,,,,,,,,,,,,,
,,,,517196,001,2023-09-29_00h34.53.253,fluency,2022.2.5,Win32,165.0165017,,,,,,,,,,,,,,,,,,,,,,,,,,,,,,,,,,,,,,,,,,,,,,,,,,,,,,,,,,,,,,,,,,,,,,,,,,,,,,,,,,0,0,0,0,1,,"[""k""]",[0.20299999999997453],0,"[""k""]",[0.20299999999997453],,,,,,,,,,,,,,,,,,,,,,,,,,,,,,,,,,,,,,,,,,,,,,,,,,,,,,,,,,,,,,
,,,,517196,001,2023-09-29_00h34.53.253,fluency,2022.2.5,Win32,165.0165017,,,,,,,,,,,,,,,,,,,,,,,9,5,img/B05_09.jpg,CONTROL,Press K as soon as you see a face, ,KJ,,,,,,,,,,,,,,,,,,,,,,,,,,,,,,,,3,0.27,,,,,,,,,,,,,,0,91,91,53,1,,,,,,,,,,,,,space,0.27,,,,,,,,,,,,,,,,,,,,,,,,,,,,,,,,,,,,,,,,,,,,,,,,,,,,,,,,,,,,
,,,,517196,001,2023-09-29_00h34.53.253,fluency,2022.2.5,Win32,165.0165017,,,,,,,,,,,,,,,,,,,,,,,10,3,img/B03_10.jpg,CONTROL,Press K as soon as you see a face, ,KJ,,,,,,,,,,,,,,,,,,,,,,,,,,,,,,,,,,,,,,,,,,,,,,625.253,0,92,92,32,1,109,0,0,0,0,1,98,,,,,,,,,,,,,,,,,,,,,,,,,,,,,,,,,,,,,,,,,,,,,,,,,,,,,,,,,,,,,,,,,,,
,,,,517196,001,2023-09-29_00h34.53.253,fluency,2022.2.5,Win32,165.0165017,,,,,,,,,,,,,,,,,,,,,,,,,,,,,,,,,,,,,,,,,,,,,,,,,,,,,,,,,,,,,,,,,,,,,,,,,,,,,,,,,,0,0,0,0,1,,"[""k""]",[0.2880000000000109],0,"[""k""]",[0.2880000000000109],,,,,,,,,,,,,,,,,,,,,,,,,,,,,,,,,,,,,,,,,,,,,,,,,,,,,,,,,,,,,,
,,,,517196,001,2023-09-29_00h34.53.253,fluency,2022.2.5,Win32,165.0165017,,,,,,,,,,,,,,,,,,,,,,,10,3,img/B03_10.jpg,CONTROL,Press K as soon as you see a face, ,KJ,,,,,,,,,,,,,,,,,,,,,,,,,,,,,,,,2,0.295,,,,,,,,,,,,,,0,92,92,32,1,,,,,,,,,,,,,space,0.359,,,,,,,,,,,,,,,,,,,,,,,,,,,,,,,,,,,,,,,,,,,,,,,,,,,,,,,,,,,,
,,,,517196,001,2023-09-29_00h34.53.253,fluency,2022.2.5,Win32,165.0165017,,,,,,,,,,,,,,,,,,,,,,,7,2,img/B02_07.jpg,CONTROL,Press K as soon as you see a face, ,KJ,,,,,,,,,,,,,,,,,,,,,,,,,,,,,,,,,,,,,,,,,,,,,,630.933,0,93,93,18,1,109,0,0,0,0,1,98,,,,,,,,,,,,,,,,,,,,,,,,,,,,,,,,,,,,,,,,,,,,,,,,,,,,,,,,,,,,,,,,,,,
,,,,517196,001,2023-09-29_00h34.53.253,fluency,2022.2.5,Win32,165.0165017,,,,,,,,,,,,,,,,,,,,,,,,,,,,,,,,,,,,,,,,,,,,,,,,,,,,,,,,,,,,,,,,,,,,,,,,,,,,,,,,,,0,0,0,0,1,,"[""k""]",[0.23700000000008004],0,"[""k""]",[0.23700000000008004],,,,,,,,,,,,,,,,,,,,,,,,,,,,,,,,,,,,,,,,,,,,,,,,,,,,,,,,,,,,,,
,,,,517196,001,2023-09-29_00h34.53.253,fluency,2022.2.5,Win32,165.0165017,,,,,,,,,,,,,,,,,,,,,,,7,2,img/B02_07.jpg,CONTROL,Press K as soon as you see a face, ,KJ,,,,,,,,,,,,,,,,,,,,,,,,,,,,,,,,3,0.266,,,,,,,,,,,,,,0,93,93,18,1,,,,,,,,,,,,,space,0.286,,,,,,,,,,,,,,,,,,,,,,,,,,,,,,,,,,,,,,,,,,,,,,,,,,,,,,,,,,,,
,,,,517196,001,2023-09-29_00h34.53.253,fluency,2022.2.5,Win32,165.0165017,,,,,,,,,,,,,,,,,,,,,,,3,2,img/B02_03.jpg,CONTROL,Press K as soon as you see a face, ,KJ,,,,,,,,,,,,,,,,,,,,,,,,,,,,,,,,,,,,,,,,,,,,,,635.508,0,94,94,14,1,109,0,0,0,0,1,98,,,,,,,,,,,,,,,,,,,,,,,,,,,,,,,,,,,,,,,,,,,,,,,,,,,,,,,,,,,,,,,,,,,
,,,,517196,001,2023-09-29_00h34.53.253,fluency,2022.2.5,Win32,165.0165017,,,,,,,,,,,,,,,,,,,,,,,,,,,,,,,,,,,,,,,,,,,,,,,,,,,,,,,,,,,,,,,,,,,,,,,,,,,,,,,,,,0,0,0,0,1,,"[""k""]",[0.3160000000000309],0,"[""k""]",[0.3160000000000309],,,,,,,,,,,,,,,,,,,,,,,,,,,,,,,,,,,,,,,,,,,,,,,,,,,,,,,,,,,,,,
,,,,517196,001,2023-09-29_00h34.53.253,fluency,2022.2.5,Win32,165.0165017,,,,,,,,,,,,,,,,,,,,,,,3,2,img/B02_03.jpg,CONTROL,Press K as soon as you see a face, ,KJ,,,,,,,,,,,,,,,,,,,,,,,,,,,,,,,,3,0.254,,,,,,,,,,,,,,0,94,94,14,1,,,,,,,,,,,,,space,2.125,,,,,,,,,,,,,,,,,,,,,,,,,,,,,,,,,,,,,,,,,,,,,,,,,,,,,,,,,,,,
,,,,517196,001,2023-09-29_00h34.53.253,fluency,2022.2.5,Win32,165.0165017,,,,,,,,,,,,,,,,,,,,,,,7,4,img/B04_07.jpg,CONTROL,Press K as soon as you see a face, ,KJ,,,,,,,,,,,,,,,,,,,,,,,,,,,,,,,,,,,,,,,,,,,,,,642.908,0,95,95,40,1,109,0,0,0,0,1,98,,,,,,,,,,,,,,,,,,,,,,,,,,,,,,,,,,,,,,,,,,,,,,,,,,,,,,,,,,,,,,,,,,,
,,,,517196,001,2023-09-29_00h34.53.253,fluency,2022.2.5,Win32,165.0165017,,,,,,,,,,,,,,,,,,,,,,,,,,,,,,,,,,,,,,,,,,,,,,,,,,,,,,,,,,,,,,,,,,,,,,,,,,,,,,,,,,0,0,0,0,1,,"[""k""]",[0.29200000000003],0,"[""k""]",[0.29200000000003],,,,,,,,,,,,,,,,,,,,,,,,,,,,,,,,,,,,,,,,,,,,,,,,,,,,,,,,,,,,,,
,,,,517196,001,2023-09-29_00h34.53.253,fluency,2022.2.5,Win32,165.0165017,,,,,,,,,,,,,,,,,,,,,,,7,4,img/B04_07.jpg,CONTROL,Press K as soon as you see a face, ,KJ,,,,,,,,,,,,,,,,,,,,,,,,,,,,,,,,3,0.242,,,,,,,,,,,,,,0,95,95,40,1,,,,,,,,,,,,,space,0.258,,,,,,,,,,,,,,,,,,,,,,,,,,,,,,,,,,,,,,,,,,,,,,,,,,,,,,,,,,,,
,,,,517196,001,2023-09-29_00h34.53.253,fluency,2022.2.5,Win32,165.0165017,,,,,,,,,,,,,,,,,,,,,,,1,6,img/B06_01.jpg,CONTROL,Press K as soon as you see a face, ,KJ,,,,,,,,,,,,,,,,,,,,,,,,,,,,,,,,,,,,,,,,,,,,,,648.429,0,96,96,56,1,109,0,0,0,0,1,98,,,,,,,,,,,,,,,,,,,,,,,,,,,,,,,,,,,,,,,,,,,,,,,,,,,,,,,,,,,,,,,,,,,
,,,,517196,001,2023-09-29_00h34.53.253,fluency,2022.2.5,Win32,165.0165017,,,,,,,,,,,,,,,,,,,,,,,,,,,,,,,,,,,,,,,,,,,,,,,,,,,,,,,,,,,,,,,,,,,,,,,,,,,,,,,,,,0,0,0,0,1,,"[""k""]",[0.2779999999999063],0,"[""k""]",[0.2779999999999063],,,,,,,,,,,,,,,,,,,,,,,,,,,,,,,,,,,,,,,,,,,,,,,,,,,,,,,,,,,,,,
,,,,517196,001,2023-09-29_00h34.53.253,fluency,2022.2.5,Win32,165.0165017,,,,,,,,,,,,,,,,,,,,,,,1,6,img/B06_01.jpg,CONTROL,Press K as soon as you see a face, ,KJ,,,,,,,,,,,,,,,,,,,,,,,,,,,,,,,,4,0.301,,,,,,,,,,,,,,0,96,96,56,1,,,,,,,,,,,,,space,0.315,,,,,,,,,,,,,,,,,,,,,,,,,,,,,,,,,,,,,,,,,,,,,,,,,,,,,,,,,,,,
,,,,517196,001,2023-09-29_00h34.53.253,fluency,2022.2.5,Win32,165.0165017,,,,,,,,,,,,,,,,,,,,,,,2,3,img/B03_02.jpg,CONTROL,Press K as soon as you see a face, ,KJ,,,,,,,,,,,,,,,,,,,,,,,,,,,,,,,,,,,,,,,,,,,,,,654.071,0,97,97,24,1,109,0,0,0,0,1,98,,,,,,,,,,,,,,,,,,,,,,,,,,,,,,,,,,,,,,,,,,,,,,,,,,,,,,,,,,,,,,,,,,,
,,,,517196,001,2023-09-29_00h34.53.253,fluency,2022.2.5,Win32,165.0165017,,,,,,,,,,,,,,,,,,,,,,,,,,,,,,,,,,,,,,,,,,,,,,,,,,,,,,,,,,,,,,,,,,,,,,,,,,,,,,,,,,0,0,0,0,1,,"[""k""]",[0.21900000000005093],0,"[""k""]",[0.21900000000005093],,,,,,,,,,,,,,,,,,,,,,,,,,,,,,,,,,,,,,,,,,,,,,,,,,,,,,,,,,,,,,
,,,,517196,001,2023-09-29_00h34.53.253,fluency,2022.2.5,Win32,165.0165017,,,,,,,,,,,,,,,,,,,,,,,2,3,img/B03_02.jpg,CONTROL,Press K as soon as you see a face, ,KJ,,,,,,,,,,,,,,,,,,,,,,,,,,,,,,,,6,0.243,,,,,,,,,,,,,,0,97,97,24,1,,,,,,,,,,,,,space,0.351,,,,,,,,,,,,,,,,,,,,,,,,,,,,,,,,,,,,,,,,,,,,,,,,,,,,,,,,,,,,
,,,,517196,001,2023-09-29_00h34.53.253,fluency,2022.2.5,Win32,165.0165017,,,,,,,,,,,,,,,,,,,,,,,2,6,img/B06_02.jpg,CONTROL,Press K as soon as you see a face, ,KJ,,,,,,,,,,,,,,,,,,,,,,,,,,,,,,,,,,,,,,,,,,,,,,659.69,0,98,98,57,1,109,0,0,0,0,1,98,,,,,,,,,,,,,,,,,,,,,,,,,,,,,,,,,,,,,,,,,,,,,,,,,,,,,,,,,,,,,,,,,,,
,,,,517196,001,2023-09-29_00h34.53.253,fluency,2022.2.5,Win32,165.0165017,,,,,,,,,,,,,,,,,,,,,,,,,,,,,,,,,,,,,,,,,,,,,,,,,,,,,,,,,,,,,,,,,,,,,,,,,,,,,,,,,,0,0,0,0,1,,"[""k""]",[0.30600000000004],0,"[""k""]",[0.30600000000004],,,,,,,,,,,,,,,,,,,,,,,,,,,,,,,,,,,,,,,,,,,,,,,,,,,,,,,,,,,,,,
,,,,517196,001,2023-09-29_00h34.53.253,fluency,2022.2.5,Win32,165.0165017,,,,,,,,,,,,,,,,,,,,,,,2,6,img/B06_02.jpg,CONTROL,Press K as soon as you see a face, ,KJ,,,,,,,,,,,,,,,,,,,,,,,,,,,,,,,,5,0.26,,,,,,,,,,,,,,0,98,98,57,1,,,,,,,,,,,,,space,0.468,,,,,,,,,,,,,,,,,,,,,,,,,,,,,,,,,,,,,,,,,,,,,,,,,,,,,,,,,,,,
,,,,517196,001,2023-09-29_00h34.53.253,fluency,2022.2.5,Win32,165.0165017,,,,,,,,,,,,,,,,,,,,,,,5,8,img/B08_05.jpg,CONTROL,Press K as soon as you see a face, ,KJ,,,,,,,,,,,,,,,,,,,,,,,,,,,,,,,,,,,,,,,,,,,,,,664.441,0,99,99,82,1,109,0,0,0,0,1,98,,,,,,,,,,,,,,,,,,,,,,,,,,,,,,,,,,,,,,,,,,,,,,,,,,,,,,,,,,,,,,,,,,,
,,,,517196,001,2023-09-29_00h34.53.253,fluency,2022.2.5,Win32,165.0165017,,,,,,,,,,,,,,,,,,,,,,,,,,,,,,,,,,,,,,,,,,,,,,,,,,,,,,,,,,,,,,,,,,,,,,,,,,,,,,,,,,0,0,0,0,1,,"[""k""]",[0.38400000000001455],0,"[""k""]",[0.38400000000001455],,,,,,,,,,,,,,,,,,,,,,,,,,,,,,,,,,,,,,,,,,,,,,,,,,,,,,,,,,,,,,
,,,,517196,001,2023-09-29_00h34.53.253,fluency,2022.2.5,Win32,165.0165017,,,,,,,,,,,,,,,,,,,,,,,5,8,img/B08_05.jpg,CONTROL,Press K as soon as you see a face, ,KJ,,,,,,,,,,,,,,,,,,,,,,,,,,,,,,,,3,0.246,,,,,,,,,,,,,,0,99,99,82,1,,,,,,,,,,,,,space,0.282,,,,,,,,,,,,,,,,,,,,,,,,,,,,,,,,,,,,,,,,,,,,,,,,,,,,,,,,,,,,
,,,,517196,001,2023-09-29_00h34.53.253,fluency,2022.2.5,Win32,165.0165017,,,,,,,,,,,,,,,,,,,,,,,4,3,img/B03_04.jpg,CONTROL,Press K as soon as you see a face, ,KJ,,,,,,,,,,,,,,,,,,,,,,,,,,,,,,,,,,,,,,,,,,,,,,668.993,0,100,100,26,1,109,0,0,0,0,1,98,,,,,,,,,,,,,,,,,,,,,,,,,,,,,,,,,,,,,,,,,,,,,,,,,,,,,,,,,,,,,,,,,,,
,,,,517196,001,2023-09-29_00h34.53.253,fluency,2022.2.5,Win32,165.0165017,,,,,,,,,,,,,,,,,,,,,,,,,,,,,,,,,,,,,,,,,,,,,,,,,,,,,,,,,,,,,,,,,,,,,,,,,,,,,,,,,,0,0,0,0,1,,"[""k""]",[0.3350000000000364],0,"[""k""]",[0.3350000000000364],,,,,,,,,,,,,,,,,,,,,,,,,,,,,,,,,,,,,,,,,,,,,,,,,,,,,,,,,,,,,,
,,,,517196,001,2023-09-29_00h34.53.253,fluency,2022.2.5,Win32,165.0165017,,,,,,,,,,,,,,,,,,,,,,,4,3,img/B03_04.jpg,CONTROL,Press K as soon as you see a face, ,KJ,,,,,,,,,,,,,,,,,,,,,,,,,,,,,,,,5,0.918,,,,,,,,,,,,,,0,100,100,26,1,,,,,,,,,,,,,space,0.646,,,,,,,,,,,,,,,,,,,,,,,,,,,,,,,,,,,,,,,,,,,,,,,,,,,,,,,,,,,,
,,,,517196,001,2023-09-29_00h34.53.253,fluency,2022.2.5,Win32,165.0165017,,,,,,,,,,,,,,,,,,,,,,,9,1,img/B01_09.jpg,CONTROL,Press K as soon as you see a face, ,KJ,,,,,,,,,,,,,,,,,,,,,,,,,,,,,,,,,,,,,,,,,,,,,,675.581,0,101,101,9,1,109,0,0,0,0,1,98,,,,,,,,,,,,,,,,,,,,,,,,,,,,,,,,,,,,,,,,,,,,,,,,,,,,,,,,,,,,,,,,,,,
,,,,517196,001,2023-09-29_00h34.53.253,fluency,2022.2.5,Win32,165.0165017,,,,,,,,,,,,,,,,,,,,,,,,,,,,,,,,,,,,,,,,,,,,,,,,,,,,,,,,,,,,,,,,,,,,,,,,,,,,,,,,,,0,0,0,0,1,,"[""k""]",[0.3350000000000364],0,"[""k""]",[0.3350000000000364],,,,,,,,,,,,,,,,,,,,,,,,,,,,,,,,,,,,,,,,,,,,,,,,,,,,,,,,,,,,,,
,,,,517196,001,2023-09-29_00h34.53.253,fluency,2022.2.5,Win32,165.0165017,,,,,,,,,,,,,,,,,,,,,,,9,1,img/B01_09.jpg,CONTROL,Press K as soon as you see a face, ,KJ,,,,,,,,,,,,,,,,,,,,,,,,,,,,,,,,3,0.239,,,,,,,,,,,,,,0,101,101,9,1,,,,,,,,,,,,,space,0.253,,,,,,,,,,,,,,,,,,,,,,,,,,,,,,,,,,,,,,,,,,,,,,,,,,,,,,,,,,,,
,,,,517196,001,2023-09-29_00h34.53.253,fluency,2022.2.5,Win32,165.0165017,,,,,,,,,,,,,,,,,,,,,,,8,3,img/B03_08.jpg,CONTROL,Press K as soon as you see a face, ,KJ,,,,,,,,,,,,,,,,,,,,,,,,,,,,,,,,,,,,,,,,,,,,,,680.095,0,102,102,30,1,109,0,0,0,0,1,98,,,,,,,,,,,,,,,,,,,,,,,,,,,,,,,,,,,,,,,,,,,,,,,,,,,,,,,,,,,,,,,,,,,
