idTextbox.text,welcomeDone.numClicks,welcomeDone.timesOn,welcomeDone.timesOff,participant,session,date,expName,psychopyVersion,OS,frameRate,consent_advance.keys,consent_advance.rt,consent_advance_2.keys,consent_advance_2.rt,consentClick.x,consentClick.y,consentClick.leftButton,consentClick.midButton,consentClick.rightButton,consentClick.time,consentClick.clicked_name,instr_advance_3.keys,instr_advance_3.rt,spec_instr_adv.keys,spec_instr_adv.rt,spec_instr_adv2.keys,spec_instr_adv2.rt,instrLoop.thisRepN,instrLoop.thisTrialN,instrLoop.thisN,instrLoop.thisIndex,instrLoop.ran,steps,fams,face_file,cond,instr,term,key_map,attnKeyResp1.keys,attnKeyResp1.rt,q1.thisRepN,q1.thisTrialN,q1.thisN,q1.thisIndex,q1.ran,attnKeyResp2.keys,attnKeyResp2.rt,q2.thisRepN,q2.thisTrialN,q2.thisN,q2.thisIndex,q2.ran,attnKeyResp3.keys,attnKeyResp3.rt,q3.thisRepN,q3.thisTrialN,q3.thisN,q3.thisIndex,q3.ran,practiceStart.keys,practiceStart.rt,practiceResp.keys,practiceResp.rt,timesRedone,practiceRepeat.thisRepN,practiceRepeat.thisTrialN,practiceRepeat.thisN,practiceRepeat.thisIndex,practiceRepeat.ran,attrRating.keys,attrRating.rt,practiceTrial.thisRepN,practiceTrial.thisTrialN,practiceTrial.thisN,practiceTrial.thisIndex,practiceTrial.ran,key_resp_3.keys,key_resp_3.rt,attnChecker.thisRepN,attnChecker.thisTrialN,attnChecker.thisN,attnChecker.thisIndex,attnChecker.ran,faceOnsetTime,trials.thisRepN,trials.thisTrialN,trials.thisN,trials.thisIndex,trials.ran,trials.order,repeat_loop.thisRepN,repeat_loop.thisTrialN,repeat_loop.thisN,repeat_loop.thisIndex,repeat_loop.ran,repeat_loop.order,catResp.keys,catResp.rt,globalTimesRedone,catAllKeys.keys,catAllKeys.rt,contResp.keys,contResp.rt,redo_keypress.keys,redo_keypress.rt,redo_feedback_loop.thisRepN,redo_feedback_loop.thisTrialN,redo_feedback_loop.thisN,redo_feedback_loop.thisIndex,redo_feedback_loop.ran,contResp_2.keys,contResp_2.rt,respQ1.response,respQ1.rt,respQ2.response,respQ2.rt,respQ3.response,respQ3.rt,respQ4.response,respQ4.rt,surveyContinue1.numClicks,surveyContinue1.timesOn,surveyContinue1.timesOff,respQ5.response,respQ5.rt,respQ6.response,respQ6.rt,respQ7.response,respQ7.rt,respQ8.response,respQ8.rt,surveyContinue2.numClicks,surveyContinue2.timesOn,surveyContinue2.timesOff,respQ9.response,respQ9.rt,respQ10.response,respQ10.rt,respQ11.response,respQ11.rt,respQ12.response,respQ12.rt,surveyContinue3.numClicks,surveyContinue3.timesOn,surveyContinue3.timesOff,respQ13.response,respQ13.rt,respQ14.response,respQ14.rt,respQ15.response,respQ15.rt,surveyContinue4.numClicks,surveyContinue4.timesOn,surveyContinue4.timesOff,respAge.response,respAge.rt,genderResp1.response,genderResp1.rt,genderResp2.text,demogexitClick.numClicks,demogexitClick.timesOn,demogexitClick.timesOff,textbox.text,openAnswerClick.numClicks,openAnswerClick.timesOn,openAnswerClick.timesOff,debriefEnd.keys,debriefEnd.rt,exitKey.keys,exitKey.rt
5df42ba7b199e4308719f2b2,1,[9.733399999976157],[9.733399999976157],616430,001,2024-02-08_10h04.09.711,fluency,2022.2.4,Win32,60.24096386,,,,,,,,,,,,,,,,,,,,,,,,,,,,,,,,,,,,,,,,,,,,,,,,,,,,,,,,,,,,,,,,,,,,,,,,,,,,,,,,,,,,,,,,,,,,,,,,,,,,,,,,,,,,,,,,,,,,,,,,,,,,,,,,,,,,,,,,,,,,,,,,,,,,,,,,,,,,,,,,,
,,,,616430,001,2024-02-08_10h04.09.711,fluency,2022.2.4,Win32,60.24096386,space,44.2085,,,,,,,,,,,,,,,,,,,,,,,,,,,,,,,,,,,,,,,,,,,,,,,,,,,,,,,,,,,,,,,,,,,,,,,,,,,,,,,,,,,,,,,,,,,,,,,,,,,,,,,,,,,,,,,,,,,,,,,,,,,,,,,,,,,,,,,,,,,,,,,,,,,,,,,,,,,,,,,
,,,,616430,001,2024-02-08_10h04.09.711,fluency,2022.2.4,Win32,60.24096386,,,space,50.4743,,,,,,,,,,,,,,,,,,,,,,,,,,,,,,,,,,,,,,,,,,,,,,,,,,,,,,,,,,,,,,,,,,,,,,,,,,,,,,,,,,,,,,,,,,,,,,,,,,,,,,,,,,,,,,,,,,,,,,,,,,,,,,,,,,,,,,,,,,,,,,,,,,,,,,,,,,,,,
,,,,616430,001,2024-02-08_10h04.09.711,fluency,2022.2.4,Win32,60.24096386,,,,,0.283333333,-0.333333333,1,0,0,24.9407,iAgree,,,,,,,,,,,,,,,,,,,,,,,,,,,,,,,,,,,,,,,,,,,,,,,,,,,,,,,,,,,,,,,,,,,,,,,,,,,,,,,,,,,,,,,,,,,,,,,,,,,,,,,,,,,,,,,,,,,,,,,,,,,,,,,,,,,,,,,,,,,,,,,,,,,,,,
,,,,616430,001,2024-02-08_10h04.09.711,fluency,2022.2.4,Win32,60.24096386,,,,,,,,,,,,space,13.9008,,,,,,,,,,,,,,,,,,,,,,,,,,,,,,,,,,,,,,,,,,,,,,,,,,,,,,,,,,,,,,,,,,,,,,,,,,,,,,,,,,,,,,,,,,,,,,,,,,,,,,,,,,,,,,,,,,,,,,,,,,,,,,,,,,,,,,,,,,,,,,,,,,,,
,,,,616430,001,2024-02-08_10h04.09.711,fluency,2022.2.4,Win32,60.24096386,,,,,,,,,,,,,,space,67.0334,space,13.2412,0,0,0,46,1,2,5,img/B05_02.jpg,MF,Press J if the face is MALE and K if the face is FEMALE, ,JK,,,,,,,,,,,,,,,,,,,,,,,,,,,,,,,,,,,,,,,,,,,,,,,,,,,,,,,,,,,,,,,,,,,,,,,,,,,,,,,,,,,,,,,,,,,,,,,,,,,,,,,,,,,,,,,,,,,,,,,,,,,,,,,,,,,,
,,,,616430,001,2024-02-08_10h04.09.711,fluency,2022.2.4,Win32,60.24096386,,,,,,,,,,,,,,,,,,,,,,,,,,,,,,c,5.2496,0,0,0,0,1,,,,,,,,,,,,,,,,,,,,,,,,,,,,,,,,,,,,,,,,,,,,,,,,,,,,,,,,,,,,,,,,,,,,,,,,,,,,,,,,,,,,,,,,,,,,,,,,,,,,,,,,,,,,,,,,,,,,,,,,,,,,,
,,,,616430,001,2024-02-08_10h04.09.711,fluency,2022.2.4,Win32,60.24096386,,,,,,,,,,,,,,,,,,,,,,,,,,,,,,,,,,,,,a,6.2138,0,0,0,0,1,,,,,,,,,,,,,,,,,,,,,,,,,,,,,,,,,,,,,,,,,,,,,,,,,,,,,,,,,,,,,,,,,,,,,,,,,,,,,,,,,,,,,,,,,,,,,,,,,,,,,,,,,,,,,,,,,,,,,,
,,,,616430,001,2024-02-08_10h04.09.711,fluency,2022.2.4,Win32,60.24096386,,,,,,,,,,,,,,,,,,,,,,,,,,,,,,,,,,,,,,,,,,,,c,6.9225,0,0,0,0,1,,,,,,,,,,,,,,,,,,,,,,,,,,,,,,,,,,,,,,,,,,,,,,,,,,,,,,,,,,,,,,,,,,,,,,,,,,,,,,,,,,,,,,,,,,,,,,,,,,,,,,,,,,,,,,,
,,,,616430,001,2024-02-08_10h04.09.711,fluency,2022.2.4,Win32,60.24096386,,,,,,,,,,,,,,,,,,,,,,,,,,,,,,,,,,,,,,,,,,,,,,,,,,,space,1.0226,j,1.3088,0,0,0,0,0,1,,,,,,,,,,,,,,,,,,,,,,,,,,,,,,,,,,,,,,,,,,,,,,,,,,,,,,,,,,,,,,,,,,,,,,,,,,,,,,,,,,,,,,,,,,,,,,,,,,,,,
,,,,616430,001,2024-02-08_10h04.09.711,fluency,2022.2.4,Win32,60.24096386,,,,,,,,,,,,,,,,,,,,,,,,,,,,,,,,,,,,,,,,,,,,,,,,,,,,,,,,,,,,,7,3.5841,0,0,0,0,1,,,,,,,,,,,,,,,,,,,,,,,,,,,,,,,,,,,,,,,,,,,,,,,,,,,,,,,,,,,,,,,,,,,,,,,,,,,,,,,,,,,,,,,,,,,,,,
,,,,616430,001,2024-02-08_10h04.09.711,fluency,2022.2.4,Win32,60.24096386,,,,,,,,,,,,,,,,,,,,,,,,,,,,,,,,,,,,,,,,,,,,,,,,,,,,,,,,,,,,,,,,,,,,space,5.0905,0,0,0,0,1,,,,,,,,,,,,,,,,,,,,,,,,,,,,,,,,,,,,,,,,,,,,,,,,,,,,,,,,,,,,,,,,,,,,,,,,,,,,,,,,,,,,,,,
,,,,616430,001,2024-02-08_10h04.09.711,fluency,2022.2.4,Win32,60.24096386,,,,,,,,,,,,,,,,,,,,,,,3,2,img/B02_03.jpg,MF,Press J if the face is MALE and K if the face is FEMALE, ,JK,,,,,,,,,,,,,,,,,,,,,,,,,,,,,,,,,,,,,,,,,,,,,,276.1825,0,0,0,14,1,109,0,0,0,0,1,98,,,,,,,,,,,,,,,,,,,,,,,,,,,,,,,,,,,,,,,,,,,,,,,,,,,,,,,,,,,,,,,,,,,,,,,,,,
,,,,616430,001,2024-02-08_10h04.09.711,fluency,2022.2.4,Win32,60.24096386,,,,,,,,,,,,,,,,,,,,,,,,,,,,,,,,,,,,,,,,,,,,,,,,,,,,,,,,,,,,,,,,,,,,,,,,,,,,,,,,,,0,0,0,0,1,,"[""j""]",[1.4189999999999827],0,"[""j""]",[1.4188999999761336],,,,,,,,,,,,,,,,,,,,,,,,,,,,,,,,,,,,,,,,,,,,,,,,,,,,,,,,,,,,,,,,,,,,,
,,,,616430,001,2024-02-08_10h04.09.711,fluency,2022.2.4,Win32,60.24096386,,,,,,,,,,,,,,,,,,,,,,,3,2,img/B02_03.jpg,MF,Press J if the face is MALE and K if the face is FEMALE, ,JK,,,,,,,,,,,,,,,,,,,,,,,,,,,,,,,,6,4.4571,,,,,,,,,,,,,,0,0,0,14,1,,,,,,,,,,,,,space,5.9961,,,,,,,,,,,,,,,,,,,,,,,,,,,,,,,,,,,,,,,,,,,,,,,,,,,,,,,,,,,,,,,,,,,
,,,,616430,001,2024-02-08_10h04.09.711,fluency,2022.2.4,Win32,60.24096386,,,,,,,,,,,,,,,,,,,,,,,8,1,img/B01_08.jpg,MF,Press J if the face is MALE and K if the face is FEMALE, ,JK,,,,,,,,,,,,,,,,,,,,,,,,,,,,,,,,,,,,,,,,,,,,,,290.7143,0,1,1,8,1,109,0,0,0,0,1,98,,,,,,,,,,,,,,,,,,,,,,,,,,,,,,,,,,,,,,,,,,,,,,,,,,,,,,,,,,,,,,,,,,,,,,,,,,
,,,,616430,001,2024-02-08_10h04.09.711,fluency,2022.2.4,Win32,60.24096386,,,,,,,,,,,,,,,,,,,,,,,,,,,,,,,,,,,,,,,,,,,,,,,,,,,,,,,,,,,,,,,,,,,,,,,,,,,,,,,,,,0,0,0,0,1,,"[""k""]",[1.4494000000059373],0,"[""k""]",[1.4494000000059373],,,,,,,,,,,,,,,,,,,,,,,,,,,,,,,,,,,,,,,,,,,,,,,,,,,,,,,,,,,,,,,,,,,,,
,,,,616430,001,2024-02-08_10h04.09.711,fluency,2022.2.4,Win32,60.24096386,,,,,,,,,,,,,,,,,,,,,,,8,1,img/B01_08.jpg,MF,Press J if the face is MALE and K if the face is FEMALE, ,JK,,,,,,,,,,,,,,,,,,,,,,,,,,,,,,,,6,2.01,,,,,,,,,,,,,,0,1,1,8,1,,,,,,,,,,,,,space,4.0539,,,,,,,,,,,,,,,,,,,,,,,,,,,,,,,,,,,,,,,,,,,,,,,,,,,,,,,,,,,,,,,,,,,
,,,,616430,001,2024-02-08_10h04.09.711,fluency,2022.2.4,Win32,60.24096386,,,,,,,,,,,,,,,,,,,,,,,5,3,img/B03_05.jpg,MF,Press J if the face is MALE and K if the face is FEMALE, ,JK,,,,,,,,,,,,,,,,,,,,,,,,,,,,,,,,,,,,,,,,,,,,,,300.8473,0,2,2,27,1,109,0,0,0,0,1,98,,,,,,,,,,,,,,,,,,,,,,,,,,,,,,,,,,,,,,,,,,,,,,,,,,,,,,,,,,,,,,,,,,,,,,,,,,
,,,,616430,001,2024-02-08_10h04.09.711,fluency,2022.2.4,Win32,60.24096386,,,,,,,,,,,,,,,,,,,,,,,,,,,,,,,,,,,,,,,,,,,,,,,,,,,,,,,,,,,,,,,,,,,,,,,,,,,,,,,,,,,,,,,,,,1,,,,,space,4.9014,0,0,0,0,1,,,,,,,,,,,,,,,,,,,,,,,,,,,,,,,,,,,,,,,,,,,,,,,,,,,,,,,,,,,,
,,,,616430,001,2024-02-08_10h04.09.711,fluency,2022.2.4,Win32,60.24096386,,,,,,,,,,,,,,,,,,,,,,,,,,,,,,,,,,,,,,,,,,,,,,,,,,,,,,,,,,,,,,,,,,,,,,,,,,,,,,,,,,0,0,0,0,1,,,,,,,,,,,,,,,,,,,,,,,,,,,,,,,,,,,,,,,,,,,,,,,,,,,,,,,,,,,,,,,,,,,,,,,,,,,
,,,,616430,001,2024-02-08_10h04.09.711,fluency,2022.2.4,Win32,60.24096386,,,,,,,,,,,,,,,,,,,,,,,5,3,img/B03_05.jpg,MF,Press J if the face is MALE and K if the face is FEMALE, ,JK,,,,,,,,,,,,,,,,,,,,,,,,,,,,,,,,,,,,,,,,,,,,,,309.7984,0,2,2,27,1,109,1,0,1,0,1,98,,,,,,,,,,,,,,,,,,,,,,,,,,,,,,,,,,,,,,,,,,,,,,,,,,,,,,,,,,,,,,,,,,,,,,,,,,
,,,,616430,001,2024-02-08_10h04.09.711,fluency,2022.2.4,Win32,60.24096386,,,,,,,,,,,,,,,,,,,,,,,,,,,,,,,,,,,,,,,,,,,,,,,,,,,,,,,,,,,,,,,,,,,,,,,,,,,,,,,,,,1,0,1,0,1,,"[""j""]",[1.0911999999880777],1,"[""j""]",[1.0910999999940714],,,,,,,,,,,,,,,,,,,,,,,,,,,,,,,,,,,,,,,,,,,,,,,,,,,,,,,,,,,,,,,,,,,,,
,,,,616430,001,2024-02-08_10h04.09.711,fluency,2022.2.4,Win32,60.24096386,,,,,,,,,,,,,,,,,,,,,,,5,3,img/B03_05.jpg,MF,Press J if the face is MALE and K if the face is FEMALE, ,JK,,,,,,,,,,,,,,,,,,,,,,,,,,,,,,,,6,2.5484,,,,,,,,,,,,,,0,2,2,27,1,,,,,,,,,,,,,space,2.8793,,,,,,,,,,,,,,,,,,,,,,,,,,,,,,,,,,,,,,,,,,,,,,,,,,,,,,,,,,,,,,,,,,,
,,,,616430,001,2024-02-08_10h04.09.711,fluency,2022.2.4,Win32,60.24096386,,,,,,,,,,,,,,,,,,,,,,,7,1,img/B01_07.jpg,MF,Press J if the face is MALE and K if the face is FEMALE, ,JK,,,,,,,,,,,,,,,,,,,,,,,,,,,,,,,,,,,,,,,,,,,,,,320.3126,0,3,3,7,1,109,0,0,0,0,1,98,,,,,,,,,,,,,,,,,,,,,,,,,,,,,,,,,,,,,,,,,,,,,,,,,,,,,,,,,,,,,,,,,,,,,,,,,,
,,,,616430,001,2024-02-08_10h04.09.711,fluency,2022.2.4,Win32,60.24096386,,,,,,,,,,,,,,,,,,,,,,,,,,,,,,,,,,,,,,,,,,,,,,,,,,,,,,,,,,,,,,,,,,,,,,,,,,,,,,,,,,0,0,0,0,1,,"[""k""]",[1.0620000000000118],1,"[""k""]",[1.0620000000000118],,,,,,,,,,,,,,,,,,,,,,,,,,,,,,,,,,,,,,,,,,,,,,,,,,,,,,,,,,,,,,,,,,,,,
,,,,616430,001,2024-02-08_10h04.09.711,fluency,2022.2.4,Win32,60.24096386,,,,,,,,,,,,,,,,,,,,,,,7,1,img/B01_07.jpg,MF,Press J if the face is MALE and K if the face is FEMALE, ,JK,,,,,,,,,,,,,,,,,,,,,,,,,,,,,,,,7,3.0968,,,,,,,,,,,,,,0,3,3,7,1,,,,,,,,,,,,,space,1.563,,,,,,,,,,,,,,,,,,,,,,,,,,,,,,,,,,,,,,,,,,,,,,,,,,,,,,,,,,,,,,,,,,,
,,,,616430,001,2024-02-08_10h04.09.711,fluency,2022.2.4,Win32,60.24096386,,,,,,,,,,,,,,,,,,,,,,,10,4,img/B04_10.jpg,MF,Press J if the face is MALE and K if the face is FEMALE, ,JK,,,,,,,,,,,,,,,,,,,,,,,,,,,,,,,,,,,,,,,,,,,,,,329.0782,0,4,4,43,1,109,0,0,0,0,1,98,,,,,,,,,,,,,,,,,,,,,,,,,,,,,,,,,,,,,,,,,,,,,,,,,,,,,,,,,,,,,,,,,,,,,,,,,,
,,,,616430,001,2024-02-08_10h04.09.711,fluency,2022.2.4,Win32,60.24096386,,,,,,,,,,,,,,,,,,,,,,,,,,,,,,,,,,,,,,,,,,,,,,,,,,,,,,,,,,,,,,,,,,,,,,,,,,,,,,,,,,0,0,0,0,1,,"[""k""]",[1.2222000000178923],1,"[""k""]",[1.2222000000178923],,,,,,,,,,,,,,,,,,,,,,,,,,,,,,,,,,,,,,,,,,,,,,,,,,,,,,,,,,,,,,,,,,,,,
,,,,616430,001,2024-02-08_10h04.09.711,fluency,2022.2.4,Win32,60.24096386,,,,,,,,,,,,,,,,,,,,,,,10,4,img/B04_10.jpg,MF,Press J if the face is MALE and K if the face is FEMALE, ,JK,,,,,,,,,,,,,,,,,,,,,,,,,,,,,,,,5,2.1102,,,,,,,,,,,,,,0,4,4,43,1,,,,,,,,,,,,,space,1.102,,,,,,,,,,,,,,,,,,,,,,,,,,,,,,,,,,,,,,,,,,,,,,,,,,,,,,,,,,,,,,,,,,,
,,,,616430,001,2024-02-08_10h04.09.711,fluency,2022.2.4,Win32,60.24096386,,,,,,,,,,,,,,,,,,,,,,,5,1,img/B01_05.jpg,MF,Press J if the face is MALE and K if the face is FEMALE, ,JK,,,,,,,,,,,,,,,,,,,,,,,,,,,,,,,,,,,,,,,,,,,,,,337.3623,0,5,5,5,1,109,0,0,0,0,1,98,,,,,,,,,,,,,,,,,,,,,,,,,,,,,,,,,,,,,,,,,,,,,,,,,,,,,,,,,,,,,,,,,,,,,,,,,,
,,,,616430,001,2024-02-08_10h04.09.711,fluency,2022.2.4,Win32,60.24096386,,,,,,,,,,,,,,,,,,,,,,,,,,,,,,,,,,,,,,,,,,,,,,,,,,,,,,,,,,,,,,,,,,,,,,,,,,,,,,,,,,0,0,0,0,1,,,,1,,,,,,,,,,,,,,,,,,,,,,,,,,,,,,,,,,,,,,,,,,,,,,,,,,,,,,,,,,,,,,,,,,,,,,,
,,,,616430,001,2024-02-08_10h04.09.711,fluency,2022.2.4,Win32,60.24096386,,,,,,,,,,,,,,,,,,,,,,,5,1,img/B01_05.jpg,MF,Press J if the face is MALE and K if the face is FEMALE, ,JK,,,,,,,,,,,,,,,,,,,,,,,,,,,,,,,,6,3.2599,,,,,,,,,,,,,,0,5,5,5,1,,,,,,,,,,,,,space,0.9396,,,,,,,,,,,,,,,,,,,,,,,,,,,,,,,,,,,,,,,,,,,,,,,,,,,,,,,,,,,,,,,,,,,
,,,,616430,001,2024-02-08_10h04.09.711,fluency,2022.2.4,Win32,60.24096386,,,,,,,,,,,,,,,,,,,,,,,7,5,img/B05_07.jpg,MF,Press J if the face is MALE and K if the face is FEMALE, ,JK,,,,,,,,,,,,,,,,,,,,,,,,,,,,,,,,,,,,,,,,,,,,,,346.6275,0,6,6,51,1,109,0,0,0,0,1,98,,,,,,,,,,,,,,,,,,,,,,,,,,,,,,,,,,,,,,,,,,,,,,,,,,,,,,,,,,,,,,,,,,,,,,,,,,
,,,,616430,001,2024-02-08_10h04.09.711,fluency,2022.2.4,Win32,60.24096386,,,,,,,,,,,,,,,,,,,,,,,,,,,,,,,,,,,,,,,,,,,,,,,,,,,,,,,,,,,,,,,,,,,,,,,,,,,,,,,,,,0,0,0,0,1,,"[""k""]",[1.240400000005934],1,"[""j"",""k""]","[-6.3040000000000305,1.2404999999999973]",,,,,,,,,,,,,,,,,,,,,,,,,,,,,,,,,,,,,,,,,,,,,,,,,,,,,,,,,,,,,,,,,,,,,
,,,,616430,001,2024-02-08_10h04.09.711,fluency,2022.2.4,Win32,60.24096386,,,,,,,,,,,,,,,,,,,,,,,7,5,img/B05_07.jpg,MF,Press J if the face is MALE and K if the face is FEMALE, ,JK,,,,,,,,,,,,,,,,,,,,,,,,,,,,,,,,4,2.362,,,,,,,,,,,,,,0,6,6,51,1,,,,,,,,,,,,,space,0.7891,,,,,,,,,,,,,,,,,,,,,,,,,,,,,,,,,,,,,,,,,,,,,,,,,,,,,,,,,,,,,,,,,,,
,,,,616430,001,2024-02-08_10h04.09.711,fluency,2022.2.4,Win32,60.24096386,,,,,,,,,,,,,,,,,,,,,,,9,5,img/B05_09.jpg,MF,Press J if the face is MALE and K if the face is FEMALE, ,JK,,,,,,,,,,,,,,,,,,,,,,,,,,,,,,,,,,,,,,,,,,,,,,354.8592,0,7,7,53,1,109,0,0,0,0,1,98,,,,,,,,,,,,,,,,,,,,,,,,,,,,,,,,,,,,,,,,,,,,,,,,,,,,,,,,,,,,,,,,,,,,,,,,,,
,,,,616430,001,2024-02-08_10h04.09.711,fluency,2022.2.4,Win32,60.24096386,,,,,,,,,,,,,,,,,,,,,,,,,,,,,,,,,,,,,,,,,,,,,,,,,,,,,,,,,,,,,,,,,,,,,,,,,,,,,,,,,,0,0,0,0,1,,"[""k""]",[1.4219000000059623],1,"[""k""]",[1.421800000011899],,,,,,,,,,,,,,,,,,,,,,,,,,,,,,,,,,,,,,,,,,,,,,,,,,,,,,,,,,,,,,,,,,,,,
,,,,616430,001,2024-02-08_10h04.09.711,fluency,2022.2.4,Win32,60.24096386,,,,,,,,,,,,,,,,,,,,,,,9,5,img/B05_09.jpg,MF,Press J if the face is MALE and K if the face is FEMALE, ,JK,,,,,,,,,,,,,,,,,,,,,,,,,,,,,,,,4,1.3469,,,,,,,,,,,,,,0,7,7,53,1,,,,,,,,,,,,,space,0.784,,,,,,,,,,,,,,,,,,,,,,,,,,,,,,,,,,,,,,,,,,,,,,,,,,,,,,,,,,,,,,,,,,,
,,,,616430,001,2024-02-08_10h04.09.711,fluency,2022.2.4,Win32,60.24096386,,,,,,,,,,,,,,,,,,,,,,,1,1,img/B01_01.jpg,MF,Press J if the face is MALE and K if the face is FEMALE, ,JK,,,,,,,,,,,,,,,,,,,,,,,,,,,,,,,,,,,,,,,,,,,,,,362.0587,0,8,8,1,1,109,0,0,0,0,1,98,,,,,,,,,,,,,,,,,,,,,,,,,,,,,,,,,,,,,,,,,,,,,,,,,,,,,,,,,,,,,,,,,,,,,,,,,,
,,,,616430,001,2024-02-08_10h04.09.711,fluency,2022.2.4,Win32,60.24096386,,,,,,,,,,,,,,,,,,,,,,,,,,,,,,,,,,,,,,,,,,,,,,,,,,,,,,,,,,,,,,,,,,,,,,,,,,,,,,,,,,0,0,0,0,1,,"[""j""]",[1.8529999999999518],1,"[""j""]",[1.8529999999999518],,,,,,,,,,,,,,,,,,,,,,,,,,,,,,,,,,,,,,,,,,,,,,,,,,,,,,,,,,,,,,,,,,,,,
,,,,616430,001,2024-02-08_10h04.09.711,fluency,2022.2.4,Win32,60.24096386,,,,,,,,,,,,,,,,,,,,,,,1,1,img/B01_01.jpg,MF,Press J if the face is MALE and K if the face is FEMALE, ,JK,,,,,,,,,,,,,,,,,,,,,,,,,,,,,,,,6,2.9424,,,,,,,,,,,,,,0,8,8,1,1,,,,,,,,,,,,,space,0.7836,,,,,,,,,,,,,,,,,,,,,,,,,,,,,,,,,,,,,,,,,,,,,,,,,,,,,,,,,,,,,,,,,,,
,,,,616430,001,2024-02-08_10h04.09.711,fluency,2022.2.4,Win32,60.24096386,,,,,,,,,,,,,,,,,,,,,,,6,2,img/B02_06.jpg,MF,Press J if the face is MALE and K if the face is FEMALE, ,JK,,,,,,,,,,,,,,,,,,,,,,,,,,,,,,,,,,,,,,,,,,,,,,369.8419,0,9,9,17,1,109,0,0,0,0,1,98,,,,,,,,,,,,,,,,,,,,,,,,,,,,,,,,,,,,,,,,,,,,,,,,,,,,,,,,,,,,,,,,,,,,,,,,,,
,,,,616430,001,2024-02-08_10h04.09.711,fluency,2022.2.4,Win32,60.24096386,,,,,,,,,,,,,,,,,,,,,,,,,,,,,,,,,,,,,,,,,,,,,,,,,,,,,,,,,,,,,,,,,,,,,,,,,,,,,,,,,,0,0,0,0,1,,"[""k""]",[2.7412000000178978],1,"[""k""]",[2.741300000011904],,,,,,,,,,,,,,,,,,,,,,,,,,,,,,,,,,,,,,,,,,,,,,,,,,,,,,,,,,,,,,,,,,,,,
,,,,616430,001,2024-02-08_10h04.09.711,fluency,2022.2.4,Win32,60.24096386,,,,,,,,,,,,,,,,,,,,,,,6,2,img/B02_06.jpg,MF,Press J if the face is MALE and K if the face is FEMALE, ,JK,,,,,,,,,,,,,,,,,,,,,,,,,,,,,,,,5,2.3131,,,,,,,,,,,,,,0,9,9,17,1,,,,,,,,,,,,,space,0.801,,,,,,,,,,,,,,,,,,,,,,,,,,,,,,,,,,,,,,,,,,,,,,,,,,,,,,,,,,,,,,,,,,,
,,,,616430,001,2024-02-08_10h04.09.711,fluency,2022.2.4,Win32,60.24096386,,,,,,,,,,,,,,,,,,,,,,,2,10,img/B10_02.jpg,MF,Press J if the face is MALE and K if the face is FEMALE, ,JK,,,,,,,,,,,,,,,,,,,,,,,,,,,,,,,,,,,,,,,,,,,,,,377.0087,0,10,10,101,1,109,0,0,0,0,1,98,,,,,,,,,,,,,,,,,,,,,,,,,,,,,,,,,,,,,,,,,,,,,,,,,,,,,,,,,,,,,,,,,,,,,,,,,,
,,,,616430,001,2024-02-08_10h04.09.711,fluency,2022.2.4,Win32,60.24096386,,,,,,,,,,,,,,,,,,,,,,,,,,,,,,,,,,,,,,,,,,,,,,,,,,,,,,,,,,,,,,,,,,,,,,,,,,,,,,,,,,0,0,0,0,1,,"[""j""]",[1.4025999999940382],1,"[""j""]",[1.4027000000178305],,,,,,,,,,,,,,,,,,,,,,,,,,,,,,,,,,,,,,,,,,,,,,,,,,,,,,,,,,,,,,,,,,,,,
,,,,616430,001,2024-02-08_10h04.09.711,fluency,2022.2.4,Win32,60.24096386,,,,,,,,,,,,,,,,,,,,,,,2,10,img/B10_02.jpg,MF,Press J if the face is MALE and K if the face is FEMALE, ,JK,,,,,,,,,,,,,,,,,,,,,,,,,,,,,,,,7,2.4663,,,,,,,,,,,,,,0,10,10,101,1,,,,,,,,,,,,,space,1.0999,,,,,,,,,,,,,,,,,,,,,,,,,,,,,,,,,,,,,,,,,,,,,,,,,,,,,,,,,,,,,,,,,,,
,,,,616430,001,2024-02-08_10h04.09.711,fluency,2022.2.4,Win32,60.24096386,,,,,,,,,,,,,,,,,,,,,,,4,5,img/B05_04.jpg,MF,Press J if the face is MALE and K if the face is FEMALE, ,JK,,,,,,,,,,,,,,,,,,,,,,,,,,,,,,,,,,,,,,,,,,,,,,385.6741,0,11,11,48,1,109,0,0,0,0,1,98,,,,,,,,,,,,,,,,,,,,,,,,,,,,,,,,,,,,,,,,,,,,,,,,,,,,,,,,,,,,,,,,,,,,,,,,,,
,,,,616430,001,2024-02-08_10h04.09.711,fluency,2022.2.4,Win32,60.24096386,,,,,,,,,,,,,,,,,,,,,,,,,,,,,,,,,,,,,,,,,,,,,,,,,,,,,,,,,,,,,,,,,,,,,,,,,,,,,,,,,,0,0,0,0,1,,"[""k""]",[1.7506999999880577],1,"[""k""]",[1.7506999999880577],,,,,,,,,,,,,,,,,,,,,,,,,,,,,,,,,,,,,,,,,,,,,,,,,,,,,,,,,,,,,,,,,,,,,
,,,,616430,001,2024-02-08_10h04.09.711,fluency,2022.2.4,Win32,60.24096386,,,,,,,,,,,,,,,,,,,,,,,4,5,img/B05_04.jpg,MF,Press J if the face is MALE and K if the face is FEMALE, ,JK,,,,,,,,,,,,,,,,,,,,,,,,,,,,,,,,5,3.2108,,,,,,,,,,,,,,0,11,11,48,1,,,,,,,,,,,,,space,1.0507,,,,,,,,,,,,,,,,,,,,,,,,,,,,,,,,,,,,,,,,,,,,,,,,,,,,,,,,,,,,,,,,,,,
,,,,616430,001,2024-02-08_10h04.09.711,fluency,2022.2.4,Win32,60.24096386,,,,,,,,,,,,,,,,,,,,,,,0,5,img/B05_00.jpg,MF,Press J if the face is MALE and K if the face is FEMALE, ,JK,,,,,,,,,,,,,,,,,,,,,,,,,,,,,,,,,,,,,,,,,,,,,,394.0236,0,12,12,44,1,109,0,0,0,0,1,98,,,,,,,,,,,,,,,,,,,,,,,,,,,,,,,,,,,,,,,,,,,,,,,,,,,,,,,,,,,,,,,,,,,,,,,,,,
,,,,616430,001,2024-02-08_10h04.09.711,fluency,2022.2.4,Win32,60.24096386,,,,,,,,,,,,,,,,,,,,,,,,,,,,,,,,,,,,,,,,,,,,,,,,,,,,,,,,,,,,,,,,,,,,,,,,,,,,,,,,,,0,0,0,0,1,,"[""j""]",[1.055499999999995],1,"[""j""]",[1.0555999999940013],,,,,,,,,,,,,,,,,,,,,,,,,,,,,,,,,,,,,,,,,,,,,,,,,,,,,,,,,,,,,,,,,,,,,
,,,,616430,001,2024-02-08_10h04.09.711,fluency,2022.2.4,Win32,60.24096386,,,,,,,,,,,,,,,,,,,,,,,0,5,img/B05_00.jpg,MF,Press J if the face is MALE and K if the face is FEMALE, ,JK,,,,,,,,,,,,,,,,,,,,,,,,,,,,,,,,6,5.7294,,,,,,,,,,,,,,0,12,12,44,1,,,,,,,,,,,,,space,0.9334,,,,,,,,,,,,,,,,,,,,,,,,,,,,,,,,,,,,,,,,,,,,,,,,,,,,,,,,,,,,,,,,,,,
,,,,616430,001,2024-02-08_10h04.09.711,fluency,2022.2.4,Win32,60.24096386,,,,,,,,,,,,,,,,,,,,,,,8,5,img/B05_08.jpg,MF,Press J if the face is MALE and K if the face is FEMALE, ,JK,,,,,,,,,,,,,,,,,,,,,,,,,,,,,,,,,,,,,,,,,,,,,,405.7554,0,13,13,52,1,109,0,0,0,0,1,98,,,,,,,,,,,,,,,,,,,,,,,,,,,,,,,,,,,,,,,,,,,,,,,,,,,,,,,,,,,,,,,,,,,,,,,,,,
,,,,616430,001,2024-02-08_10h04.09.711,fluency,2022.2.4,Win32,60.24096386,,,,,,,,,,,,,,,,,,,,,,,,,,,,,,,,,,,,,,,,,,,,,,,,,,,,,,,,,,,,,,,,,,,,,,,,,,,,,,,,,,0,0,0,0,1,,"[""k""]",[1.2690000000000055],1,"[""k""]",[1.2689000000059423],,,,,,,,,,,,,,,,,,,,,,,,,,,,,,,,,,,,,,,,,,,,,,,,,,,,,,,,,,,,,,,,,,,,,
,,,,616430,001,2024-02-08_10h04.09.711,fluency,2022.2.4,Win32,60.24096386,,,,,,,,,,,,,,,,,,,,,,,8,5,img/B05_08.jpg,MF,Press J if the face is MALE and K if the face is FEMALE, ,JK,,,,,,,,,,,,,,,,,,,,,,,,,,,,,,,,6,1.0161,,,,,,,,,,,,,,0,13,13,52,1,,,,,,,,,,,,,space,0.8156,,,,,,,,,,,,,,,,,,,,,,,,,,,,,,,,,,,,,,,,,,,,,,,,,,,,,,,,,,,,,,,,,,,
,,,,616430,001,2024-02-08_10h04.09.711,fluency,2022.2.4,Win32,60.24096386,,,,,,,,,,,,,,,,,,,,,,,7,9,img/B09_07.jpg,MF,Press J if the face is MALE and K if the face is FEMALE, ,JK,,,,,,,,,,,,,,,,,,,,,,,,,,,,,,,,,,,,,,,,,,,,,,411.6398,0,14,14,95,1,109,0,0,0,0,1,98,,,,,,,,,,,,,,,,,,,,,,,,,,,,,,,,,,,,,,,,,,,,,,,,,,,,,,,,,,,,,,,,,,,,,,,,,,
,,,,616430,001,2024-02-08_10h04.09.711,fluency,2022.2.4,Win32,60.24096386,,,,,,,,,,,,,,,,,,,,,,,,,,,,,,,,,,,,,,,,,,,,,,,,,,,,,,,,,,,,,,,,,,,,,,,,,,,,,,,,,,0,0,0,0,1,,"[""k""]",[1.1874000000059368],1,"[""k""]",[1.1874000000059368],,,,,,,,,,,,,,,,,,,,,,,,,,,,,,,,,,,,,,,,,,,,,,,,,,,,,,,,,,,,,,,,,,,,,
,,,,616430,001,2024-02-08_10h04.09.711,fluency,2022.2.4,Win32,60.24096386,,,,,,,,,,,,,,,,,,,,,,,7,9,img/B09_07.jpg,MF,Press J if the face is MALE and K if the face is FEMALE, ,JK,,,,,,,,,,,,,,,,,,,,,,,,,,,,,,,,7,0.4811,,,,,,,,,,,,,,0,14,14,95,1,,,,,,,,,,,,,space,0.9337,,,,,,,,,,,,,,,,,,,,,,,,,,,,,,,,,,,,,,,,,,,,,,,,,,,,,,,,,,,,,,,,,,,
,,,,616430,001,2024-02-08_10h04.09.711,fluency,2022.2.4,Win32,60.24096386,,,,,,,,,,,,,,,,,,,,,,,8,6,img/B06_08.jpg,MF,Press J if the face is MALE and K if the face is FEMALE, ,JK,,,,,,,,,,,,,,,,,,,,,,,,,,,,,,,,,,,,,,,,,,,,,,418.1378,0,15,15,63,1,109,0,0,0,0,1,98,,,,,,,,,,,,,,,,,,,,,,,,,,,,,,,,,,,,,,,,,,,,,,,,,,,,,,,,,,,,,,,,,,,,,,,,,,
,,,,616430,001,2024-02-08_10h04.09.711,fluency,2022.2.4,Win32,60.24096386,,,,,,,,,,,,,,,,,,,,,,,,,,,,,,,,,,,,,,,,,,,,,,,,,,,,,,,,,,,,,,,,,,,,,,,,,,,,,,,,,,0,0,0,0,1,,"[""k""]",[1.0569000000059532],1,"[""k""]",[1.0569000000059532],,,,,,,,,,,,,,,,,,,,,,,,,,,,,,,,,,,,,,,,,,,,,,,,,,,,,,,,,,,,,,,,,,,,,
,,,,616430,001,2024-02-08_10h04.09.711,fluency,2022.2.4,Win32,60.24096386,,,,,,,,,,,,,,,,,,,,,,,8,6,img/B06_08.jpg,MF,Press J if the face is MALE and K if the face is FEMALE, ,JK,,,,,,,,,,,,,,,,,,,,,,,,,,,,,,,,7,0.7658,,,,,,,,,,,,,,0,15,15,63,1,,,,,,,,,,,,,space,0.8677,,,,,,,,,,,,,,,,,,,,,,,,,,,,,,,,,,,,,,,,,,,,,,,,,,,,,,,,,,,,,,,,,,,
,,,,616430,001,2024-02-08_10h04.09.711,fluency,2022.2.4,Win32,60.24096386,,,,,,,,,,,,,,,,,,,,,,,7,6,img/B06_07.jpg,MF,Press J if the face is MALE and K if the face is FEMALE, ,JK,,,,,,,,,,,,,,,,,,,,,,,,,,,,,,,,,,,,,,,,,,,,,,424.8211,0,16,16,62,1,109,0,0,0,0,1,98,,,,,,,,,,,,,,,,,,,,,,,,,,,,,,,,,,,,,,,,,,,,,,,,,,,,,,,,,,,,,,,,,,,,,,,,,,
,,,,616430,001,2024-02-08_10h04.09.711,fluency,2022.2.4,Win32,60.24096386,,,,,,,,,,,,,,,,,,,,,,,,,,,,,,,,,,,,,,,,,,,,,,,,,,,,,,,,,,,,,,,,,,,,,,,,,,,,,,,,,,0,0,0,0,1,,"[""k""]",[1.1137999999821204],1,"[""k"",""space""]","[1.1135999999941077,2.5045999999940705]",,,,,,,,,,,,,,,,,,,,,,,,,,,,,,,,,,,,,,,,,,,,,,,,,,,,,,,,,,,,,,,,,,,,,
,,,,616430,001,2024-02-08_10h04.09.711,fluency,2022.2.4,Win32,60.24096386,,,,,,,,,,,,,,,,,,,,,,,7,6,img/B06_07.jpg,MF,Press J if the face is MALE and K if the face is FEMALE, ,JK,,,,,,,,,,,,,,,,,,,,,,,,,,,,,,,,7,2.1739,,,,,,,,,,,,,,0,16,16,62,1,,,,,,,,,,,,,space,0.8893,,,,,,,,,,,,,,,,,,,,,,,,,,,,,,,,,,,,,,,,,,,,,,,,,,,,,,,,,,,,,,,,,,,
,,,,616430,001,2024-02-08_10h04.09.711,fluency,2022.2.4,Win32,60.24096386,,,,,,,,,,,,,,,,,,,,,,,1,7,img/B07_01.jpg,MF,Press J if the face is MALE and K if the face is FEMALE, ,JK,,,,,,,,,,,,,,,,,,,,,,,,,,,,,,,,,,,,,,,,,,,,,,432.9538,0,17,17,67,1,109,0,0,0,0,1,98,,,,,,,,,,,,,,,,,,,,,,,,,,,,,,,,,,,,,,,,,,,,,,,,,,,,,,,,,,,,,,,,,,,,,,,,,,
,,,,616430,001,2024-02-08_10h04.09.711,fluency,2022.2.4,Win32,60.24096386,,,,,,,,,,,,,,,,,,,,,,,,,,,,,,,,,,,,,,,,,,,,,,,,,,,,,,,,,,,,,,,,,,,,,,,,,,,,,,,,,,0,0,0,0,1,,"[""j""]",[1.2428000000119255],1,"[""j""]",[1.2428000000119255],,,,,,,,,,,,,,,,,,,,,,,,,,,,,,,,,,,,,,,,,,,,,,,,,,,,,,,,,,,,,,,,,,,,,
,,,,616430,001,2024-02-08_10h04.09.711,fluency,2022.2.4,Win32,60.24096386,,,,,,,,,,,,,,,,,,,,,,,1,7,img/B07_01.jpg,MF,Press J if the face is MALE and K if the face is FEMALE, ,JK,,,,,,,,,,,,,,,,,,,,,,,,,,,,,,,,6,1.3735,,,,,,,,,,,,,,0,17,17,67,1,,,,,,,,,,,,,space,1.2848,,,,,,,,,,,,,,,,,,,,,,,,,,,,,,,,,,,,,,,,,,,,,,,,,,,,,,,,,,,,,,,,,,,
,,,,616430,001,2024-02-08_10h04.09.711,fluency,2022.2.4,Win32,60.24096386,,,,,,,,,,,,,,,,,,,,,,,5,7,img/B07_05.jpg,MF,Press J if the face is MALE and K if the face is FEMALE, ,JK,,,,,,,,,,,,,,,,,,,,,,,,,,,,,,,,,,,,,,,,,,,,,,440.67,0,18,18,71,1,109,0,0,0,0,1,98,,,,,,,,,,,,,,,,,,,,,,,,,,,,,,,,,,,,,,,,,,,,,,,,,,,,,,,,,,,,,,,,,,,,,,,,,,
,,,,616430,001,2024-02-08_10h04.09.711,fluency,2022.2.4,Win32,60.24096386,,,,,,,,,,,,,,,,,,,,,,,,,,,,,,,,,,,,,,,,,,,,,,,,,,,,,,,,,,,,,,,,,,,,,,,,,,,,,,,,,,0,0,0,0,1,,"[""j""]",[2.8796000000238564],1,"[""j""]",[2.8796000000238564],,,,,,,,,,,,,,,,,,,,,,,,,,,,,,,,,,,,,,,,,,,,,,,,,,,,,,,,,,,,,,,,,,,,,
,,,,616430,001,2024-02-08_10h04.09.711,fluency,2022.2.4,Win32,60.24096386,,,,,,,,,,,,,,,,,,,,,,,5,7,img/B07_05.jpg,MF,Press J if the face is MALE and K if the face is FEMALE, ,JK,,,,,,,,,,,,,,,,,,,,,,,,,,,,,,,,6,2.5589,,,,,,,,,,,,,,0,18,18,71,1,,,,,,,,,,,,,space,0.8691,,,,,,,,,,,,,,,,,,,,,,,,,,,,,,,,,,,,,,,,,,,,,,,,,,,,,,,,,,,,,,,,,,,
,,,,616430,001,2024-02-08_10h04.09.711,fluency,2022.2.4,Win32,60.24096386,,,,,,,,,,,,,,,,,,,,,,,8,10,img/B10_08.jpg,MF,Press J if the face is MALE and K if the face is FEMALE, ,JK,,,,,,,,,,,,,,,,,,,,,,,,,,,,,,,,,,,,,,,,,,,,,,448.1704,0,19,19,107,1,109,0,0,0,0,1,98,,,,,,,,,,,,,,,,,,,,,,,,,,,,,,,,,,,,,,,,,,,,,,,,,,,,,,,,,,,,,,,,,,,,,,,,,,
,,,,616430,001,2024-02-08_10h04.09.711,fluency,2022.2.4,Win32,60.24096386,,,,,,,,,,,,,,,,,,,,,,,,,,,,,,,,,,,,,,,,,,,,,,,,,,,,,,,,,,,,,,,,,,,,,,,,,,,,,,,,,,0,0,0,0,1,,"[""k""]",[0.9471999999880154],1,"[""k""]",[0.9471999999880154],,,,,,,,,,,,,,,,,,,,,,,,,,,,,,,,,,,,,,,,,,,,,,,,,,,,,,,,,,,,,,,,,,,,,
,,,,616430,001,2024-02-08_10h04.09.711,fluency,2022.2.4,Win32,60.24096386,,,,,,,,,,,,,,,,,,,,,,,8,10,img/B10_08.jpg,MF,Press J if the face is MALE and K if the face is FEMALE, ,JK,,,,,,,,,,,,,,,,,,,,,,,,,,,,,,,,7,1.964,,,,,,,,,,,,,,0,19,19,107,1,,,,,,,,,,,,,space,0.7411,,,,,,,,,,,,,,,,,,,,,,,,,,,,,,,,,,,,,,,,,,,,,,,,,,,,,,,,,,,,,,,,,,,
,,,,616430,001,2024-02-08_10h04.09.711,fluency,2022.2.4,Win32,60.24096386,,,,,,,,,,,,,,,,,,,,,,,6,9,img/B09_06.jpg,MF,Press J if the face is MALE and K if the face is FEMALE, ,JK,,,,,,,,,,,,,,,,,,,,,,,,,,,,,,,,,,,,,,,,,,,,,,455.9512,0,20,20,94,1,109,0,0,0,0,1,98,,,,,,,,,,,,,,,,,,,,,,,,,,,,,,,,,,,,,,,,,,,,,,,,,,,,,,,,,,,,,,,,,,,,,,,,,,
,,,,616430,001,2024-02-08_10h04.09.711,fluency,2022.2.4,Win32,60.24096386,,,,,,,,,,,,,,,,,,,,,,,,,,,,,,,,,,,,,,,,,,,,,,,,,,,,,,,,,,,,,,,,,,,,,,,,,,,,,,,,,,0,0,0,0,1,,"[""k""]",[1.2843000000118536],1,"[""k""]",[1.2843000000118536],,,,,,,,,,,,,,,,,,,,,,,,,,,,,,,,,,,,,,,,,,,,,,,,,,,,,,,,,,,,,,,,,,,,,
,,,,616430,001,2024-02-08_10h04.09.711,fluency,2022.2.4,Win32,60.24096386,,,,,,,,,,,,,,,,,,,,,,,6,9,img/B09_06.jpg,MF,Press J if the face is MALE and K if the face is FEMALE, ,JK,,,,,,,,,,,,,,,,,,,,,,,,,,,,,,,,7,1.9788,,,,,,,,,,,,,,0,20,20,94,1,,,,,,,,,,,,,space,0.8676,,,,,,,,,,,,,,,,,,,,,,,,,,,,,,,,,,,,,,,,,,,,,,,,,,,,,,,,,,,,,,,,,,,
,,,,616430,001,2024-02-08_10h04.09.711,fluency,2022.2.4,Win32,60.24096386,,,,,,,,,,,,,,,,,,,,,,,2,8,img/B08_02.jpg,MF,Press J if the face is MALE and K if the face is FEMALE, ,JK,,,,,,,,,,,,,,,,,,,,,,,,,,,,,,,,,,,,,,,,,,,,,,462.8847,0,21,21,79,1,109,0,0,0,0,1,98,,,,,,,,,,,,,,,,,,,,,,,,,,,,,,,,,,,,,,,,,,,,,,,,,,,,,,,,,,,,,,,,,,,,,,,,,,
,,,,616430,001,2024-02-08_10h04.09.711,fluency,2022.2.4,Win32,60.24096386,,,,,,,,,,,,,,,,,,,,,,,,,,,,,,,,,,,,,,,,,,,,,,,,,,,,,,,,,,,,,,,,,,,,,,,,,,,,,,,,,,0,0,0,0,1,,"[""k""]",[0.8326999999881082],1,"[""k""]",[0.8326999999881082],,,,,,,,,,,,,,,,,,,,,,,,,,,,,,,,,,,,,,,,,,,,,,,,,,,,,,,,,,,,,,,,,,,,,
,,,,616430,001,2024-02-08_10h04.09.711,fluency,2022.2.4,Win32,60.24096386,,,,,,,,,,,,,,,,,,,,,,,2,8,img/B08_02.jpg,MF,Press J if the face is MALE and K if the face is FEMALE, ,JK,,,,,,,,,,,,,,,,,,,,,,,,,,,,,,,,6,0.1733,,,,,,,,,,,,,,0,21,21,79,1,,,,,,,,,,,,,space,0.8987,,,,,,,,,,,,,,,,,,,,,,,,,,,,,,,,,,,,,,,,,,,,,,,,,,,,,,,,,,,,,,,,,,,
,,,,616430,001,2024-02-08_10h04.09.711,fluency,2022.2.4,Win32,60.24096386,,,,,,,,,,,,,,,,,,,,,,,4,7,img/B07_04.jpg,MF,Press J if the face is MALE and K if the face is FEMALE, ,JK,,,,,,,,,,,,,,,,,,,,,,,,,,,,,,,,,,,,,,,,,,,,,,468.0345,0,22,22,70,1,109,0,0,0,0,1,98,,,,,,,,,,,,,,,,,,,,,,,,,,,,,,,,,,,,,,,,,,,,,,,,,,,,,,,,,,,,,,,,,,,,,,,,,,
,,,,616430,001,2024-02-08_10h04.09.711,fluency,2022.2.4,Win32,60.24096386,,,,,,,,,,,,,,,,,,,,,,,,,,,,,,,,,,,,,,,,,,,,,,,,,,,,,,,,,,,,,,,,,,,,,,,,,,,,,,,,,,0,0,0,0,1,,"[""j""]",[1.7584000000059632],1,"[""j""]",[1.7584000000059632],,,,,,,,,,,,,,,,,,,,,,,,,,,,,,,,,,,,,,,,,,,,,,,,,,,,,,,,,,,,,,,,,,,,,
,,,,616430,001,2024-02-08_10h04.09.711,fluency,2022.2.4,Win32,60.24096386,,,,,,,,,,,,,,,,,,,,,,,4,7,img/B07_04.jpg,MF,Press J if the face is MALE and K if the face is FEMALE, ,JK,,,,,,,,,,,,,,,,,,,,,,,,,,,,,,,,6,1.9742,,,,,,,,,,,,,,0,22,22,70,1,,,,,,,,,,,,,space,0.7552,,,,,,,,,,,,,,,,,,,,,,,,,,,,,,,,,,,,,,,,,,,,,,,,,,,,,,,,,,,,,,,,,,,
,,,,616430,001,2024-02-08_10h04.09.711,fluency,2022.2.4,Win32,60.24096386,,,,,,,,,,,,,,,,,,,,,,,6,7,img/B07_06.jpg,MF,Press J if the face is MALE and K if the face is FEMALE, ,JK,,,,,,,,,,,,,,,,,,,,,,,,,,,,,,,,,,,,,,,,,,,,,,475.8347,0,23,23,72,1,109,0,0,0,0,1,98,,,,,,,,,,,,,,,,,,,,,,,,,,,,,,,,,,,,,,,,,,,,,,,,,,,,,,,,,,,,,,,,,,,,,,,,,,
,,,,616430,001,2024-02-08_10h04.09.711,fluency,2022.2.4,Win32,60.24096386,,,,,,,,,,,,,,,,,,,,,,,,,,,,,,,,,,,,,,,,,,,,,,,,,,,,,,,,,,,,,,,,,,,,,,,,,,,,,,,,,,0,0,0,0,1,,"[""j""]",[2.5621999999880245],1,"[""j""]",[2.562099999994075],,,,,,,,,,,,,,,,,,,,,,,,,,,,,,,,,,,,,,,,,,,,,,,,,,,,,,,,,,,,,,,,,,,,,
,,,,616430,001,2024-02-08_10h04.09.711,fluency,2022.2.4,Win32,60.24096386,,,,,,,,,,,,,,,,,,,,,,,6,7,img/B07_06.jpg,MF,Press J if the face is MALE and K if the face is FEMALE, ,JK,,,,,,,,,,,,,,,,,,,,,,,,,,,,,,,,6,2.7286,,,,,,,,,,,,,,0,23,23,72,1,,,,,,,,,,,,,space,0.8337,,,,,,,,,,,,,,,,,,,,,,,,,,,,,,,,,,,,,,,,,,,,,,,,,,,,,,,,,,,,,,,,,,,
,,,,616430,001,2024-02-08_10h04.09.711,fluency,2022.2.4,Win32,60.24096386,,,,,,,,,,,,,,,,,,,,,,,1,3,img/B03_01.jpg,MF,Press J if the face is MALE and K if the face is FEMALE, ,JK,,,,,,,,,,,,,,,,,,,,,,,,,,,,,,,,,,,,,,,,,,,,,,483.4837,0,24,24,23,1,109,0,0,0,0,1,98,,,,,,,,,,,,,,,,,,,,,,,,,,,,,,,,,,,,,,,,,,,,,,,,,,,,,,,,,,,,,,,,,,,,,,,,,,
,,,,616430,001,2024-02-08_10h04.09.711,fluency,2022.2.4,Win32,60.24096386,,,,,,,,,,,,,,,,,,,,,,,,,,,,,,,,,,,,,,,,,,,,,,,,,,,,,,,,,,,,,,,,,,,,,,,,,,,,,,,,,,0,0,0,0,1,,"[""j""]",[1.7712999999821477],1,"[""j""]",[1.7712999999821477],,,,,,,,,,,,,,,,,,,,,,,,,,,,,,,,,,,,,,,,,,,,,,,,,,,,,,,,,,,,,,,,,,,,,
,,,,616430,001,2024-02-08_10h04.09.711,fluency,2022.2.4,Win32,60.24096386,,,,,,,,,,,,,,,,,,,,,,,1,3,img/B03_01.jpg,MF,Press J if the face is MALE and K if the face is FEMALE, ,JK,,,,,,,,,,,,,,,,,,,,,,,,,,,,,,,,6,1.3322,,,,,,,,,,,,,,0,24,24,23,1,,,,,,,,,,,,,space,0.7005,,,,,,,,,,,,,,,,,,,,,,,,,,,,,,,,,,,,,,,,,,,,,,,,,,,,,,,,,,,,,,,,,,,
,,,,616430,001,2024-02-08_10h04.09.711,fluency,2022.2.4,Win32,60.24096386,,,,,,,,,,,,,,,,,,,,,,,6,5,img/B05_06.jpg,MF,Press J if the face is MALE and K if the face is FEMALE, ,JK,,,,,,,,,,,,,,,,,,,,,,,,,,,,,,,,,,,,,,,,,,,,,,490.5825,0,25,25,50,1,109,0,0,0,0,1,98,,,,,,,,,,,,,,,,,,,,,,,,,,,,,,,,,,,,,,,,,,,,,,,,,,,,,,,,,,,,,,,,,,,,,,,,,,
,,,,616430,001,2024-02-08_10h04.09.711,fluency,2022.2.4,Win32,60.24096386,,,,,,,,,,,,,,,,,,,,,,,,,,,,,,,,,,,,,,,,,,,,,,,,,,,,,,,,,,,,,,,,,,,,,,,,,,,,,,,,,,0,0,0,0,1,,"[""k""]",[1.0760000000000218],1,"[""k""]",[1.0758999999761727],,,,,,,,,,,,,,,,,,,,,,,,,,,,,,,,,,,,,,,,,,,,,,,,,,,,,,,,,,,,,,,,,,,,,
,,,,616430,001,2024-02-08_10h04.09.711,fluency,2022.2.4,Win32,60.24096386,,,,,,,,,,,,,,,,,,,,,,,6,5,img/B05_06.jpg,MF,Press J if the face is MALE and K if the face is FEMALE, ,JK,,,,,,,,,,,,,,,,,,,,,,,,,,,,,,,,5,2.5181,,,,,,,,,,,,,,0,25,25,50,1,,,,,,,,,,,,,space,0.7881,,,,,,,,,,,,,,,,,,,,,,,,,,,,,,,,,,,,,,,,,,,,,,,,,,,,,,,,,,,,,,,,,,,
,,,,616430,001,2024-02-08_10h04.09.711,fluency,2022.2.4,Win32,60.24096386,,,,,,,,,,,,,,,,,,,,,,,10,3,img/B03_10.jpg,MF,Press J if the face is MALE and K if the face is FEMALE, ,JK,,,,,,,,,,,,,,,,,,,,,,,,,,,,,,,,,,,,,,,,,,,,,,497.9655,0,26,26,32,1,109,0,0,0,0,1,98,,,,,,,,,,,,,,,,,,,,,,,,,,,,,,,,,,,,,,,,,,,,,,,,,,,,,,,,,,,,,,,,,,,,,,,,,,
,,,,616430,001,2024-02-08_10h04.09.711,fluency,2022.2.4,Win32,60.24096386,,,,,,,,,,,,,,,,,,,,,,,,,,,,,,,,,,,,,,,,,,,,,,,,,,,,,,,,,,,,,,,,,,,,,,,,,,,,,,,,,,0,0,0,0,1,,"[""k""]",[1.2735000000000127],1,"[""k""]",[1.2734000000059496],,,,,,,,,,,,,,,,,,,,,,,,,,,,,,,,,,,,,,,,,,,,,,,,,,,,,,,,,,,,,,,,,,,,,
,,,,616430,001,2024-02-08_10h04.09.711,fluency,2022.2.4,Win32,60.24096386,,,,,,,,,,,,,,,,,,,,,,,10,3,img/B03_10.jpg,MF,Press J if the face is MALE and K if the face is FEMALE, ,JK,,,,,,,,,,,,,,,,,,,,,,,,,,,,,,,,6,2.2394,,,,,,,,,,,,,,0,26,26,32,1,,,,,,,,,,,,,space,0.6859,,,,,,,,,,,,,,,,,,,,,,,,,,,,,,,,,,,,,,,,,,,,,,,,,,,,,,,,,,,,,,,,,,,
,,,,616430,001,2024-02-08_10h04.09.711,fluency,2022.2.4,Win32,60.24096386,,,,,,,,,,,,,,,,,,,,,,,4,2,img/B02_04.jpg,MF,Press J if the face is MALE and K if the face is FEMALE, ,JK,,,,,,,,,,,,,,,,,,,,,,,,,,,,,,,,,,,,,,,,,,,,,,505.9492,0,27,27,15,1,109,0,0,0,0,1,98,,,,,,,,,,,,,,,,,,,,,,,,,,,,,,,,,,,,,,,,,,,,,,,,,,,,,,,,,,,,,,,,,,,,,,,,,,
,,,,616430,001,2024-02-08_10h04.09.711,fluency,2022.2.4,Win32,60.24096386,,,,,,,,,,,,,,,,,,,,,,,,,,,,,,,,,,,,,,,,,,,,,,,,,,,,,,,,,,,,,,,,,,,,,,,,,,,,,,,,,,0,0,0,0,1,,"[""j""]",[1.9898000000118827],1,"[""j""]",[1.9898000000118827],,,,,,,,,,,,,,,,,,,,,,,,,,,,,,,,,,,,,,,,,,,,,,,,,,,,,,,,,,,,,,,,,,,,,
,,,,616430,001,2024-02-08_10h04.09.711,fluency,2022.2.4,Win32,60.24096386,,,,,,,,,,,,,,,,,,,,,,,4,2,img/B02_04.jpg,MF,Press J if the face is MALE and K if the face is FEMALE, ,JK,,,,,,,,,,,,,,,,,,,,,,,,,,,,,,,,5,2.2808,,,,,,,,,,,,,,0,27,27,15,1,,,,,,,,,,,,,space,1.0241,,,,,,,,,,,,,,,,,,,,,,,,,,,,,,,,,,,,,,,,,,,,,,,,,,,,,,,,,,,,,,,,,,,
,,,,616430,001,2024-02-08_10h04.09.711,fluency,2022.2.4,Win32,60.24096386,,,,,,,,,,,,,,,,,,,,,,,3,5,img/B05_03.jpg,MF,Press J if the face is MALE and K if the face is FEMALE, ,JK,,,,,,,,,,,,,,,,,,,,,,,,,,,,,,,,,,,,,,,,,,,,,,513.3308,0,28,28,47,1,109,0,0,0,0,1,98,,,,,,,,,,,,,,,,,,,,,,,,,,,,,,,,,,,,,,,,,,,,,,,,,,,,,,,,,,,,,,,,,,,,,,,,,,
,,,,616430,001,2024-02-08_10h04.09.711,fluency,2022.2.4,Win32,60.24096386,,,,,,,,,,,,,,,,,,,,,,,,,,,,,,,,,,,,,,,,,,,,,,,,,,,,,,,,,,,,,,,,,,,,,,,,,,,,,,,,,,0,0,0,0,1,,"[""k""]",[2.285399999976107],1,"[""k""]",[2.285299999982044],,,,,,,,,,,,,,,,,,,,,,,,,,,,,,,,,,,,,,,,,,,,,,,,,,,,,,,,,,,,,,,,,,,,,
,,,,616430,001,2024-02-08_10h04.09.711,fluency,2022.2.4,Win32,60.24096386,,,,,,,,,,,,,,,,,,,,,,,3,5,img/B05_03.jpg,MF,Press J if the face is MALE and K if the face is FEMALE, ,JK,,,,,,,,,,,,,,,,,,,,,,,,,,,,,,,,6,6.1858,,,,,,,,,,,,,,0,28,28,47,1,,,,,,,,,,,,,space,0.8171,,,,,,,,,,,,,,,,,,,,,,,,,,,,,,,,,,,,,,,,,,,,,,,,,,,,,,,,,,,,,,,,,,,
,,,,616430,001,2024-02-08_10h04.09.711,fluency,2022.2.4,Win32,60.24096386,,,,,,,,,,,,,,,,,,,,,,,3,7,img/B07_03.jpg,MF,Press J if the face is MALE and K if the face is FEMALE, ,JK,,,,,,,,,,,,,,,,,,,,,,,,,,,,,,,,,,,,,,,,,,,,,,525.4306,0,29,29,69,1,109,0,0,0,0,1,98,,,,,,,,,,,,,,,,,,,,,,,,,,,,,,,,,,,,,,,,,,,,,,,,,,,,,,,,,,,,,,,,,,,,,,,,,,
,,,,616430,001,2024-02-08_10h04.09.711,fluency,2022.2.4,Win32,60.24096386,,,,,,,,,,,,,,,,,,,,,,,,,,,,,,,,,,,,,,,,,,,,,,,,,,,,,,,,,,,,,,,,,,,,,,,,,,,,,,,,,,0,0,0,0,1,,"[""j""]",[1.2473999999760963],1,"[""j""]",[1.2471999999880836],,,,,,,,,,,,,,,,,,,,,,,,,,,,,,,,,,,,,,,,,,,,,,,,,,,,,,,,,,,,,,,,,,,,,
,,,,616430,001,2024-02-08_10h04.09.711,fluency,2022.2.4,Win32,60.24096386,,,,,,,,,,,,,,,,,,,,,,,3,7,img/B07_03.jpg,MF,Press J if the face is MALE and K if the face is FEMALE, ,JK,,,,,,,,,,,,,,,,,,,,,,,,,,,,,,,,6,2.4814,,,,,,,,,,,,,,0,29,29,69,1,,,,,,,,,,,,,space,201.3517,,,,,,,,,,,,,,,,,,,,,,,,,,,,,,,,,,,,,,,,,,,,,,,,,,,,,,,,,,,,,,,,,,,
,,,,616430,001,2024-02-08_10h04.09.711,fluency,2022.2.4,Win32,60.24096386,,,,,,,,,,,,,,,,,,,,,,,1,9,img/B09_01.jpg,MF,Press J if the face is MALE and K if the face is FEMALE, ,JK,,,,,,,,,,,,,,,,,,,,,,,,,,,,,,,,,,,,,,,,,,,,,,733.331,0,30,30,89,1,109,0,0,0,0,1,98,,,,,,,,,,,,,,,,,,,,,,,,,,,,,,,,,,,,,,,,,,,,,,,,,,,,,,,,,,,,,,,,,,,,,,,,,,
,,,,616430,001,2024-02-08_10h04.09.711,fluency,2022.2.4,Win32,60.24096386,,,,,,,,,,,,,,,,,,,,,,,,,,,,,,,,,,,,,,,,,,,,,,,,,,,,,,,,,,,,,,,,,,,,,,,,,,,,,,,,,,0,0,0,0,1,,"[""j""]",[2.1186999999880527],1,"[""j""]",[2.118799999982116],,,,,,,,,,,,,,,,,,,,,,,,,,,,,,,,,,,,,,,,,,,,,,,,,,,,,,,,,,,,,,,,,,,,,
,,,,616430,001,2024-02-08_10h04.09.711,fluency,2022.2.4,Win32,60.24096386,,,,,,,,,,,,,,,,,,,,,,,1,9,img/B09_01.jpg,MF,Press J if the face is MALE and K if the face is FEMALE, ,JK,,,,,,,,,,,,,,,,,,,,,,,,,,,,,,,,6,3.5226,,,,,,,,,,,,,,0,30,30,89,1,,,,,,,,,,,,,space,1.3174,,,,,,,,,,,,,,,,,,,,,,,,,,,,,,,,,,,,,,,,,,,,,,,,,,,,,,,,,,,,,,,,,,,
,,,,616430,001,2024-02-08_10h04.09.711,fluency,2022.2.4,Win32,60.24096386,,,,,,,,,,,,,,,,,,,,,,,8,8,img/B08_08.jpg,MF,Press J if the face is MALE and K if the face is FEMALE, ,JK,,,,,,,,,,,,,,,,,,,,,,,,,,,,,,,,,,,,,,,,,,,,,,742.2301,0,31,31,85,1,109,0,0,0,0,1,98,,,,,,,,,,,,,,,,,,,,,,,,,,,,,,,,,,,,,,,,,,,,,,,,,,,,,,,,,,,,,,,,,,,,,,,,,,
,,,,616430,001,2024-02-08_10h04.09.711,fluency,2022.2.4,Win32,60.24096386,,,,,,,,,,,,,,,,,,,,,,,,,,,,,,,,,,,,,,,,,,,,,,,,,,,,,,,,,,,,,,,,,,,,,,,,,,,,,,,,,,0,0,0,0,1,,"[""j""]",[0.7655999999940377],1,"[""j""]",[0.7654000000059114],,,,,,,,,,,,,,,,,,,,,,,,,,,,,,,,,,,,,,,,,,,,,,,,,,,,,,,,,,,,,,,,,,,,,
,,,,616430,001,2024-02-08_10h04.09.711,fluency,2022.2.4,Win32,60.24096386,,,,,,,,,,,,,,,,,,,,,,,8,8,img/B08_08.jpg,MF,Press J if the face is MALE and K if the face is FEMALE, ,JK,,,,,,,,,,,,,,,,,,,,,,,,,,,,,,,,7,2.8982,,,,,,,,,,,,,,0,31,31,85,1,,,,,,,,,,,,,space,0.7671,,,,,,,,,,,,,,,,,,,,,,,,,,,,,,,,,,,,,,,,,,,,,,,,,,,,,,,,,,,,,,,,,,,
,,,,616430,001,2024-02-08_10h04.09.711,fluency,2022.2.4,Win32,60.24096386,,,,,,,,,,,,,,,,,,,,,,,6,4,img/B04_06.jpg,MF,Press J if the face is MALE and K if the face is FEMALE, ,JK,,,,,,,,,,,,,,,,,,,,,,,,,,,,,,,,,,,,,,,,,,,,,,750.9473,0,32,32,39,1,109,0,0,0,0,1,98,,,,,,,,,,,,,,,,,,,,,,,,,,,,,,,,,,,,,,,,,,,,,,,,,,,,,,,,,,,,,,,,,,,,,,,,,,
,,,,616430,001,2024-02-08_10h04.09.711,fluency,2022.2.4,Win32,60.24096386,,,,,,,,,,,,,,,,,,,,,,,,,,,,,,,,,,,,,,,,,,,,,,,,,,,,,,,,,,,,,,,,,,,,,,,,,,,,,,,,,,0,0,0,0,1,,"[""k""]",[1.0400000000000773],1,"[""k""]",[1.0398999999762282],,,,,,,,,,,,,,,,,,,,,,,,,,,,,,,,,,,,,,,,,,,,,,,,,,,,,,,,,,,,,,,,,,,,,
,,,,616430,001,2024-02-08_10h04.09.711,fluency,2022.2.4,Win32,60.24096386,,,,,,,,,,,,,,,,,,,,,,,6,4,img/B04_06.jpg,MF,Press J if the face is MALE and K if the face is FEMALE, ,JK,,,,,,,,,,,,,,,,,,,,,,,,,,,,,,,,6,2.7777,,,,,,,,,,,,,,0,32,32,39,1,,,,,,,,,,,,,space,0.7163,,,,,,,,,,,,,,,,,,,,,,,,,,,,,,,,,,,,,,,,,,,,,,,,,,,,,,,,,,,,,,,,,,,
,,,,616430,001,2024-02-08_10h04.09.711,fluency,2022.2.4,Win32,60.24096386,,,,,,,,,,,,,,,,,,,,,,,7,3,img/B03_07.jpg,MF,Press J if the face is MALE and K if the face is FEMALE, ,JK,,,,,,,,,,,,,,,,,,,,,,,,,,,,,,,,,,,,,,,,,,,,,,759.5123,0,33,33,29,1,109,0,0,0,0,1,98,,,,,,,,,,,,,,,,,,,,,,,,,,,,,,,,,,,,,,,,,,,,,,,,,,,,,,,,,,,,,,,,,,,,,,,,,,
,,,,616430,001,2024-02-08_10h04.09.711,fluency,2022.2.4,Win32,60.24096386,,,,,,,,,,,,,,,,,,,,,,,,,,,,,,,,,,,,,,,,,,,,,,,,,,,,,,,,,,,,,,,,,,,,,,,,,,,,,,,,,,0,0,0,0,1,,"[""k""]",[1.5497999999820422],1,"[""k""]",[1.5496999999880927],,,,,,,,,,,,,,,,,,,,,,,,,,,,,,,,,,,,,,,,,,,,,,,,,,,,,,,,,,,,,,,,,,,,,
,,,,616430,001,2024-02-08_10h04.09.711,fluency,2022.2.4,Win32,60.24096386,,,,,,,,,,,,,,,,,,,,,,,7,3,img/B03_07.jpg,MF,Press J if the face is MALE and K if the face is FEMALE, ,JK,,,,,,,,,,,,,,,,,,,,,,,,,,,,,,,,6,1.4027,,,,,,,,,,,,,,0,33,33,29,1,,,,,,,,,,,,,space,0.5862,,,,,,,,,,,,,,,,,,,,,,,,,,,,,,,,,,,,,,,,,,,,,,,,,,,,,,,,,,,,,,,,,,,
,,,,616430,001,2024-02-08_10h04.09.711,fluency,2022.2.4,Win32,60.24096386,,,,,,,,,,,,,,,,,,,,,,,9,2,img/B02_09.jpg,MF,Press J if the face is MALE and K if the face is FEMALE, ,JK,,,,,,,,,,,,,,,,,,,,,,,,,,,,,,,,,,,,,,,,,,,,,,765.5788,0,34,34,20,1,109,0,0,0,0,1,98,,,,,,,,,,,,,,,,,,,,,,,,,,,,,,,,,,,,,,,,,,,,,,,,,,,,,,,,,,,,,,,,,,,,,,,,,,
,,,,616430,001,2024-02-08_10h04.09.711,fluency,2022.2.4,Win32,60.24096386,,,,,,,,,,,,,,,,,,,,,,,,,,,,,,,,,,,,,,,,,,,,,,,,,,,,,,,,,,,,,,,,,,,,,,,,,,,,,,,,,,0,0,0,0,1,,"[""k""]",[0.9358000000119091],1,"[""k""]",[0.9358000000119091],,,,,,,,,,,,,,,,,,,,,,,,,,,,,,,,,,,,,,,,,,,,,,,,,,,,,,,,,,,,,,,,,,,,,
,,,,616430,001,2024-02-08_10h04.09.711,fluency,2022.2.4,Win32,60.24096386,,,,,,,,,,,,,,,,,,,,,,,9,2,img/B02_09.jpg,MF,Press J if the face is MALE and K if the face is FEMALE, ,JK,,,,,,,,,,,,,,,,,,,,,,,,,,,,,,,,7,1.0631,,,,,,,,,,,,,,0,34,34,20,1,,,,,,,,,,,,,space,0.7854,,,,,,,,,,,,,,,,,,,,,,,,,,,,,,,,,,,,,,,,,,,,,,,,,,,,,,,,,,,,,,,,,,,
,,,,616430,001,2024-02-08_10h04.09.711,fluency,2022.2.4,Win32,60.24096386,,,,,,,,,,,,,,,,,,,,,,,9,1,img/B01_09.jpg,MF,Press J if the face is MALE and K if the face is FEMALE, ,JK,,,,,,,,,,,,,,,,,,,,,,,,,,,,,,,,,,,,,,,,,,,,,,772.5116,0,35,35,9,1,109,0,0,0,0,1,98,,,,,,,,,,,,,,,,,,,,,,,,,,,,,,,,,,,,,,,,,,,,,,,,,,,,,,,,,,,,,,,,,,,,,,,,,,
,,,,616430,001,2024-02-08_10h04.09.711,fluency,2022.2.4,Win32,60.24096386,,,,,,,,,,,,,,,,,,,,,,,,,,,,,,,,,,,,,,,,,,,,,,,,,,,,,,,,,,,,,,,,,,,,,,,,,,,,,,,,,,0,0,0,0,1,,"[""k""]",[0.8183999999761227],1,"[""k""]",[0.8183999999761227],,,,,,,,,,,,,,,,,,,,,,,,,,,,,,,,,,,,,,,,,,,,,,,,,,,,,,,,,,,,,,,,,,,,,
,,,,616430,001,2024-02-08_10h04.09.711,fluency,2022.2.4,Win32,60.24096386,,,,,,,,,,,,,,,,,,,,,,,9,1,img/B01_09.jpg,MF,Press J if the face is MALE and K if the face is FEMALE, ,JK,,,,,,,,,,,,,,,,,,,,,,,,,,,,,,,,7,1.081,,,,,,,,,,,,,,0,35,35,9,1,,,,,,,,,,,,,space,0.6334,,,,,,,,,,,,,,,,,,,,,,,,,,,,,,,,,,,,,,,,,,,,,,,,,,,,,,,,,,,,,,,,,,,
,,,,616430,001,2024-02-08_10h04.09.711,fluency,2022.2.4,Win32,60.24096386,,,,,,,,,,,,,,,,,,,,,,,8,4,img/B04_08.jpg,MF,Press J if the face is MALE and K if the face is FEMALE, ,JK,,,,,,,,,,,,,,,,,,,,,,,,,,,,,,,,,,,,,,,,,,,,,,778.2935,0,36,36,41,1,109,0,0,0,0,1,98,,,,,,,,,,,,,,,,,,,,,,,,,,,,,,,,,,,,,,,,,,,,,,,,,,,,,,,,,,,,,,,,,,,,,,,,,,
,,,,616430,001,2024-02-08_10h04.09.711,fluency,2022.2.4,Win32,60.24096386,,,,,,,,,,,,,,,,,,,,,,,,,,,,,,,,,,,,,,,,,,,,,,,,,,,,,,,,,,,,,,,,,,,,,,,,,,,,,,,,,,0,0,0,0,1,,"[""k""]",[0.9334999999999809],1,"[""k""]",[0.9334999999999809],,,,,,,,,,,,,,,,,,,,,,,,,,,,,,,,,,,,,,,,,,,,,,,,,,,,,,,,,,,,,,,,,,,,,
,,,,616430,001,2024-02-08_10h04.09.711,fluency,2022.2.4,Win32,60.24096386,,,,,,,,,,,,,,,,,,,,,,,8,4,img/B04_08.jpg,MF,Press J if the face is MALE and K if the face is FEMALE, ,JK,,,,,,,,,,,,,,,,,,,,,,,,,,,,,,,,6,1.5517,,,,,,,,,,,,,,0,36,36,41,1,,,,,,,,,,,,,space,0.6822,,,,,,,,,,,,,,,,,,,,,,,,,,,,,,,,,,,,,,,,,,,,,,,,,,,,,,,,,,,,,,,,,,,
,,,,616430,001,2024-02-08_10h04.09.711,fluency,2022.2.4,Win32,60.24096386,,,,,,,,,,,,,,,,,,,,,,,0,6,img/B06_00.jpg,MF,Press J if the face is MALE and K if the face is FEMALE, ,JK,,,,,,,,,,,,,,,,,,,,,,,,,,,,,,,,,,,,,,,,,,,,,,784.5946,0,37,37,55,1,109,0,0,0,0,1,98,,,,,,,,,,,,,,,,,,,,,,,,,,,,,,,,,,,,,,,,,,,,,,,,,,,,,,,,,,,,,,,,,,,,,,,,,,
,,,,616430,001,2024-02-08_10h04.09.711,fluency,2022.2.4,Win32,60.24096386,,,,,,,,,,,,,,,,,,,,,,,,,,,,,,,,,,,,,,,,,,,,,,,,,,,,,,,,,,,,,,,,,,,,,,,,,,,,,,,,,,0,0,0,0,1,,"[""j""]",[1.045500000000061],1,"[""j""]",[1.0454999999999472],,,,,,,,,,,,,,,,,,,,,,,,,,,,,,,,,,,,,,,,,,,,,,,,,,,,,,,,,,,,,,,,,,,,,
,,,,616430,001,2024-02-08_10h04.09.711,fluency,2022.2.4,Win32,60.24096386,,,,,,,,,,,,,,,,,,,,,,,0,6,img/B06_00.jpg,MF,Press J if the face is MALE and K if the face is FEMALE, ,JK,,,,,,,,,,,,,,,,,,,,,,,,,,,,,,,,5,1.3237,,,,,,,,,,,,,,0,37,37,55,1,,,,,,,,,,,,,space,0.6661,,,,,,,,,,,,,,,,,,,,,,,,,,,,,,,,,,,,,,,,,,,,,,,,,,,,,,,,,,,,,,,,,,,
,,,,616430,001,2024-02-08_10h04.09.711,fluency,2022.2.4,Win32,60.24096386,,,,,,,,,,,,,,,,,,,,,,,7,8,img/B08_07.jpg,MF,Press J if the face is MALE and K if the face is FEMALE, ,JK,,,,,,,,,,,,,,,,,,,,,,,,,,,,,,,,,,,,,,,,,,,,,,791.6436,0,38,38,84,1,109,0,0,0,0,1,98,,,,,,,,,,,,,,,,,,,,,,,,,,,,,,,,,,,,,,,,,,,,,,,,,,,,,,,,,,,,,,,,,,,,,,,,,,
,,,,616430,001,2024-02-08_10h04.09.711,fluency,2022.2.4,Win32,60.24096386,,,,,,,,,,,,,,,,,,,,,,,,,,,,,,,,,,,,,,,,,,,,,,,,,,,,,,,,,,,,,,,,,,,,,,,,,,,,,,,,,,0,0,0,0,1,,"[""j""]",[1.1807000000178505],1,"[""j""]",[1.1807000000179642],,,,,,,,,,,,,,,,,,,,,,,,,,,,,,,,,,,,,,,,,,,,,,,,,,,,,,,,,,,,,,,,,,,,,
,,,,616430,001,2024-02-08_10h04.09.711,fluency,2022.2.4,Win32,60.24096386,,,,,,,,,,,,,,,,,,,,,,,7,8,img/B08_07.jpg,MF,Press J if the face is MALE and K if the face is FEMALE, ,JK,,,,,,,,,,,,,,,,,,,,,,,,,,,,,,,,5,1.1106,,,,,,,,,,,,,,0,38,38,84,1,,,,,,,,,,,,,space,1.5338,,,,,,,,,,,,,,,,,,,,,,,,,,,,,,,,,,,,,,,,,,,,,,,,,,,,,,,,,,,,,,,,,,,
,,,,616430,001,2024-02-08_10h04.09.711,fluency,2022.2.4,Win32,60.24096386,,,,,,,,,,,,,,,,,,,,,,,0,7,img/B07_00.jpg,MF,Press J if the face is MALE and K if the face is FEMALE, ,JK,,,,,,,,,,,,,,,,,,,,,,,,,,,,,,,,,,,,,,,,,,,,,,799.3759,0,39,39,66,1,109,0,0,0,0,1,98,,,,,,,,,,,,,,,,,,,,,,,,,,,,,,,,,,,,,,,,,,,,,,,,,,,,,,,,,,,,,,,,,,,,,,,,,,
,,,,616430,001,2024-02-08_10h04.09.711,fluency,2022.2.4,Win32,60.24096386,,,,,,,,,,,,,,,,,,,,,,,,,,,,,,,,,,,,,,,,,,,,,,,,,,,,,,,,,,,,,,,,,,,,,,,,,,,,,,,,,,0,0,0,0,1,,"[""j""]",[1.126199999987989],1,"[""j""]",[1.126199999987989],,,,,,,,,,,,,,,,,,,,,,,,,,,,,,,,,,,,,,,,,,,,,,,,,,,,,,,,,,,,,,,,,,,,,
,,,,616430,001,2024-02-08_10h04.09.711,fluency,2022.2.4,Win32,60.24096386,,,,,,,,,,,,,,,,,,,,,,,0,7,img/B07_00.jpg,MF,Press J if the face is MALE and K if the face is FEMALE, ,JK,,,,,,,,,,,,,,,,,,,,,,,,,,,,,,,,5,1.1787,,,,,,,,,,,,,,0,39,39,66,1,,,,,,,,,,,,,space,0.717,,,,,,,,,,,,,,,,,,,,,,,,,,,,,,,,,,,,,,,,,,,,,,,,,,,,,,,,,,,,,,,,,,,
,,,,616430,001,2024-02-08_10h04.09.711,fluency,2022.2.4,Win32,60.24096386,,,,,,,,,,,,,,,,,,,,,,,5,10,img/B10_05.jpg,MF,Press J if the face is MALE and K if the face is FEMALE, ,JK,,,,,,,,,,,,,,,,,,,,,,,,,,,,,,,,,,,,,,,,,,,,,,805.3258,0,40,40,104,1,109,0,0,0,0,1,98,,,,,,,,,,,,,,,,,,,,,,,,,,,,,,,,,,,,,,,,,,,,,,,,,,,,,,,,,,,,,,,,,,,,,,,,,,
,,,,616430,001,2024-02-08_10h04.09.711,fluency,2022.2.4,Win32,60.24096386,,,,,,,,,,,,,,,,,,,,,,,,,,,,,,,,,,,,,,,,,,,,,,,,,,,,,,,,,,,,,,,,,,,,,,,,,,,,,,,,,,0,0,0,0,1,,"[""j""]",[2.062599999994063],1,"[""j""]",[2.0625],,,,,,,,,,,,,,,,,,,,,,,,,,,,,,,,,,,,,,,,,,,,,,,,,,,,,,,,,,,,,,,,,,,,,
,,,,616430,001,2024-02-08_10h04.09.711,fluency,2022.2.4,Win32,60.24096386,,,,,,,,,,,,,,,,,,,,,,,5,10,img/B10_05.jpg,MF,Press J if the face is MALE and K if the face is FEMALE, ,JK,,,,,,,,,,,,,,,,,,,,,,,,,,,,,,,,6,2.7338,,,,,,,,,,,,,,0,40,40,104,1,,,,,,,,,,,,,space,0.6676,,,,,,,,,,,,,,,,,,,,,,,,,,,,,,,,,,,,,,,,,,,,,,,,,,,,,,,,,,,,,,,,,,,
,,,,616430,001,2024-02-08_10h04.09.711,fluency,2022.2.4,Win32,60.24096386,,,,,,,,,,,,,,,,,,,,,,,1,10,img/B10_01.jpg,MF,Press J if the face is MALE and K if the face is FEMALE, ,JK,,,,,,,,,,,,,,,,,,,,,,,,,,,,,,,,,,,,,,,,,,,,,,812.8077,0,41,41,100,1,109,0,0,0,0,1,98,,,,,,,,,,,,,,,,,,,,,,,,,,,,,,,,,,,,,,,,,,,,,,,,,,,,,,,,,,,,,,,,,,,,,,,,,,
,,,,616430,001,2024-02-08_10h04.09.711,fluency,2022.2.4,Win32,60.24096386,,,,,,,,,,,,,,,,,,,,,,,,,,,,,,,,,,,,,,,,,,,,,,,,,,,,,,,,,,,,,,,,,,,,,,,,,,,,,,,,,,0,0,0,0,1,,"[""j""]",[1.6492000000177995],1,"[""j""]",[1.6490999999939504],,,,,,,,,,,,,,,,,,,,,,,,,,,,,,,,,,,,,,,,,,,,,,,,,,,,,,,,,,,,,,,,,,,,,
,,,,616430,001,2024-02-08_10h04.09.711,fluency,2022.2.4,Win32,60.24096386,,,,,,,,,,,,,,,,,,,,,,,1,10,img/B10_01.jpg,MF,Press J if the face is MALE and K if the face is FEMALE, ,JK,,,,,,,,,,,,,,,,,,,,,,,,,,,,,,,,7,2.6751,,,,,,,,,,,,,,0,41,41,100,1,,,,,,,,,,,,,space,0.8535,,,,,,,,,,,,,,,,,,,,,,,,,,,,,,,,,,,,,,,,,,,,,,,,,,,,,,,,,,,,,,,,,,,
,,,,616430,001,2024-02-08_10h04.09.711,fluency,2022.2.4,Win32,60.24096386,,,,,,,,,,,,,,,,,,,,,,,8,7,img/B07_08.jpg,MF,Press J if the face is MALE and K if the face is FEMALE, ,JK,,,,,,,,,,,,,,,,,,,,,,,,,,,,,,,,,,,,,,,,,,,,,,820.4077,0,42,42,74,1,109,0,0,0,0,1,98,,,,,,,,,,,,,,,,,,,,,,,,,,,,,,,,,,,,,,,,,,,,,,,,,,,,,,,,,,,,,,,,,,,,,,,,,,
,,,,616430,001,2024-02-08_10h04.09.711,fluency,2022.2.4,Win32,60.24096386,,,,,,,,,,,,,,,,,,,,,,,,,,,,,,,,,,,,,,,,,,,,,,,,,,,,,,,,,,,,,,,,,,,,,,,,,,,,,,,,,,0,0,0,0,1,,"[""k""]",[0.9822000000178832],1,"[""k""]",[0.9822000000178832],,,,,,,,,,,,,,,,,,,,,,,,,,,,,,,,,,,,,,,,,,,,,,,,,,,,,,,,,,,,,,,,,,,,,
,,,,616430,001,2024-02-08_10h04.09.711,fluency,2022.2.4,Win32,60.24096386,,,,,,,,,,,,,,,,,,,,,,,8,7,img/B07_08.jpg,MF,Press J if the face is MALE and K if the face is FEMALE, ,JK,,,,,,,,,,,,,,,,,,,,,,,,,,,,,,,,7,0.0007,,,,,,,,,,,,,,0,42,42,74,1,,,,,,,,,,,,,space,0.6878,,,,,,,,,,,,,,,,,,,,,,,,,,,,,,,,,,,,,,,,,,,,,,,,,,,,,,,,,,,,,,,,,,,
,,,,616430,001,2024-02-08_10h04.09.711,fluency,2022.2.4,Win32,60.24096386,,,,,,,,,,,,,,,,,,,,,,,1,5,img/B05_01.jpg,MF,Press J if the face is MALE and K if the face is FEMALE, ,JK,,,,,,,,,,,,,,,,,,,,,,,,,,,,,,,,,,,,,,,,,,,,,,825.1574,0,43,43,45,1,109,0,0,0,0,1,98,,,,,,,,,,,,,,,,,,,,,,,,,,,,,,,,,,,,,,,,,,,,,,,,,,,,,,,,,,,,,,,,,,,,,,,,,,
,,,,616430,001,2024-02-08_10h04.09.711,fluency,2022.2.4,Win32,60.24096386,,,,,,,,,,,,,,,,,,,,,,,,,,,,,,,,,,,,,,,,,,,,,,,,,,,,,,,,,,,,,,,,,,,,,,,,,,,,,,,,,,0,0,0,0,1,,"[""j""]",[2.0855999999940877],1,"[""j""]",[2.0853999999761754],,,,,,,,,,,,,,,,,,,,,,,,,,,,,,,,,,,,,,,,,,,,,,,,,,,,,,,,,,,,,,,,,,,,,
,,,,616430,001,2024-02-08_10h04.09.711,fluency,2022.2.4,Win32,60.24096386,,,,,,,,,,,,,,,,,,,,,,,1,5,img/B05_01.jpg,MF,Press J if the face is MALE and K if the face is FEMALE, ,JK,,,,,,,,,,,,,,,,,,,,,,,,,,,,,,,,5,1.4662,,,,,,,,,,,,,,0,43,43,45,1,,,,,,,,,,,,,space,0.5528,,,,,,,,,,,,,,,,,,,,,,,,,,,,,,,,,,,,,,,,,,,,,,,,,,,,,,,,,,,,,,,,,,,
,,,,616430,001,2024-02-08_10h04.09.711,fluency,2022.2.4,Win32,60.24096386,,,,,,,,,,,,,,,,,,,,,,,1,2,img/B02_01.jpg,MF,Press J if the face is MALE and K if the face is FEMALE, ,JK,,,,,,,,,,,,,,,,,,,,,,,,,,,,,,,,,,,,,,,,,,,,,,832.2405,0,44,44,12,1,109,0,0,0,0,1,98,,,,,,,,,,,,,,,,,,,,,,,,,,,,,,,,,,,,,,,,,,,,,,,,,,,,,,,,,,,,,,,,,,,,,,,,,,
,,,,616430,001,2024-02-08_10h04.09.711,fluency,2022.2.4,Win32,60.24096386,,,,,,,,,,,,,,,,,,,,,,,,,,,,,,,,,,,,,,,,,,,,,,,,,,,,,,,,,,,,,,,,,,,,,,,,,,,,,,,,,,0,0,0,0,1,,"[""j""]",[1.3419000000059214],1,"[""j""]",[1.3418000000118582],,,,,,,,,,,,,,,,,,,,,,,,,,,,,,,,,,,,,,,,,,,,,,,,,,,,,,,,,,,,,,,,,,,,,
,,,,616430,001,2024-02-08_10h04.09.711,fluency,2022.2.4,Win32,60.24096386,,,,,,,,,,,,,,,,,,,,,,,1,2,img/B02_01.jpg,MF,Press J if the face is MALE and K if the face is FEMALE, ,JK,,,,,,,,,,,,,,,,,,,,,,,,,,,,,,,,5,0.4492,,,,,,,,,,,,,,0,44,44,12,1,,,,,,,,,,,,,space,0.7397,,,,,,,,,,,,,,,,,,,,,,,,,,,,,,,,,,,,,,,,,,,,,,,,,,,,,,,,,,,,,,,,,,,
,,,,616430,001,2024-02-08_10h04.09.711,fluency,2022.2.4,Win32,60.24096386,,,,,,,,,,,,,,,,,,,,,,,2,4,img/B04_02.jpg,MF,Press J if the face is MALE and K if the face is FEMALE, ,JK,,,,,,,,,,,,,,,,,,,,,,,,,,,,,,,,,,,,,,,,,,,,,,838.5059,0,45,45,35,1,109,0,0,0,0,1,98,,,,,,,,,,,,,,,,,,,,,,,,,,,,,,,,,,,,,,,,,,,,,,,,,,,,,,,,,,,,,,,,,,,,,,,,,,
,,,,616430,001,2024-02-08_10h04.09.711,fluency,2022.2.4,Win32,60.24096386,,,,,,,,,,,,,,,,,,,,,,,,,,,,,,,,,,,,,,,,,,,,,,,,,,,,,,,,,,,,,,,,,,,,,,,,,,,,,,,,,,0,0,0,0,1,,"[""j""]",[1.169099999994046],1,"[""j""]",[1.1689999999999827],,,,,,,,,,,,,,,,,,,,,,,,,,,,,,,,,,,,,,,,,,,,,,,,,,,,,,,,,,,,,,,,,,,,,
,,,,616430,001,2024-02-08_10h04.09.711,fluency,2022.2.4,Win32,60.24096386,,,,,,,,,,,,,,,,,,,,,,,2,4,img/B04_02.jpg,MF,Press J if the face is MALE and K if the face is FEMALE, ,JK,,,,,,,,,,,,,,,,,,,,,,,,,,,,,,,,8,1.5414,,,,,,,,,,,,,,0,45,45,35,1,,,,,,,,,,,,,space,0.7626,,,,,,,,,,,,,,,,,,,,,,,,,,,,,,,,,,,,,,,,,,,,,,,,,,,,,,,,,,,,,,,,,,,
,,,,616430,001,2024-02-08_10h04.09.711,fluency,2022.2.4,Win32,60.24096386,,,,,,,,,,,,,,,,,,,,,,,2,7,img/B07_02.jpg,MF,Press J if the face is MALE and K if the face is FEMALE, ,JK,,,,,,,,,,,,,,,,,,,,,,,,,,,,,,,,,,,,,,,,,,,,,,845.8901,0,46,46,68,1,109,0,0,0,0,1,98,,,,,,,,,,,,,,,,,,,,,,,,,,,,,,,,,,,,,,,,,,,,,,,,,,,,,,,,,,,,,,,,,,,,,,,,,,
,,,,616430,001,2024-02-08_10h04.09.711,fluency,2022.2.4,Win32,60.24096386,,,,,,,,,,,,,,,,,,,,,,,,,,,,,,,,,,,,,,,,,,,,,,,,,,,,,,,,,,,,,,,,,,,,,,,,,,,,,,,,,,0,0,0,0,1,,"[""j""]",[1.0256999999880918],1,"[""j""]",[1.0255999999940286],,,,,,,,,,,,,,,,,,,,,,,,,,,,,,,,,,,,,,,,,,,,,,,,,,,,,,,,,,,,,,,,,,,,,
,,,,616430,001,2024-02-08_10h04.09.711,fluency,2022.2.4,Win32,60.24096386,,,,,,,,,,,,,,,,,,,,,,,2,7,img/B07_02.jpg,MF,Press J if the face is MALE and K if the face is FEMALE, ,JK,,,,,,,,,,,,,,,,,,,,,,,,,,,,,,,,7,0.7296,,,,,,,,,,,,,,0,46,46,68,1,,,,,,,,,,,,,space,0.6878,,,,,,,,,,,,,,,,,,,,,,,,,,,,,,,,,,,,,,,,,,,,,,,,,,,,,,,,,,,,,,,,,,,
,,,,616430,001,2024-02-08_10h04.09.711,fluency,2022.2.4,Win32,60.24096386,,,,,,,,,,,,,,,,,,,,,,,1,6,img/B06_01.jpg,MF,Press J if the face is MALE and K if the face is FEMALE, ,JK,,,,,,,,,,,,,,,,,,,,,,,,,,,,,,,,,,,,,,,,,,,,,,852.3723,0,47,47,56,1,109,0,0,0,0,1,98,,,,,,,,,,,,,,,,,,,,,,,,,,,,,,,,,,,,,,,,,,,,,,,,,,,,,,,,,,,,,,,,,,,,,,,,,,
,,,,616430,001,2024-02-08_10h04.09.711,fluency,2022.2.4,Win32,60.24096386,,,,,,,,,,,,,,,,,,,,,,,,,,,,,,,,,,,,,,,,,,,,,,,,,,,,,,,,,,,,,,,,,,,,,,,,,,,,,,,,,,0,0,0,0,1,,"[""j""]",[1.1417000000178632],1,"[""j""]",[1.1417000000178632],,,,,,,,,,,,,,,,,,,,,,,,,,,,,,,,,,,,,,,,,,,,,,,,,,,,,,,,,,,,,,,,,,,,,
,,,,616430,001,2024-02-08_10h04.09.711,fluency,2022.2.4,Win32,60.24096386,,,,,,,,,,,,,,,,,,,,,,,1,6,img/B06_01.jpg,MF,Press J if the face is MALE and K if the face is FEMALE, ,JK,,,,,,,,,,,,,,,,,,,,,,,,,,,,,,,,6,1.0411,,,,,,,,,,,,,,0,47,47,56,1,,,,,,,,,,,,,space,0.5688,,,,,,,,,,,,,,,,,,,,,,,,,,,,,,,,,,,,,,,,,,,,,,,,,,,,,,,,,,,,,,,,,,,
,,,,616430,001,2024-02-08_10h04.09.711,fluency,2022.2.4,Win32,60.24096386,,,,,,,,,,,,,,,,,,,,,,,5,5,img/B05_05.jpg,MF,Press J if the face is MALE and K if the face is FEMALE, ,JK,,,,,,,,,,,,,,,,,,,,,,,,,,,,,,,,,,,,,,,,,,,,,,858.0381,0,48,48,49,1,109,0,0,0,0,1,98,,,,,,,,,,,,,,,,,,,,,,,,,,,,,,,,,,,,,,,,,,,,,,,,,,,,,,,,,,,,,,,,,,,,,,,,,,
,,,,616430,001,2024-02-08_10h04.09.711,fluency,2022.2.4,Win32,60.24096386,,,,,,,,,,,,,,,,,,,,,,,,,,,,,,,,,,,,,,,,,,,,,,,,,,,,,,,,,,,,,,,,,,,,,,,,,,,,,,,,,,0,0,0,0,1,,"[""k""]",[1.0925000000000864],1,"[""k""]",[1.0924000000060232],,,,,,,,,,,,,,,,,,,,,,,,,,,,,,,,,,,,,,,,,,,,,,,,,,,,,,,,,,,,,,,,,,,,,
,,,,616430,001,2024-02-08_10h04.09.711,fluency,2022.2.4,Win32,60.24096386,,,,,,,,,,,,,,,,,,,,,,,5,5,img/B05_05.jpg,MF,Press J if the face is MALE and K if the face is FEMALE, ,JK,,,,,,,,,,,,,,,,,,,,,,,,,,,,,,,,6,3.0818,,,,,,,,,,,,,,0,48,48,49,1,,,,,,,,,,,,,space,0.7341,,,,,,,,,,,,,,,,,,,,,,,,,,,,,,,,,,,,,,,,,,,,,,,,,,,,,,,,,,,,,,,,,,,
,,,,616430,001,2024-02-08_10h04.09.711,fluency,2022.2.4,Win32,60.24096386,,,,,,,,,,,,,,,,,,,,,,,10,10,img/B10_10.jpg,MF,Press J if the face is MALE and K if the face is FEMALE, ,JK,,,,,,,,,,,,,,,,,,,,,,,,,,,,,,,,,,,,,,,,,,,,,,865.938,0,49,49,109,1,109,0,0,0,0,1,98,,,,,,,,,,,,,,,,,,,,,,,,,,,,,,,,,,,,,,,,,,,,,,,,,,,,,,,,,,,,,,,,,,,,,,,,,,
,,,,616430,001,2024-02-08_10h04.09.711,fluency,2022.2.4,Win32,60.24096386,,,,,,,,,,,,,,,,,,,,,,,,,,,,,,,,,,,,,,,,,,,,,,,,,,,,,,,,,,,,,,,,,,,,,,,,,,,,,,,,,,0,0,0,0,1,,"[""k""]",[1.08219999998812],1,"[""k""]",[1.08219999998812],,,,,,,,,,,,,,,,,,,,,,,,,,,,,,,,,,,,,,,,,,,,,,,,,,,,,,,,,,,,,,,,,,,,,
,,,,616430,001,2024-02-08_10h04.09.711,fluency,2022.2.4,Win32,60.24096386,,,,,,,,,,,,,,,,,,,,,,,10,10,img/B10_10.jpg,MF,Press J if the face is MALE and K if the face is FEMALE, ,JK,,,,,,,,,,,,,,,,,,,,,,,,,,,,,,,,6,4.8146,,,,,,,,,,,,,,0,49,49,109,1,,,,,,,,,,,,,space,0.8394,,,,,,,,,,,,,,,,,,,,,,,,,,,,,,,,,,,,,,,,,,,,,,,,,,,,,,,,,,,,,,,,,,,
,,,,616430,001,2024-02-08_10h04.09.711,fluency,2022.2.4,Win32,60.24096386,,,,,,,,,,,,,,,,,,,,,,,9,3,img/B03_09.jpg,MF,Press J if the face is MALE and K if the face is FEMALE, ,JK,,,,,,,,,,,,,,,,,,,,,,,,,,,,,,,,,,,,,,,,,,,,,,875.6875,0,50,50,31,1,109,0,0,0,0,1,98,,,,,,,,,,,,,,,,,,,,,,,,,,,,,,,,,,,,,,,,,,,,,,,,,,,,,,,,,,,,,,,,,,,,,,,,,,
,,,,616430,001,2024-02-08_10h04.09.711,fluency,2022.2.4,Win32,60.24096386,,,,,,,,,,,,,,,,,,,,,,,,,,,,,,,,,,,,,,,,,,,,,,,,,,,,,,,,,,,,,,,,,,,,,,,,,,,,,,,,,,0,0,0,0,1,,"[""k""]",[1.11099999999999],1,"[""k""]",[1.1109000000059268],,,,,,,,,,,,,,,,,,,,,,,,,,,,,,,,,,,,,,,,,,,,,,,,,,,,,,,,,,,,,,,,,,,,,
,,,,616430,001,2024-02-08_10h04.09.711,fluency,2022.2.4,Win32,60.24096386,,,,,,,,,,,,,,,,,,,,,,,9,3,img/B03_09.jpg,MF,Press J if the face is MALE and K if the face is FEMALE, ,JK,,,,,,,,,,,,,,,,,,,,,,,,,,,,,,,,6,1.1491,,,,,,,,,,,,,,0,50,50,31,1,,,,,,,,,,,,,space,0.6176,,,,,,,,,,,,,,,,,,,,,,,,,,,,,,,,,,,,,,,,,,,,,,,,,,,,,,,,,,,,,,,,,,,
,,,,616430,001,2024-02-08_10h04.09.711,fluency,2022.2.4,Win32,60.24096386,,,,,,,,,,,,,,,,,,,,,,,4,8,img/B08_04.jpg,MF,Press J if the face is MALE and K if the face is FEMALE, ,JK,,,,,,,,,,,,,,,,,,,,,,,,,,,,,,,,,,,,,,,,,,,,,,882.5358,0,51,51,81,1,109,0,0,0,0,1,98,,,,,,,,,,,,,,,,,,,,,,,,,,,,,,,,,,,,,,,,,,,,,,,,,,,,,,,,,,,,,,,,,,,,,,,,,,
,,,,616430,001,2024-02-08_10h04.09.711,fluency,2022.2.4,Win32,60.24096386,,,,,,,,,,,,,,,,,,,,,,,,,,,,,,,,,,,,,,,,,,,,,,,,,,,,,,,,,,,,,,,,,,,,,,,,,,,,,,,,,,0,0,0,0,1,,"[""k""]",[1.2565999999940232],1,"[""k""]",[1.25649999999996],,,,,,,,,,,,,,,,,,,,,,,,,,,,,,,,,,,,,,,,,,,,,,,,,,,,,,,,,,,,,,,,,,,,,
,,,,616430,001,2024-02-08_10h04.09.711,fluency,2022.2.4,Win32,60.24096386,,,,,,,,,,,,,,,,,,,,,,,4,8,img/B08_04.jpg,MF,Press J if the face is MALE and K if the face is FEMALE, ,JK,,,,,,,,,,,,,,,,,,,,,,,,,,,,,,,,6,0.6318,,,,,,,,,,,,,,0,51,51,81,1,,,,,,,,,,,,,space,0.6206,,,,,,,,,,,,,,,,,,,,,,,,,,,,,,,,,,,,,,,,,,,,,,,,,,,,,,,,,,,,,,,,,,,
,,,,616430,001,2024-02-08_10h04.09.711,fluency,2022.2.4,Win32,60.24096386,,,,,,,,,,,,,,,,,,,,,,,1,4,img/B04_01.jpg,MF,Press J if the face is MALE and K if the face is FEMALE, ,JK,,,,,,,,,,,,,,,,,,,,,,,,,,,,,,,,,,,,,,,,,,,,,,888.8518,0,52,52,34,1,109,0,0,0,0,1,98,,,,,,,,,,,,,,,,,,,,,,,,,,,,,,,,,,,,,,,,,,,,,,,,,,,,,,,,,,,,,,,,,,,,,,,,,,
,,,,616430,001,2024-02-08_10h04.09.711,fluency,2022.2.4,Win32,60.24096386,,,,,,,,,,,,,,,,,,,,,,,,,,,,,,,,,,,,,,,,,,,,,,,,,,,,,,,,,,,,,,,,,,,,,,,,,,,,,,,,,,0,0,0,0,1,,"[""j""]",[1.1526999999880445],1,"[""j""]",[1.1525999999939813],,,,,,,,,,,,,,,,,,,,,,,,,,,,,,,,,,,,,,,,,,,,,,,,,,,,,,,,,,,,,,,,,,,,,
,,,,616430,001,2024-02-08_10h04.09.711,fluency,2022.2.4,Win32,60.24096386,,,,,,,,,,,,,,,,,,,,,,,1,4,img/B04_01.jpg,MF,Press J if the face is MALE and K if the face is FEMALE, ,JK,,,,,,,,,,,,,,,,,,,,,,,,,,,,,,,,7,1.0975,,,,,,,,,,,,,,0,52,52,34,1,,,,,,,,,,,,,space,0.6341,,,,,,,,,,,,,,,,,,,,,,,,,,,,,,,,,,,,,,,,,,,,,,,,,,,,,,,,,,,,,,,,,,,
,,,,616430,001,2024-02-08_10h04.09.711,fluency,2022.2.4,Win32,60.24096386,,,,,,,,,,,,,,,,,,,,,,,10,8,img/B08_10.jpg,MF,Press J if the face is MALE and K if the face is FEMALE, ,JK,,,,,,,,,,,,,,,,,,,,,,,,,,,,,,,,,,,,,,,,,,,,,,895.6514,0,53,53,87,1,109,0,0,0,0,1,98,,,,,,,,,,,,,,,,,,,,,,,,,,,,,,,,,,,,,,,,,,,,,,,,,,,,,,,,,,,,,,,,,,,,,,,,,,
,,,,616430,001,2024-02-08_10h04.09.711,fluency,2022.2.4,Win32,60.24096386,,,,,,,,,,,,,,,,,,,,,,,,,,,,,,,,,,,,,,,,,,,,,,,,,,,,,,,,,,,,,,,,,,,,,,,,,,,,,,,,,,0,0,0,0,1,,"[""j""]",[1.1848000000119328],1,"[""j""]",[1.1847999999821468],,,,,,,,,,,,,,,,,,,,,,,,,,,,,,,,,,,,,,,,,,,,,,,,,,,,,,,,,,,,,,,,,,,,,
,,,,616430,001,2024-02-08_10h04.09.711,fluency,2022.2.4,Win32,60.24096386,,,,,,,,,,,,,,,,,,,,,,,10,8,img/B08_10.jpg,MF,Press J if the face is MALE and K if the face is FEMALE, ,JK,,,,,,,,,,,,,,,,,,,,,,,,,,,,,,,,5,1.1119,,,,,,,,,,,,,,0,53,53,87,1,,,,,,,,,,,,,space,0.667,,,,,,,,,,,,,,,,,,,,,,,,,,,,,,,,,,,,,,,,,,,,,,,,,,,,,,,,,,,,,,,,,,,
,,,,616430,001,2024-02-08_10h04.09.711,fluency,2022.2.4,Win32,60.24096386,,,,,,,,,,,,,,,,,,,,,,,10,2,img/B02_10.jpg,MF,Press J if the face is MALE and K if the face is FEMALE, ,JK,,,,,,,,,,,,,,,,,,,,,,,,,,,,,,,,,,,,,,,,,,,,,,901.4849,0,54,54,21,1,109,0,0,0,0,1,98,,,,,,,,,,,,,,,,,,,,,,,,,,,,,,,,,,,,,,,,,,,,,,,,,,,,,,,,,,,,,,,,,,,,,,,,,,
,,,,616430,001,2024-02-08_10h04.09.711,fluency,2022.2.4,Win32,60.24096386,,,,,,,,,,,,,,,,,,,,,,,,,,,,,,,,,,,,,,,,,,,,,,,,,,,,,,,,,,,,,,,,,,,,,,,,,,,,,,,,,,0,0,0,0,1,,"[""k""]",[1.051599999994096],1,"[""k""]",[1.0515000000000327],,,,,,,,,,,,,,,,,,,,,,,,,,,,,,,,,,,,,,,,,,,,,,,,,,,,,,,,,,,,,,,,,,,,,
,,,,616430,001,2024-02-08_10h04.09.711,fluency,2022.2.4,Win32,60.24096386,,,,,,,,,,,,,,,,,,,,,,,10,2,img/B02_10.jpg,MF,Press J if the face is MALE and K if the face is FEMALE, ,JK,,,,,,,,,,,,,,,,,,,,,,,,,,,,,,,,8,0.9499,,,,,,,,,,,,,,0,54,54,21,1,,,,,,,,,,,,,space,0.6692,,,,,,,,,,,,,,,,,,,,,,,,,,,,,,,,,,,,,,,,,,,,,,,,,,,,,,,,,,,,,,,,,,,
,,,,616430,001,2024-02-08_10h04.09.711,fluency,2022.2.4,Win32,60.24096386,,,,,,,,,,,,,,,,,,,,,,,6,8,img/B08_06.jpg,MF,Press J if the face is MALE and K if the face is FEMALE, ,JK,,,,,,,,,,,,,,,,,,,,,,,,,,,,,,,,,,,,,,,,,,,,,,907.1676,0,55,55,83,1,109,0,0,0,0,1,98,,,,,,,,,,,,,,,,,,,,,,,,,,,,,,,,,,,,,,,,,,,,,,,,,,,,,,,,,,,,,,,,,,,,,,,,,,
,,,,616430,001,2024-02-08_10h04.09.711,fluency,2022.2.4,Win32,60.24096386,,,,,,,,,,,,,,,,,,,,,,,,,,,,,,,,,,,,,,,,,,,,,,,,,,,,,,,,,,,,,,,,,,,,,,,,,,,,,,,,,,0,0,0,0,1,,"[""j""]",[1.0480000000000018],1,"[""j""]",[1.0479000000060523],,,,,,,,,,,,,,,,,,,,,,,,,,,,,,,,,,,,,,,,,,,,,,,,,,,,,,,,,,,,,,,,,,,,,
,,,,616430,001,2024-02-08_10h04.09.711,fluency,2022.2.4,Win32,60.24096386,,,,,,,,,,,,,,,,,,,,,,,6,8,img/B08_06.jpg,MF,Press J if the face is MALE and K if the face is FEMALE, ,JK,,,,,,,,,,,,,,,,,,,,,,,,,,,,,,,,7,7.7955,,,,,,,,,,,,,,0,55,55,83,1,,,,,,,,,,,,,space,0.9339,,,,,,,,,,,,,,,,,,,,,,,,,,,,,,,,,,,,,,,,,,,,,,,,,,,,,,,,,,,,,,,,,,,
,,,,616430,001,2024-02-08_10h04.09.711,fluency,2022.2.4,Win32,60.24096386,,,,,,,,,,,,,,,,,,,,,,,0,3,img/B03_00.jpg,MF,Press J if the face is MALE and K if the face is FEMALE, ,JK,,,,,,,,,,,,,,,,,,,,,,,,,,,,,,,,,,,,,,,,,,,,,,920.9828,0,56,56,22,1,109,0,0,0,0,1,98,,,,,,,,,,,,,,,,,,,,,,,,,,,,,,,,,,,,,,,,,,,,,,,,,,,,,,,,,,,,,,,,,,,,,,,,,,
,,,,616430,001,2024-02-08_10h04.09.711,fluency,2022.2.4,Win32,60.24096386,,,,,,,,,,,,,,,,,,,,,,,,,,,,,,,,,,,,,,,,,,,,,,,,,,,,,,,,,,,,,,,,,,,,,,,,,,,,,,,,,,0,0,0,0,1,,"[""j""]",[1.7671000000239019],1,"[""j""]",[1.7671000000239019],,,,,,,,,,,,,,,,,,,,,,,,,,,,,,,,,,,,,,,,,,,,,,,,,,,,,,,,,,,,,,,,,,,,,
,,,,616430,001,2024-02-08_10h04.09.711,fluency,2022.2.4,Win32,60.24096386,,,,,,,,,,,,,,,,,,,,,,,0,3,img/B03_00.jpg,MF,Press J if the face is MALE and K if the face is FEMALE, ,JK,,,,,,,,,,,,,,,,,,,,,,,,,,,,,,,,8,2.561,,,,,,,,,,,,,,0,56,56,22,1,,,,,,,,,,,,,space,1.0042,,,,,,,,,,,,,,,,,,,,,,,,,,,,,,,,,,,,,,,,,,,,,,,,,,,,,,,,,,,,,,,,,,,
,,,,616430,001,2024-02-08_10h04.09.711,fluency,2022.2.4,Win32,60.24096386,,,,,,,,,,,,,,,,,,,,,,,9,6,img/B06_09.jpg,MF,Press J if the face is MALE and K if the face is FEMALE, ,JK,,,,,,,,,,,,,,,,,,,,,,,,,,,,,,,,,,,,,,,,,,,,,,928.6321,0,57,57,64,1,109,0,0,0,0,1,98,,,,,,,,,,,,,,,,,,,,,,,,,,,,,,,,,,,,,,,,,,,,,,,,,,,,,,,,,,,,,,,,,,,,,,,,,,
,,,,616430,001,2024-02-08_10h04.09.711,fluency,2022.2.4,Win32,60.24096386,,,,,,,,,,,,,,,,,,,,,,,,,,,,,,,,,,,,,,,,,,,,,,,,,,,,,,,,,,,,,,,,,,,,,,,,,,,,,,,,,,0,0,0,0,1,,"[""k""]",[0.9338000000118427],1,"[""k""]",[0.9336999999879936],,,,,,,,,,,,,,,,,,,,,,,,,,,,,,,,,,,,,,,,,,,,,,,,,,,,,,,,,,,,,,,,,,,,,
,,,,616430,001,2024-02-08_10h04.09.711,fluency,2022.2.4,Win32,60.24096386,,,,,,,,,,,,,,,,,,,,,,,9,6,img/B06_09.jpg,MF,Press J if the face is MALE and K if the face is FEMALE, ,JK,,,,,,,,,,,,,,,,,,,,,,,,,,,,,,,,7,1.1023,,,,,,,,,,,,,,0,57,57,64,1,,,,,,,,,,,,,space,0.7316,,,,,,,,,,,,,,,,,,,,,,,,,,,,,,,,,,,,,,,,,,,,,,,,,,,,,,,,,,,,,,,,,,,
,,,,616430,001,2024-02-08_10h04.09.711,fluency,2022.2.4,Win32,60.24096386,,,,,,,,,,,,,,,,,,,,,,,5,4,img/B04_05.jpg,MF,Press J if the face is MALE and K if the face is FEMALE, ,JK,,,,,,,,,,,,,,,,,,,,,,,,,,,,,,,,,,,,,,,,,,,,,,934.5317,0,58,58,38,1,109,0,0,0,0,1,98,,,,,,,,,,,,,,,,,,,,,,,,,,,,,,,,,,,,,,,,,,,,,,,,,,,,,,,,,,,,,,,,,,,,,,,,,,
,,,,616430,001,2024-02-08_10h04.09.711,fluency,2022.2.4,Win32,60.24096386,,,,,,,,,,,,,,,,,,,,,,,,,,,,,,,,,,,,,,,,,,,,,,,,,,,,,,,,,,,,,,,,,,,,,,,,,,,,,,,,,,,,,,,,,,2,,,,,space,3.8335,0,0,0,0,1,,,,,,,,,,,,,,,,,,,,,,,,,,,,,,,,,,,,,,,,,,,,,,,,,,,,,,,,,,,,
,,,,616430,001,2024-02-08_10h04.09.711,fluency,2022.2.4,Win32,60.24096386,,,,,,,,,,,,,,,,,,,,,,,,,,,,,,,,,,,,,,,,,,,,,,,,,,,,,,,,,,,,,,,,,,,,,,,,,,,,,,,,,,0,0,0,0,1,,,,,,,,,,,,,,,,,,,,,,,,,,,,,,,,,,,,,,,,,,,,,,,,,,,,,,,,,,,,,,,,,,,,,,,,,,,
,,,,616430,001,2024-02-08_10h04.09.711,fluency,2022.2.4,Win32,60.24096386,,,,,,,,,,,,,,,,,,,,,,,5,4,img/B04_05.jpg,MF,Press J if the face is MALE and K if the face is FEMALE, ,JK,,,,,,,,,,,,,,,,,,,,,,,,,,,,,,,,,,,,,,,,,,,,,,942.4144,0,58,58,38,1,109,1,0,1,0,1,98,,,,,,,,,,,,,,,,,,,,,,,,,,,,,,,,,,,,,,,,,,,,,,,,,,,,,,,,,,,,,,,,,,,,,,,,,,
,,,,616430,001,2024-02-08_10h04.09.711,fluency,2022.2.4,Win32,60.24096386,,,,,,,,,,,,,,,,,,,,,,,,,,,,,,,,,,,,,,,,,,,,,,,,,,,,,,,,,,,,,,,,,,,,,,,,,,,,,,,,,,1,0,1,0,1,,"[""k""]",[1.6171999999880882],2,"[""k""]",[1.617099999994025],,,,,,,,,,,,,,,,,,,,,,,,,,,,,,,,,,,,,,,,,,,,,,,,,,,,,,,,,,,,,,,,,,,,,
,,,,616430,001,2024-02-08_10h04.09.711,fluency,2022.2.4,Win32,60.24096386,,,,,,,,,,,,,,,,,,,,,,,5,4,img/B04_05.jpg,MF,Press J if the face is MALE and K if the face is FEMALE, ,JK,,,,,,,,,,,,,,,,,,,,,,,,,,,,,,,,6,2.8148,,,,,,,,,,,,,,0,58,58,38,1,,,,,,,,,,,,,space,1.7032,,,,,,,,,,,,,,,,,,,,,,,,,,,,,,,,,,,,,,,,,,,,,,,,,,,,,,,,,,,,,,,,,,,
,,,,616430,001,2024-02-08_10h04.09.711,fluency,2022.2.4,Win32,60.24096386,,,,,,,,,,,,,,,,,,,,,,,0,9,img/B09_00.jpg,MF,Press J if the face is MALE and K if the face is FEMALE, ,JK,,,,,,,,,,,,,,,,,,,,,,,,,,,,,,,,,,,,,,,,,,,,,,951.9977,0,59,59,88,1,109,0,0,0,0,1,98,,,,,,,,,,,,,,,,,,,,,,,,,,,,,,,,,,,,,,,,,,,,,,,,,,,,,,,,,,,,,,,,,,,,,,,,,,
,,,,616430,001,2024-02-08_10h04.09.711,fluency,2022.2.4,Win32,60.24096386,,,,,,,,,,,,,,,,,,,,,,,,,,,,,,,,,,,,,,,,,,,,,,,,,,,,,,,,,,,,,,,,,,,,,,,,,,,,,,,,,,0,0,0,0,1,,"[""j""]",[1.2655999999940377],2,"[""j""]",[1.2654999999999745],,,,,,,,,,,,,,,,,,,,,,,,,,,,,,,,,,,,,,,,,,,,,,,,,,,,,,,,,,,,,,,,,,,,,
,,,,616430,001,2024-02-08_10h04.09.711,fluency,2022.2.4,Win32,60.24096386,,,,,,,,,,,,,,,,,,,,,,,0,9,img/B09_00.jpg,MF,Press J if the face is MALE and K if the face is FEMALE, ,JK,,,,,,,,,,,,,,,,,,,,,,,,,,,,,,,,5,3.9073,,,,,,,,,,,,,,0,59,59,88,1,,,,,,,,,,,,,space,1.1019,,,,,,,,,,,,,,,,,,,,,,,,,,,,,,,,,,,,,,,,,,,,,,,,,,,,,,,,,,,,,,,,,,,
,,,,616430,001,2024-02-08_10h04.09.711,fluency,2022.2.4,Win32,60.24096386,,,,,,,,,,,,,,,,,,,,,,,3,3,img/B03_03.jpg,MF,Press J if the face is MALE and K if the face is FEMALE, ,JK,,,,,,,,,,,,,,,,,,,,,,,,,,,,,,,,,,,,,,,,,,,,,,961.0797,0,60,60,25,1,109,0,0,0,0,1,98,,,,,,,,,,,,,,,,,,,,,,,,,,,,,,,,,,,,,,,,,,,,,,,,,,,,,,,,,,,,,,,,,,,,,,,,,,
,,,,616430,001,2024-02-08_10h04.09.711,fluency,2022.2.4,Win32,60.24096386,,,,,,,,,,,,,,,,,,,,,,,,,,,,,,,,,,,,,,,,,,,,,,,,,,,,,,,,,,,,,,,,,,,,,,,,,,,,,,,,,,0,0,0,0,1,,"[""j""]",[1.1732000000179141],2,"[""j""]",[1.173100000023851],,,,,,,,,,,,,,,,,,,,,,,,,,,,,,,,,,,,,,,,,,,,,,,,,,,,,,,,,,,,,,,,,,,,,
,,,,616430,001,2024-02-08_10h04.09.711,fluency,2022.2.4,Win32,60.24096386,,,,,,,,,,,,,,,,,,,,,,,3,3,img/B03_03.jpg,MF,Press J if the face is MALE and K if the face is FEMALE, ,JK,,,,,,,,,,,,,,,,,,,,,,,,,,,,,,,,6,1.1488,,,,,,,,,,,,,,0,60,60,25,1,,,,,,,,,,,,,space,1.3334,,,,,,,,,,,,,,,,,,,,,,,,,,,,,,,,,,,,,,,,,,,,,,,,,,,,,,,,,,,,,,,,,,,
,,,,616430,001,2024-02-08_10h04.09.711,fluency,2022.2.4,Win32,60.24096386,,,,,,,,,,,,,,,,,,,,,,,9,10,img/B10_09.jpg,MF,Press J if the face is MALE and K if the face is FEMALE, ,JK,,,,,,,,,,,,,,,,,,,,,,,,,,,,,,,,,,,,,,,,,,,,,,968.6129,0,61,61,108,1,109,0,0,0,0,1,98,,,,,,,,,,,,,,,,,,,,,,,,,,,,,,,,,,,,,,,,,,,,,,,,,,,,,,,,,,,,,,,,,,,,,,,,,,
,,,,616430,001,2024-02-08_10h04.09.711,fluency,2022.2.4,Win32,60.24096386,,,,,,,,,,,,,,,,,,,,,,,,,,,,,,,,,,,,,,,,,,,,,,,,,,,,,,,,,,,,,,,,,,,,,,,,,,,,,,,,,,0,0,0,0,1,,"[""k""]",[1.1529000000059568],2,"[""k""]",[1.1529000000059568],,,,,,,,,,,,,,,,,,,,,,,,,,,,,,,,,,,,,,,,,,,,,,,,,,,,,,,,,,,,,,,,,,,,,
,,,,616430,001,2024-02-08_10h04.09.711,fluency,2022.2.4,Win32,60.24096386,,,,,,,,,,,,,,,,,,,,,,,9,10,img/B10_09.jpg,MF,Press J if the face is MALE and K if the face is FEMALE, ,JK,,,,,,,,,,,,,,,,,,,,,,,,,,,,,,,,6,2.38,,,,,,,,,,,,,,0,61,61,108,1,,,,,,,,,,,,,space,0.8434,,,,,,,,,,,,,,,,,,,,,,,,,,,,,,,,,,,,,,,,,,,,,,,,,,,,,,,,,,,,,,,,,,,
,,,,616430,001,2024-02-08_10h04.09.711,fluency,2022.2.4,Win32,60.24096386,,,,,,,,,,,,,,,,,,,,,,,0,4,img/B04_00.jpg,MF,Press J if the face is MALE and K if the face is FEMALE, ,JK,,,,,,,,,,,,,,,,,,,,,,,,,,,,,,,,,,,,,,,,,,,,,,975.913,0,62,62,33,1,109,0,0,0,0,1,98,,,,,,,,,,,,,,,,,,,,,,,,,,,,,,,,,,,,,,,,,,,,,,,,,,,,,,,,,,,,,,,,,,,,,,,,,,
,,,,616430,001,2024-02-08_10h04.09.711,fluency,2022.2.4,Win32,60.24096386,,,,,,,,,,,,,,,,,,,,,,,,,,,,,,,,,,,,,,,,,,,,,,,,,,,,,,,,,,,,,,,,,,,,,,,,,,,,,,,,,,0,0,0,0,1,,"[""j""]",[0.9214999999999236],2,"[""j""]",[0.9214999999999236],,,,,,,,,,,,,,,,,,,,,,,,,,,,,,,,,,,,,,,,,,,,,,,,,,,,,,,,,,,,,,,,,,,,,
,,,,616430,001,2024-02-08_10h04.09.711,fluency,2022.2.4,Win32,60.24096386,,,,,,,,,,,,,,,,,,,,,,,0,4,img/B04_00.jpg,MF,Press J if the face is MALE and K if the face is FEMALE, ,JK,,,,,,,,,,,,,,,,,,,,,,,,,,,,,,,,6,1.3414,,,,,,,,,,,,,,0,62,62,33,1,,,,,,,,,,,,,space,0.804,,,,,,,,,,,,,,,,,,,,,,,,,,,,,,,,,,,,,,,,,,,,,,,,,,,,,,,,,,,,,,,,,,,
,,,,616430,001,2024-02-08_10h04.09.711,fluency,2022.2.4,Win32,60.24096386,,,,,,,,,,,,,,,,,,,,,,,4,3,img/B03_04.jpg,MF,Press J if the face is MALE and K if the face is FEMALE, ,JK,,,,,,,,,,,,,,,,,,,,,,,,,,,,,,,,,,,,,,,,,,,,,,983.1451,0,63,63,26,1,109,0,0,0,0,1,98,,,,,,,,,,,,,,,,,,,,,,,,,,,,,,,,,,,,,,,,,,,,,,,,,,,,,,,,,,,,,,,,,,,,,,,,,,
,,,,616430,001,2024-02-08_10h04.09.711,fluency,2022.2.4,Win32,60.24096386,,,,,,,,,,,,,,,,,,,,,,,,,,,,,,,,,,,,,,,,,,,,,,,,,,,,,,,,,,,,,,,,,,,,,,,,,,,,,,,,,,0,0,0,0,1,,"[""j""]",[2.236899999976231],2,"[""j""]",[2.236899999976231],,,,,,,,,,,,,,,,,,,,,,,,,,,,,,,,,,,,,,,,,,,,,,,,,,,,,,,,,,,,,,,,,,,,,
,,,,616430,001,2024-02-08_10h04.09.711,fluency,2022.2.4,Win32,60.24096386,,,,,,,,,,,,,,,,,,,,,,,4,3,img/B03_04.jpg,MF,Press J if the face is MALE and K if the face is FEMALE, ,JK,,,,,,,,,,,,,,,,,,,,,,,,,,,,,,,,6,2.368,,,,,,,,,,,,,,0,63,63,26,1,,,,,,,,,,,,,space,0.7592,,,,,,,,,,,,,,,,,,,,,,,,,,,,,,,,,,,,,,,,,,,,,,,,,,,,,,,,,,,,,,,,,,,
,,,,616430,001,2024-02-08_10h04.09.711,fluency,2022.2.4,Win32,60.24096386,,,,,,,,,,,,,,,,,,,,,,,2,9,img/B09_02.jpg,MF,Press J if the face is MALE and K if the face is FEMALE, ,JK,,,,,,,,,,,,,,,,,,,,,,,,,,,,,,,,,,,,,,,,,,,,,,991.3453,0,64,64,90,1,109,0,0,0,0,1,98,,,,,,,,,,,,,,,,,,,,,,,,,,,,,,,,,,,,,,,,,,,,,,,,,,,,,,,,,,,,,,,,,,,,,,,,,,
,,,,616430,001,2024-02-08_10h04.09.711,fluency,2022.2.4,Win32,60.24096386,,,,,,,,,,,,,,,,,,,,,,,,,,,,,,,,,,,,,,,,,,,,,,,,,,,,,,,,,,,,,,,,,,,,,,,,,,,,,,,,,,0,0,0,0,1,,"[""j""]",[1.5561000000236618],2,"[""j""]",[1.556200000017725],,,,,,,,,,,,,,,,,,,,,,,,,,,,,,,,,,,,,,,,,,,,,,,,,,,,,,,,,,,,,,,,,,,,,
,,,,616430,001,2024-02-08_10h04.09.711,fluency,2022.2.4,Win32,60.24096386,,,,,,,,,,,,,,,,,,,,,,,2,9,img/B09_02.jpg,MF,Press J if the face is MALE and K if the face is FEMALE, ,JK,,,,,,,,,,,,,,,,,,,,,,,,,,,,,,,,5,1.3987,,,,,,,,,,,,,,0,64,64,90,1,,,,,,,,,,,,,space,0.7009,,,,,,,,,,,,,,,,,,,,,,,,,,,,,,,,,,,,,,,,,,,,,,,,,,,,,,,,,,,,,,,,,,,
,,,,616430,001,2024-02-08_10h04.09.711,fluency,2022.2.4,Win32,60.24096386,,,,,,,,,,,,,,,,,,,,,,,9,9,img/B09_09.jpg,MF,Press J if the face is MALE and K if the face is FEMALE, ,JK,,,,,,,,,,,,,,,,,,,,,,,,,,,,,,,,,,,,,,,,,,,,,,998.5101,0,65,65,97,1,109,0,0,0,0,1,98,,,,,,,,,,,,,,,,,,,,,,,,,,,,,,,,,,,,,,,,,,,,,,,,,,,,,,,,,,,,,,,,,,,,,,,,,,
,,,,616430,001,2024-02-08_10h04.09.711,fluency,2022.2.4,Win32,60.24096386,,,,,,,,,,,,,,,,,,,,,,,,,,,,,,,,,,,,,,,,,,,,,,,,,,,,,,,,,,,,,,,,,,,,,,,,,,,,,,,,,,0,0,0,0,1,,"[""k""]",[1.032299999982115],2,"[""k""]",[1.032299999982115],,,,,,,,,,,,,,,,,,,,,,,,,,,,,,,,,,,,,,,,,,,,,,,,,,,,,,,,,,,,,,,,,,,,,
,,,,616430,001,2024-02-08_10h04.09.711,fluency,2022.2.4,Win32,60.24096386,,,,,,,,,,,,,,,,,,,,,,,9,9,img/B09_09.jpg,MF,Press J if the face is MALE and K if the face is FEMALE, ,JK,,,,,,,,,,,,,,,,,,,,,,,,,,,,,,,,7,1.2519,,,,,,,,,,,,,,0,65,65,97,1,,,,,,,,,,,,,space,0.6369,,,,,,,,,,,,,,,,,,,,,,,,,,,,,,,,,,,,,,,,,,,,,,,,,,,,,,,,,,,,,,,,,,,
,,,,616430,001,2024-02-08_10h04.09.711,fluency,2022.2.4,Win32,60.24096386,,,,,,,,,,,,,,,,,,,,,,,10,7,img/B07_10.jpg,MF,Press J if the face is MALE and K if the face is FEMALE, ,JK,,,,,,,,,,,,,,,,,,,,,,,,,,,,,,,,,,,,,,,,,,,,,,1004.4609,0,66,66,76,1,109,0,0,0,0,1,98,,,,,,,,,,,,,,,,,,,,,,,,,,,,,,,,,,,,,,,,,,,,,,,,,,,,,,,,,,,,,,,,,,,,,,,,,,
,,,,616430,001,2024-02-08_10h04.09.711,fluency,2022.2.4,Win32,60.24096386,,,,,,,,,,,,,,,,,,,,,,,,,,,,,,,,,,,,,,,,,,,,,,,,,,,,,,,,,,,,,,,,,,,,,,,,,,,,,,,,,,0,0,0,0,1,,"[""k""]",[0.81819999998811],2,"[""k""]",[0.81819999998811],,,,,,,,,,,,,,,,,,,,,,,,,,,,,,,,,,,,,,,,,,,,,,,,,,,,,,,,,,,,,,,,,,,,,
,,,,616430,001,2024-02-08_10h04.09.711,fluency,2022.2.4,Win32,60.24096386,,,,,,,,,,,,,,,,,,,,,,,10,7,img/B07_10.jpg,MF,Press J if the face is MALE and K if the face is FEMALE, ,JK,,,,,,,,,,,,,,,,,,,,,,,,,,,,,,,,8,1.2781,,,,,,,,,,,,,,0,66,66,76,1,,,,,,,,,,,,,space,0.7347,,,,,,,,,,,,,,,,,,,,,,,,,,,,,,,,,,,,,,,,,,,,,,,,,,,,,,,,,,,,,,,,,,,
,,,,616430,001,2024-02-08_10h04.09.711,fluency,2022.2.4,Win32,60.24096386,,,,,,,,,,,,,,,,,,,,,,,4,4,img/B04_04.jpg,MF,Press J if the face is MALE and K if the face is FEMALE, ,JK,,,,,,,,,,,,,,,,,,,,,,,,,,,,,,,,,,,,,,,,,,,,,,1010.5429,0,67,67,37,1,109,0,0,0,0,1,98,,,,,,,,,,,,,,,,,,,,,,,,,,,,,,,,,,,,,,,,,,,,,,,,,,,,,,,,,,,,,,,,,,,,,,,,,,
,,,,616430,001,2024-02-08_10h04.09.711,fluency,2022.2.4,Win32,60.24096386,,,,,,,,,,,,,,,,,,,,,,,,,,,,,,,,,,,,,,,,,,,,,,,,,,,,,,,,,,,,,,,,,,,,,,,,,,,,,,,,,,0,0,0,0,1,,"[""j""]",[1.491300000011961],2,"[""j""]",[1.4912000000178978],,,,,,,,,,,,,,,,,,,,,,,,,,,,,,,,,,,,,,,,,,,,,,,,,,,,,,,,,,,,,,,,,,,,,
,,,,616430,001,2024-02-08_10h04.09.711,fluency,2022.2.4,Win32,60.24096386,,,,,,,,,,,,,,,,,,,,,,,4,4,img/B04_04.jpg,MF,Press J if the face is MALE and K if the face is FEMALE, ,JK,,,,,,,,,,,,,,,,,,,,,,,,,,,,,,,,8,3.8466,,,,,,,,,,,,,,0,67,67,37,1,,,,,,,,,,,,,space,0.7002,,,,,,,,,,,,,,,,,,,,,,,,,,,,,,,,,,,,,,,,,,,,,,,,,,,,,,,,,,,,,,,,,,,
,,,,616430,001,2024-02-08_10h04.09.711,fluency,2022.2.4,Win32,60.24096386,,,,,,,,,,,,,,,,,,,,,,,10,5,img/B05_10.jpg,MF,Press J if the face is MALE and K if the face is FEMALE, ,JK,,,,,,,,,,,,,,,,,,,,,,,,,,,,,,,,,,,,,,,,,,,,,,1019.1588,0,68,68,54,1,109,0,0,0,0,1,98,,,,,,,,,,,,,,,,,,,,,,,,,,,,,,,,,,,,,,,,,,,,,,,,,,,,,,,,,,,,,,,,,,,,,,,,,,
,,,,616430,001,2024-02-08_10h04.09.711,fluency,2022.2.4,Win32,60.24096386,,,,,,,,,,,,,,,,,,,,,,,,,,,,,,,,,,,,,,,,,,,,,,,,,,,,,,,,,,,,,,,,,,,,,,,,,,,,,,,,,,0,0,0,0,1,,"[""k""]",[1.0995000000000346],2,"[""k""]",[1.0995000000000346],,,,,,,,,,,,,,,,,,,,,,,,,,,,,,,,,,,,,,,,,,,,,,,,,,,,,,,,,,,,,,,,,,,,,
,,,,616430,001,2024-02-08_10h04.09.711,fluency,2022.2.4,Win32,60.24096386,,,,,,,,,,,,,,,,,,,,,,,10,5,img/B05_10.jpg,MF,Press J if the face is MALE and K if the face is FEMALE, ,JK,,,,,,,,,,,,,,,,,,,,,,,,,,,,,,,,5,1.1833,,,,,,,,,,,,,,0,68,68,54,1,,,,,,,,,,,,,space,0.6007,,,,,,,,,,,,,,,,,,,,,,,,,,,,,,,,,,,,,,,,,,,,,,,,,,,,,,,,,,,,,,,,,,,
,,,,616430,001,2024-02-08_10h04.09.711,fluency,2022.2.4,Win32,60.24096386,,,,,,,,,,,,,,,,,,,,,,,6,3,img/B03_06.jpg,MF,Press J if the face is MALE and K if the face is FEMALE, ,JK,,,,,,,,,,,,,,,,,,,,,,,,,,,,,,,,,,,,,,,,,,,,,,1025.0088,0,69,69,28,1,109,0,0,0,0,1,98,,,,,,,,,,,,,,,,,,,,,,,,,,,,,,,,,,,,,,,,,,,,,,,,,,,,,,,,,,,,,,,,,,,,,,,,,,
,,,,616430,001,2024-02-08_10h04.09.711,fluency,2022.2.4,Win32,60.24096386,,,,,,,,,,,,,,,,,,,,,,,,,,,,,,,,,,,,,,,,,,,,,,,,,,,,,,,,,,,,,,,,,,,,,,,,,,,,,,,,,,0,0,0,0,1,,"[""j""]",[2.880599999994047],2,"[""j""]",[2.8804999999999836],,,,,,,,,,,,,,,,,,,,,,,,,,,,,,,,,,,,,,,,,,,,,,,,,,,,,,,,,,,,,,,,,,,,,
,,,,616430,001,2024-02-08_10h04.09.711,fluency,2022.2.4,Win32,60.24096386,,,,,,,,,,,,,,,,,,,,,,,6,3,img/B03_06.jpg,MF,Press J if the face is MALE and K if the face is FEMALE, ,JK,,,,,,,,,,,,,,,,,,,,,,,,,,,,,,,,6,2.6865,,,,,,,,,,,,,,0,69,69,28,1,,,,,,,,,,,,,space,0.6415,,,,,,,,,,,,,,,,,,,,,,,,,,,,,,,,,,,,,,,,,,,,,,,,,,,,,,,,,,,,,,,,,,,
,,,,616430,001,2024-02-08_10h04.09.711,fluency,2022.2.4,Win32,60.24096386,,,,,,,,,,,,,,,,,,,,,,,3,1,img/B01_03.jpg,MF,Press J if the face is MALE and K if the face is FEMALE, ,JK,,,,,,,,,,,,,,,,,,,,,,,,,,,,,,,,,,,,,,,,,,,,,,1033.4079,0,70,70,3,1,109,0,0,0,0,1,98,,,,,,,,,,,,,,,,,,,,,,,,,,,,,,,,,,,,,,,,,,,,,,,,,,,,,,,,,,,,,,,,,,,,,,,,,,
,,,,616430,001,2024-02-08_10h04.09.711,fluency,2022.2.4,Win32,60.24096386,,,,,,,,,,,,,,,,,,,,,,,,,,,,,,,,,,,,,,,,,,,,,,,,,,,,,,,,,,,,,,,,,,,,,,,,,,,,,,,,,,0,0,0,0,1,,"[""j""]",[1.5054000000059204],2,"[""j""]",[1.5054000000059204],,,,,,,,,,,,,,,,,,,,,,,,,,,,,,,,,,,,,,,,,,,,,,,,,,,,,,,,,,,,,,,,,,,,,
,,,,616430,001,2024-02-08_10h04.09.711,fluency,2022.2.4,Win32,60.24096386,,,,,,,,,,,,,,,,,,,,,,,3,1,img/B01_03.jpg,MF,Press J if the face is MALE and K if the face is FEMALE, ,JK,,,,,,,,,,,,,,,,,,,,,,,,,,,,,,,,6,2.1456,,,,,,,,,,,,,,0,70,70,3,1,,,,,,,,,,,,,space,0.6915,,,,,,,,,,,,,,,,,,,,,,,,,,,,,,,,,,,,,,,,,,,,,,,,,,,,,,,,,,,,,,,,,,,
,,,,616430,001,2024-02-08_10h04.09.711,fluency,2022.2.4,Win32,60.24096386,,,,,,,,,,,,,,,,,,,,,,,0,2,img/B02_00.jpg,MF,Press J if the face is MALE and K if the face is FEMALE, ,JK,,,,,,,,,,,,,,,,,,,,,,,,,,,,,,,,,,,,,,,,,,,,,,1041.291,0,71,71,11,1,109,0,0,0,0,1,98,,,,,,,,,,,,,,,,,,,,,,,,,,,,,,,,,,,,,,,,,,,,,,,,,,,,,,,,,,,,,,,,,,,,,,,,,,
,,,,616430,001,2024-02-08_10h04.09.711,fluency,2022.2.4,Win32,60.24096386,,,,,,,,,,,,,,,,,,,,,,,,,,,,,,,,,,,,,,,,,,,,,,,,,,,,,,,,,,,,,,,,,,,,,,,,,,,,,,,,,,0,0,0,0,1,,"[""j""]",[1.1172999999821513],2,"[""j""]",[1.1171999999880882],,,,,,,,,,,,,,,,,,,,,,,,,,,,,,,,,,,,,,,,,,,,,,,,,,,,,,,,,,,,,,,,,,,,,
,,,,616430,001,2024-02-08_10h04.09.711,fluency,2022.2.4,Win32,60.24096386,,,,,,,,,,,,,,,,,,,,,,,0,2,img/B02_00.jpg,MF,Press J if the face is MALE and K if the face is FEMALE, ,JK,,,,,,,,,,,,,,,,,,,,,,,,,,,,,,,,5,1.2713,,,,,,,,,,,,,,0,71,71,11,1,,,,,,,,,,,,,space,0.5987,,,,,,,,,,,,,,,,,,,,,,,,,,,,,,,,,,,,,,,,,,,,,,,,,,,,,,,,,,,,,,,,,,,
,,,,616430,001,2024-02-08_10h04.09.711,fluency,2022.2.4,Win32,60.24096386,,,,,,,,,,,,,,,,,,,,,,,9,8,img/B08_09.jpg,MF,Press J if the face is MALE and K if the face is FEMALE, ,JK,,,,,,,,,,,,,,,,,,,,,,,,,,,,,,,,,,,,,,,,,,,,,,1048.2404,0,72,72,86,1,109,0,0,0,0,1,98,,,,,,,,,,,,,,,,,,,,,,,,,,,,,,,,,,,,,,,,,,,,,,,,,,,,,,,,,,,,,,,,,,,,,,,,,,
,,,,616430,001,2024-02-08_10h04.09.711,fluency,2022.2.4,Win32,60.24096386,,,,,,,,,,,,,,,,,,,,,,,,,,,,,,,,,,,,,,,,,,,,,,,,,,,,,,,,,,,,,,,,,,,,,,,,,,,,,,,,,,0,0,0,0,1,,"[""j""]",[1.6299999999998818],2,"[""j""]",[1.6299999999998818],,,,,,,,,,,,,,,,,,,,,,,,,,,,,,,,,,,,,,,,,,,,,,,,,,,,,,,,,,,,,,,,,,,,,
,,,,616430,001,2024-02-08_10h04.09.711,fluency,2022.2.4,Win32,60.24096386,,,,,,,,,,,,,,,,,,,,,,,9,8,img/B08_09.jpg,MF,Press J if the face is MALE and K if the face is FEMALE, ,JK,,,,,,,,,,,,,,,,,,,,,,,,,,,,,,,,6,2.2294,,,,,,,,,,,,,,0,72,72,86,1,,,,,,,,,,,,,space,0.7196,,,,,,,,,,,,,,,,,,,,,,,,,,,,,,,,,,,,,,,,,,,,,,,,,,,,,,,,,,,,,,,,,,,
,,,,616430,001,2024-02-08_10h04.09.711,fluency,2022.2.4,Win32,60.24096386,,,,,,,,,,,,,,,,,,,,,,,2,6,img/B06_02.jpg,MF,Press J if the face is MALE and K if the face is FEMALE, ,JK,,,,,,,,,,,,,,,,,,,,,,,,,,,,,,,,,,,,,,,,,,,,,,1055.256,0,73,73,57,1,109,0,0,0,0,1,98,,,,,,,,,,,,,,,,,,,,,,,,,,,,,,,,,,,,,,,,,,,,,,,,,,,,,,,,,,,,,,,,,,,,,,,,,,
,,,,616430,001,2024-02-08_10h04.09.711,fluency,2022.2.4,Win32,60.24096386,,,,,,,,,,,,,,,,,,,,,,,,,,,,,,,,,,,,,,,,,,,,,,,,,,,,,,,,,,,,,,,,,,,,,,,,,,,,,,,,,,0,0,0,0,1,,"[""j""]",[1.1658000000118136],2,"[""j""]",[1.1656999999879645],,,,,,,,,,,,,,,,,,,,,,,,,,,,,,,,,,,,,,,,,,,,,,,,,,,,,,,,,,,,,,,,,,,,,
,,,,616430,001,2024-02-08_10h04.09.711,fluency,2022.2.4,Win32,60.24096386,,,,,,,,,,,,,,,,,,,,,,,2,6,img/B06_02.jpg,MF,Press J if the face is MALE and K if the face is FEMALE, ,JK,,,,,,,,,,,,,,,,,,,,,,,,,,,,,,,,5,1.1866,,,,,,,,,,,,,,0,73,73,57,1,,,,,,,,,,,,,space,0.6079,,,,,,,,,,,,,,,,,,,,,,,,,,,,,,,,,,,,,,,,,,,,,,,,,,,,,,,,,,,,,,,,,,,
,,,,616430,001,2024-02-08_10h04.09.711,fluency,2022.2.4,Win32,60.24096386,,,,,,,,,,,,,,,,,,,,,,,7,7,img/B07_07.jpg,MF,Press J if the face is MALE and K if the face is FEMALE, ,JK,,,,,,,,,,,,,,,,,,,,,,,,,,,,,,,,,,,,,,,,,,,,,,1062.1058,0,74,74,73,1,109,0,0,0,0,1,98,,,,,,,,,,,,,,,,,,,,,,,,,,,,,,,,,,,,,,,,,,,,,,,,,,,,,,,,,,,,,,,,,,,,,,,,,,
,,,,616430,001,2024-02-08_10h04.09.711,fluency,2022.2.4,Win32,60.24096386,,,,,,,,,,,,,,,,,,,,,,,,,,,,,,,,,,,,,,,,,,,,,,,,,,,,,,,,,,,,,,,,,,,,,,,,,,,,,,,,,,0,0,0,0,1,,"[""k""]",[1.0491999999881045],2,"[""k""]",[1.0493000000119537],,,,,,,,,,,,,,,,,,,,,,,,,,,,,,,,,,,,,,,,,,,,,,,,,,,,,,,,,,,,,,,,,,,,,
,,,,616430,001,2024-02-08_10h04.09.711,fluency,2022.2.4,Win32,60.24096386,,,,,,,,,,,,,,,,,,,,,,,7,7,img/B07_07.jpg,MF,Press J if the face is MALE and K if the face is FEMALE, ,JK,,,,,,,,,,,,,,,,,,,,,,,,,,,,,,,,7,0.702,,,,,,,,,,,,,,0,74,74,73,1,,,,,,,,,,,,,space,0.6083,,,,,,,,,,,,,,,,,,,,,,,,,,,,,,,,,,,,,,,,,,,,,,,,,,,,,,,,,,,,,,,,,,,
,,,,616430,001,2024-02-08_10h04.09.711,fluency,2022.2.4,Win32,60.24096386,,,,,,,,,,,,,,,,,,,,,,,6,6,img/B06_06.jpg,MF,Press J if the face is MALE and K if the face is FEMALE, ,JK,,,,,,,,,,,,,,,,,,,,,,,,,,,,,,,,,,,,,,,,,,,,,,1067.4561,0,75,75,61,1,109,0,0,0,0,1,98,,,,,,,,,,,,,,,,,,,,,,,,,,,,,,,,,,,,,,,,,,,,,,,,,,,,,,,,,,,,,,,,,,,,,,,,,,
,,,,616430,001,2024-02-08_10h04.09.711,fluency,2022.2.4,Win32,60.24096386,,,,,,,,,,,,,,,,,,,,,,,,,,,,,,,,,,,,,,,,,,,,,,,,,,,,,,,,,,,,,,,,,,,,,,,,,,,,,,,,,,0,0,0,0,1,,"[""k""]",[1.8305999999940923],2,"[""k""]",[1.830500000000029],,,,,,,,,,,,,,,,,,,,,,,,,,,,,,,,,,,,,,,,,,,,,,,,,,,,,,,,,,,,,,,,,,,,,
,,,,616430,001,2024-02-08_10h04.09.711,fluency,2022.2.4,Win32,60.24096386,,,,,,,,,,,,,,,,,,,,,,,6,6,img/B06_06.jpg,MF,Press J if the face is MALE and K if the face is FEMALE, ,JK,,,,,,,,,,,,,,,,,,,,,,,,,,,,,,,,6,1.6007,,,,,,,,,,,,,,0,75,75,61,1,,,,,,,,,,,,,space,0.7004,,,,,,,,,,,,,,,,,,,,,,,,,,,,,,,,,,,,,,,,,,,,,,,,,,,,,,,,,,,,,,,,,,,
,,,,616430,001,2024-02-08_10h04.09.711,fluency,2022.2.4,Win32,60.24096386,,,,,,,,,,,,,,,,,,,,,,,10,9,img/B09_10.jpg,MF,Press J if the face is MALE and K if the face is FEMALE, ,JK,,,,,,,,,,,,,,,,,,,,,,,,,,,,,,,,,,,,,,,,,,,,,,1074.8213,0,76,76,98,1,109,0,0,0,0,1,98,,,,,,,,,,,,,,,,,,,,,,,,,,,,,,,,,,,,,,,,,,,,,,,,,,,,,,,,,,,,,,,,,,,,,,,,,,
,,,,616430,001,2024-02-08_10h04.09.711,fluency,2022.2.4,Win32,60.24096386,,,,,,,,,,,,,,,,,,,,,,,,,,,,,,,,,,,,,,,,,,,,,,,,,,,,,,,,,,,,,,,,,,,,,,,,,,,,,,,,,,0,0,0,0,1,,"[""k""]",[1.0645999999940159],2,"[""k""]",[1.0645999999940159],,,,,,,,,,,,,,,,,,,,,,,,,,,,,,,,,,,,,,,,,,,,,,,,,,,,,,,,,,,,,,,,,,,,,
,,,,616430,001,2024-02-08_10h04.09.711,fluency,2022.2.4,Win32,60.24096386,,,,,,,,,,,,,,,,,,,,,,,10,9,img/B09_10.jpg,MF,Press J if the face is MALE and K if the face is FEMALE, ,JK,,,,,,,,,,,,,,,,,,,,,,,,,,,,,,,,8,2.5671,,,,,,,,,,,,,,0,76,76,98,1,,,,,,,,,,,,,space,1.1708,,,,,,,,,,,,,,,,,,,,,,,,,,,,,,,,,,,,,,,,,,,,,,,,,,,,,,,,,,,,,,,,,,,
,,,,616430,001,2024-02-08_10h04.09.711,fluency,2022.2.4,Win32,60.24096386,,,,,,,,,,,,,,,,,,,,,,,6,1,img/B01_06.jpg,MF,Press J if the face is MALE and K if the face is FEMALE, ,JK,,,,,,,,,,,,,,,,,,,,,,,,,,,,,,,,,,,,,,,,,,,,,,1082.6379,0,77,77,6,1,109,0,0,0,0,1,98,,,,,,,,,,,,,,,,,,,,,,,,,,,,,,,,,,,,,,,,,,,,,,,,,,,,,,,,,,,,,,,,,,,,,,,,,,
,,,,616430,001,2024-02-08_10h04.09.711,fluency,2022.2.4,Win32,60.24096386,,,,,,,,,,,,,,,,,,,,,,,,,,,,,,,,,,,,,,,,,,,,,,,,,,,,,,,,,,,,,,,,,,,,,,,,,,,,,,,,,,0,0,0,0,1,,"[""k""]",[1.7056999999881555],2,"[""k""]",[1.7056999999881555],,,,,,,,,,,,,,,,,,,,,,,,,,,,,,,,,,,,,,,,,,,,,,,,,,,,,,,,,,,,,,,,,,,,,
,,,,616430,001,2024-02-08_10h04.09.711,fluency,2022.2.4,Win32,60.24096386,,,,,,,,,,,,,,,,,,,,,,,6,1,img/B01_06.jpg,MF,Press J if the face is MALE and K if the face is FEMALE, ,JK,,,,,,,,,,,,,,,,,,,,,,,,,,,,,,,,7,1.1324,,,,,,,,,,,,,,0,77,77,6,1,,,,,,,,,,,,,space,0.6504,,,,,,,,,,,,,,,,,,,,,,,,,,,,,,,,,,,,,,,,,,,,,,,,,,,,,,,,,,,,,,,,,,,
,,,,616430,001,2024-02-08_10h04.09.711,fluency,2022.2.4,Win32,60.24096386,,,,,,,,,,,,,,,,,,,,,,,4,6,img/B06_04.jpg,MF,Press J if the face is MALE and K if the face is FEMALE, ,JK,,,,,,,,,,,,,,,,,,,,,,,,,,,,,,,,,,,,,,,,,,,,,,1088.4708,0,78,78,59,1,109,0,0,0,0,1,98,,,,,,,,,,,,,,,,,,,,,,,,,,,,,,,,,,,,,,,,,,,,,,,,,,,,,,,,,,,,,,,,,,,,,,,,,,
,,,,616430,001,2024-02-08_10h04.09.711,fluency,2022.2.4,Win32,60.24096386,,,,,,,,,,,,,,,,,,,,,,,,,,,,,,,,,,,,,,,,,,,,,,,,,,,,,,,,,,,,,,,,,,,,,,,,,,,,,,,,,,0,0,0,0,1,,"[""j""]",[1.0836000000238073],2,"[""j""]",[1.0835999999940213],,,,,,,,,,,,,,,,,,,,,,,,,,,,,,,,,,,,,,,,,,,,,,,,,,,,,,,,,,,,,,,,,,,,,
,,,,616430,001,2024-02-08_10h04.09.711,fluency,2022.2.4,Win32,60.24096386,,,,,,,,,,,,,,,,,,,,,,,4,6,img/B06_04.jpg,MF,Press J if the face is MALE and K if the face is FEMALE, ,JK,,,,,,,,,,,,,,,,,,,,,,,,,,,,,,,,6,0.6402,,,,,,,,,,,,,,0,78,78,59,1,,,,,,,,,,,,,space,1.0412,,,,,,,,,,,,,,,,,,,,,,,,,,,,,,,,,,,,,,,,,,,,,,,,,,,,,,,,,,,,,,,,,,,
,,,,616430,001,2024-02-08_10h04.09.711,fluency,2022.2.4,Win32,60.24096386,,,,,,,,,,,,,,,,,,,,,,,3,4,img/B04_03.jpg,MF,Press J if the face is MALE and K if the face is FEMALE, ,JK,,,,,,,,,,,,,,,,,,,,,,,,,,,,,,,,,,,,,,,,,,,,,,1095.2207,0,79,79,36,1,109,0,0,0,0,1,98,,,,,,,,,,,,,,,,,,,,,,,,,,,,,,,,,,,,,,,,,,,,,,,,,,,,,,,,,,,,,,,,,,,,,,,,,,
,,,,616430,001,2024-02-08_10h04.09.711,fluency,2022.2.4,Win32,60.24096386,,,,,,,,,,,,,,,,,,,,,,,,,,,,,,,,,,,,,,,,,,,,,,,,,,,,,,,,,,,,,,,,,,,,,,,,,,,,,,,,,,0,0,0,0,1,,"[""j""]",[1.2055999999940923],2,"[""j""]",[1.205500000000029],,,,,,,,,,,,,,,,,,,,,,,,,,,,,,,,,,,,,,,,,,,,,,,,,,,,,,,,,,,,,,,,,,,,,
,,,,616430,001,2024-02-08_10h04.09.711,fluency,2022.2.4,Win32,60.24096386,,,,,,,,,,,,,,,,,,,,,,,3,4,img/B04_03.jpg,MF,Press J if the face is MALE and K if the face is FEMALE, ,JK,,,,,,,,,,,,,,,,,,,,,,,,,,,,,,,,8,1.4896,,,,,,,,,,,,,,0,79,79,36,1,,,,,,,,,,,,,space,0.787,,,,,,,,,,,,,,,,,,,,,,,,,,,,,,,,,,,,,,,,,,,,,,,,,,,,,,,,,,,,,,,,,,,
,,,,616430,001,2024-02-08_10h04.09.711,fluency,2022.2.4,Win32,60.24096386,,,,,,,,,,,,,,,,,,,,,,,7,10,img/B10_07.jpg,MF,Press J if the face is MALE and K if the face is FEMALE, ,JK,,,,,,,,,,,,,,,,,,,,,,,,,,,,,,,,,,,,,,,,,,,,,,1102.5536,0,80,80,106,1,109,0,0,0,0,1,98,,,,,,,,,,,,,,,,,,,,,,,,,,,,,,,,,,,,,,,,,,,,,,,,,,,,,,,,,,,,,,,,,,,,,,,,,,
,,,,616430,001,2024-02-08_10h04.09.711,fluency,2022.2.4,Win32,60.24096386,,,,,,,,,,,,,,,,,,,,,,,,,,,,,,,,,,,,,,,,,,,,,,,,,,,,,,,,,,,,,,,,,,,,,,,,,,,,,,,,,,0,0,0,0,1,,"[""k""]",[1.3209999999999127],2,"[""k""]",[1.3209999999999127],,,,,,,,,,,,,,,,,,,,,,,,,,,,,,,,,,,,,,,,,,,,,,,,,,,,,,,,,,,,,,,,,,,,,
,,,,616430,001,2024-02-08_10h04.09.711,fluency,2022.2.4,Win32,60.24096386,,,,,,,,,,,,,,,,,,,,,,,7,10,img/B10_07.jpg,MF,Press J if the face is MALE and K if the face is FEMALE, ,JK,,,,,,,,,,,,,,,,,,,,,,,,,,,,,,,,6,2.0086,,,,,,,,,,,,,,0,80,80,106,1,,,,,,,,,,,,,space,0.6989,,,,,,,,,,,,,,,,,,,,,,,,,,,,,,,,,,,,,,,,,,,,,,,,,,,,,,,,,,,,,,,,,,,
,,,,616430,001,2024-02-08_10h04.09.711,fluency,2022.2.4,Win32,60.24096386,,,,,,,,,,,,,,,,,,,,,,,5,8,img/B08_05.jpg,MF,Press J if the face is MALE and K if the face is FEMALE, ,JK,,,,,,,,,,,,,,,,,,,,,,,,,,,,,,,,,,,,,,,,,,,,,,1109.3186,0,81,81,82,1,109,0,0,0,0,1,98,,,,,,,,,,,,,,,,,,,,,,,,,,,,,,,,,,,,,,,,,,,,,,,,,,,,,,,,,,,,,,,,,,,,,,,,,,
,,,,616430,001,2024-02-08_10h04.09.711,fluency,2022.2.4,Win32,60.24096386,,,,,,,,,,,,,,,,,,,,,,,,,,,,,,,,,,,,,,,,,,,,,,,,,,,,,,,,,,,,,,,,,,,,,,,,,,,,,,,,,,0,0,0,0,1,,"[""k""]",[1.4035000000001219],2,"[""k""]",[1.4033000000119955],,,,,,,,,,,,,,,,,,,,,,,,,,,,,,,,,,,,,,,,,,,,,,,,,,,,,,,,,,,,,,,,,,,,,
,,,,616430,001,2024-02-08_10h04.09.711,fluency,2022.2.4,Win32,60.24096386,,,,,,,,,,,,,,,,,,,,,,,5,8,img/B08_05.jpg,MF,Press J if the face is MALE and K if the face is FEMALE, ,JK,,,,,,,,,,,,,,,,,,,,,,,,,,,,,,,,7,3.2143,,,,,,,,,,,,,,0,81,81,82,1,,,,,,,,,,,,,space,1.1356,,,,,,,,,,,,,,,,,,,,,,,,,,,,,,,,,,,,,,,,,,,,,,,,,,,,,,,,,,,,,,,,,,,
,,,,616430,001,2024-02-08_10h04.09.711,fluency,2022.2.4,Win32,60.24096386,,,,,,,,,,,,,,,,,,,,,,,2,3,img/B03_02.jpg,MF,Press J if the face is MALE and K if the face is FEMALE, ,JK,,,,,,,,,,,,,,,,,,,,,,,,,,,,,,,,,,,,,,,,,,,,,,1118.7353,0,82,82,24,1,109,0,0,0,0,1,98,,,,,,,,,,,,,,,,,,,,,,,,,,,,,,,,,,,,,,,,,,,,,,,,,,,,,,,,,,,,,,,,,,,,,,,,,,
,,,,616430,001,2024-02-08_10h04.09.711,fluency,2022.2.4,Win32,60.24096386,,,,,,,,,,,,,,,,,,,,,,,,,,,,,,,,,,,,,,,,,,,,,,,,,,,,,,,,,,,,,,,,,,,,,,,,,,,,,,,,,,0,0,0,0,1,,"[""j""]",[1.1038999999761927],2,"[""j""]",[1.1037999999821295],,,,,,,,,,,,,,,,,,,,,,,,,,,,,,,,,,,,,,,,,,,,,,,,,,,,,,,,,,,,,,,,,,,,,
,,,,616430,001,2024-02-08_10h04.09.711,fluency,2022.2.4,Win32,60.24096386,,,,,,,,,,,,,,,,,,,,,,,2,3,img/B03_02.jpg,MF,Press J if the face is MALE and K if the face is FEMALE, ,JK,,,,,,,,,,,,,,,,,,,,,,,,,,,,,,,,8,1.4614,,,,,,,,,,,,,,0,82,82,24,1,,,,,,,,,,,,,space,0.8842,,,,,,,,,,,,,,,,,,,,,,,,,,,,,,,,,,,,,,,,,,,,,,,,,,,,,,,,,,,,,,,,,,,
,,,,616430,001,2024-02-08_10h04.09.711,fluency,2022.2.4,Win32,60.24096386,,,,,,,,,,,,,,,,,,,,,,,4,1,img/B01_04.jpg,MF,Press J if the face is MALE and K if the face is FEMALE, ,JK,,,,,,,,,,,,,,,,,,,,,,,,,,,,,,,,,,,,,,,,,,,,,,1125.1518,0,83,83,4,1,109,0,0,0,0,1,98,,,,,,,,,,,,,,,,,,,,,,,,,,,,,,,,,,,,,,,,,,,,,,,,,,,,,,,,,,,,,,,,,,,,,,,,,,
,,,,616430,001,2024-02-08_10h04.09.711,fluency,2022.2.4,Win32,60.24096386,,,,,,,,,,,,,,,,,,,,,,,,,,,,,,,,,,,,,,,,,,,,,,,,,,,,,,,,,,,,,,,,,,,,,,,,,,,,,,,,,,,,,,,,,,3,,,,,space,1.8799,0,0,0,0,1,,,,,,,,,,,,,,,,,,,,,,,,,,,,,,,,,,,,,,,,,,,,,,,,,,,,,,,,,,,,
,,,,616430,001,2024-02-08_10h04.09.711,fluency,2022.2.4,Win32,60.24096386,,,,,,,,,,,,,,,,,,,,,,,,,,,,,,,,,,,,,,,,,,,,,,,,,,,,,,,,,,,,,,,,,,,,,,,,,,,,,,,,,,0,0,0,0,1,,,,,,,,,,,,,,,,,,,,,,,,,,,,,,,,,,,,,,,,,,,,,,,,,,,,,,,,,,,,,,,,,,,,,,,,,,,
,,,,616430,001,2024-02-08_10h04.09.711,fluency,2022.2.4,Win32,60.24096386,,,,,,,,,,,,,,,,,,,,,,,4,1,img/B01_04.jpg,MF,Press J if the face is MALE and K if the face is FEMALE, ,JK,,,,,,,,,,,,,,,,,,,,,,,,,,,,,,,,,,,,,,,,,,,,,,1131.0691,0,83,83,4,1,109,1,0,1,0,1,98,,,,,,,,,,,,,,,,,,,,,,,,,,,,,,,,,,,,,,,,,,,,,,,,,,,,,,,,,,,,,,,,,,,,,,,,,,
,,,,616430,001,2024-02-08_10h04.09.711,fluency,2022.2.4,Win32,60.24096386,,,,,,,,,,,,,,,,,,,,,,,,,,,,,,,,,,,,,,,,,,,,,,,,,,,,,,,,,,,,,,,,,,,,,,,,,,,,,,,,,,1,0,1,0,1,,"[""j""]",[1.571200000017825],3,"[""j""]",[1.571200000017825],,,,,,,,,,,,,,,,,,,,,,,,,,,,,,,,,,,,,,,,,,,,,,,,,,,,,,,,,,,,,,,,,,,,,
,,,,616430,001,2024-02-08_10h04.09.711,fluency,2022.2.4,Win32,60.24096386,,,,,,,,,,,,,,,,,,,,,,,4,1,img/B01_04.jpg,MF,Press J if the face is MALE and K if the face is FEMALE, ,JK,,,,,,,,,,,,,,,,,,,,,,,,,,,,,,,,5,2.7686,,,,,,,,,,,,,,0,83,83,4,1,,,,,,,,,,,,,space,0.8671,,,,,,,,,,,,,,,,,,,,,,,,,,,,,,,,,,,,,,,,,,,,,,,,,,,,,,,,,,,,,,,,,,,
,,,,616430,001,2024-02-08_10h04.09.711,fluency,2022.2.4,Win32,60.24096386,,,,,,,,,,,,,,,,,,,,,,,3,9,img/B09_03.jpg,MF,Press J if the face is MALE and K if the face is FEMALE, ,JK,,,,,,,,,,,,,,,,,,,,,,,,,,,,,,,,,,,,,,,,,,,,,,1139.7672,0,84,84,91,1,109,0,0,0,0,1,98,,,,,,,,,,,,,,,,,,,,,,,,,,,,,,,,,,,,,,,,,,,,,,,,,,,,,,,,,,,,,,,,,,,,,,,,,,
,,,,616430,001,2024-02-08_10h04.09.711,fluency,2022.2.4,Win32,60.24096386,,,,,,,,,,,,,,,,,,,,,,,,,,,,,,,,,,,,,,,,,,,,,,,,,,,,,,,,,,,,,,,,,,,,,,,,,,,,,,,,,,0,0,0,0,1,,"[""j""]",[2.537400000005846],3,"[""j""]",[2.5373000000117827],,,,,,,,,,,,,,,,,,,,,,,,,,,,,,,,,,,,,,,,,,,,,,,,,,,,,,,,,,,,,,,,,,,,,
,,,,616430,001,2024-02-08_10h04.09.711,fluency,2022.2.4,Win32,60.24096386,,,,,,,,,,,,,,,,,,,,,,,3,9,img/B09_03.jpg,MF,Press J if the face is MALE and K if the face is FEMALE, ,JK,,,,,,,,,,,,,,,,,,,,,,,,,,,,,,,,6,2.3093,,,,,,,,,,,,,,0,84,84,91,1,,,,,,,,,,,,,space,0.6686,,,,,,,,,,,,,,,,,,,,,,,,,,,,,,,,,,,,,,,,,,,,,,,,,,,,,,,,,,,,,,,,,,,
,,,,616430,001,2024-02-08_10h04.09.711,fluency,2022.2.4,Win32,60.24096386,,,,,,,,,,,,,,,,,,,,,,,6,10,img/B10_06.jpg,MF,Press J if the face is MALE and K if the face is FEMALE, ,JK,,,,,,,,,,,,,,,,,,,,,,,,,,,,,,,,,,,,,,,,,,,,,,1147.8328,0,85,85,105,1,109,0,0,0,0,1,98,,,,,,,,,,,,,,,,,,,,,,,,,,,,,,,,,,,,,,,,,,,,,,,,,,,,,,,,,,,,,,,,,,,,,,,,,,
,,,,616430,001,2024-02-08_10h04.09.711,fluency,2022.2.4,Win32,60.24096386,,,,,,,,,,,,,,,,,,,,,,,,,,,,,,,,,,,,,,,,,,,,,,,,,,,,,,,,,,,,,,,,,,,,,,,,,,,,,,,,,,0,0,0,0,1,,"[""k""]",[1.821199999988039],3,"[""k""]",[1.821199999988039],,,,,,,,,,,,,,,,,,,,,,,,,,,,,,,,,,,,,,,,,,,,,,,,,,,,,,,,,,,,,,,,,,,,,
,,,,616430,001,2024-02-08_10h04.09.711,fluency,2022.2.4,Win32,60.24096386,,,,,,,,,,,,,,,,,,,,,,,6,10,img/B10_06.jpg,MF,Press J if the face is MALE and K if the face is FEMALE, ,JK,,,,,,,,,,,,,,,,,,,,,,,,,,,,,,,,6,4.4301,,,,,,,,,,,,,,0,85,85,105,1,,,,,,,,,,,,,space,24.3421,,,,,,,,,,,,,,,,,,,,,,,,,,,,,,,,,,,,,,,,,,,,,,,,,,,,,,,,,,,,,,,,,,,
,,,,616430,001,2024-02-08_10h04.09.711,fluency,2022.2.4,Win32,60.24096386,,,,,,,,,,,,,,,,,,,,,,,1,8,img/B08_01.jpg,MF,Press J if the face is MALE and K if the face is FEMALE, ,JK,,,,,,,,,,,,,,,,,,,,,,,,,,,,,,,,,,,,,,,,,,,,,,1181.6807,0,86,86,78,1,109,0,0,0,0,1,98,,,,,,,,,,,,,,,,,,,,,,,,,,,,,,,,,,,,,,,,,,,,,,,,,,,,,,,,,,,,,,,,,,,,,,,,,,
,,,,616430,001,2024-02-08_10h04.09.711,fluency,2022.2.4,Win32,60.24096386,,,,,,,,,,,,,,,,,,,,,,,,,,,,,,,,,,,,,,,,,,,,,,,,,,,,,,,,,,,,,,,,,,,,,,,,,,,,,,,,,,0,0,0,0,1,,"[""k""]",[1.8335999999940213],3,"[""k""]",[1.8335999999940213],,,,,,,,,,,,,,,,,,,,,,,,,,,,,,,,,,,,,,,,,,,,,,,,,,,,,,,,,,,,,,,,,,,,,
,,,,616430,001,2024-02-08_10h04.09.711,fluency,2022.2.4,Win32,60.24096386,,,,,,,,,,,,,,,,,,,,,,,1,8,img/B08_01.jpg,MF,Press J if the face is MALE and K if the face is FEMALE, ,JK,,,,,,,,,,,,,,,,,,,,,,,,,,,,,,,,6,1.2322,,,,,,,,,,,,,,0,86,86,78,1,,,,,,,,,,,,,space,1.4332,,,,,,,,,,,,,,,,,,,,,,,,,,,,,,,,,,,,,,,,,,,,,,,,,,,,,,,,,,,,,,,,,,,
,,,,616430,001,2024-02-08_10h04.09.711,fluency,2022.2.4,Win32,60.24096386,,,,,,,,,,,,,,,,,,,,,,,0,10,img/B10_00.jpg,MF,Press J if the face is MALE and K if the face is FEMALE, ,JK,,,,,,,,,,,,,,,,,,,,,,,,,,,,,,,,,,,,,,,,,,,,,,1188.4131,0,87,87,99,1,109,0,0,0,0,1,98,,,,,,,,,,,,,,,,,,,,,,,,,,,,,,,,,,,,,,,,,,,,,,,,,,,,,,,,,,,,,,,,,,,,,,,,,,
,,,,616430,001,2024-02-08_10h04.09.711,fluency,2022.2.4,Win32,60.24096386,,,,,,,,,,,,,,,,,,,,,,,,,,,,,,,,,,,,,,,,,,,,,,,,,,,,,,,,,,,,,,,,,,,,,,,,,,,,,,,,,,0,0,0,0,1,,"[""j""]",[1.4115999999939959],3,"[""j""]",[1.4114999999999327],,,,,,,,,,,,,,,,,,,,,,,,,,,,,,,,,,,,,,,,,,,,,,,,,,,,,,,,,,,,,,,,,,,,,
,,,,616430,001,2024-02-08_10h04.09.711,fluency,2022.2.4,Win32,60.24096386,,,,,,,,,,,,,,,,,,,,,,,0,10,img/B10_00.jpg,MF,Press J if the face is MALE and K if the face is FEMALE, ,JK,,,,,,,,,,,,,,,,,,,,,,,,,,,,,,,,7,1.1204,,,,,,,,,,,,,,0,87,87,99,1,,,,,,,,,,,,,space,0.7166,,,,,,,,,,,,,,,,,,,,,,,,,,,,,,,,,,,,,,,,,,,,,,,,,,,,,,,,,,,,,,,,,,,
,,,,616430,001,2024-02-08_10h04.09.711,fluency,2022.2.4,Win32,60.24096386,,,,,,,,,,,,,,,,,,,,,,,5,6,img/B06_05.jpg,MF,Press J if the face is MALE and K if the face is FEMALE, ,JK,,,,,,,,,,,,,,,,,,,,,,,,,,,,,,,,,,,,,,,,,,,,,,1194.3128,0,88,88,60,1,109,0,0,0,0,1,98,,,,,,,,,,,,,,,,,,,,,,,,,,,,,,,,,,,,,,,,,,,,,,,,,,,,,,,,,,,,,,,,,,,,,,,,,,
,,,,616430,001,2024-02-08_10h04.09.711,fluency,2022.2.4,Win32,60.24096386,,,,,,,,,,,,,,,,,,,,,,,,,,,,,,,,,,,,,,,,,,,,,,,,,,,,,,,,,,,,,,,,,,,,,,,,,,,,,,,,,,0,0,0,0,1,,"[""k""]",[2.138500000000022],3,"[""k""]",[2.138500000000022],,,,,,,,,,,,,,,,,,,,,,,,,,,,,,,,,,,,,,,,,,,,,,,,,,,,,,,,,,,,,,,,,,,,,
,,,,616430,001,2024-02-08_10h04.09.711,fluency,2022.2.4,Win32,60.24096386,,,,,,,,,,,,,,,,,,,,,,,5,6,img/B06_05.jpg,MF,Press J if the face is MALE and K if the face is FEMALE, ,JK,,,,,,,,,,,,,,,,,,,,,,,,,,,,,,,,6,3.4156,,,,,,,,,,,,,,0,88,88,60,1,,,,,,,,,,,,,space,0.7492,,,,,,,,,,,,,,,,,,,,,,,,,,,,,,,,,,,,,,,,,,,,,,,,,,,,,,,,,,,,,,,,,,,
,,,,616430,001,2024-02-08_10h04.09.711,fluency,2022.2.4,Win32,60.24096386,,,,,,,,,,,,,,,,,,,,,,,3,10,img/B10_03.jpg,MF,Press J if the face is MALE and K if the face is FEMALE, ,JK,,,,,,,,,,,,,,,,,,,,,,,,,,,,,,,,,,,,,,,,,,,,,,1202.5463,0,89,89,102,1,109,0,0,0,0,1,98,,,,,,,,,,,,,,,,,,,,,,,,,,,,,,,,,,,,,,,,,,,,,,,,,,,,,,,,,,,,,,,,,,,,,,,,,,
,,,,616430,001,2024-02-08_10h04.09.711,fluency,2022.2.4,Win32,60.24096386,,,,,,,,,,,,,,,,,,,,,,,,,,,,,,,,,,,,,,,,,,,,,,,,,,,,,,,,,,,,,,,,,,,,,,,,,,,,,,,,,,0,0,0,0,1,,"[""j""]",[1.1323999999763146],3,"[""j""]",[1.1323999999763146],,,,,,,,,,,,,,,,,,,,,,,,,,,,,,,,,,,,,,,,,,,,,,,,,,,,,,,,,,,,,,,,,,,,,
,,,,616430,001,2024-02-08_10h04.09.711,fluency,2022.2.4,Win32,60.24096386,,,,,,,,,,,,,,,,,,,,,,,3,10,img/B10_03.jpg,MF,Press J if the face is MALE and K if the face is FEMALE, ,JK,,,,,,,,,,,,,,,,,,,,,,,,,,,,,,,,8,1.5343,,,,,,,,,,,,,,0,89,89,102,1,,,,,,,,,,,,,space,0.6647,,,,,,,,,,,,,,,,,,,,,,,,,,,,,,,,,,,,,,,,,,,,,,,,,,,,,,,,,,,,,,,,,,,
,,,,616430,001,2024-02-08_10h04.09.711,fluency,2022.2.4,Win32,60.24096386,,,,,,,,,,,,,,,,,,,,,,,0,8,img/B08_00.jpg,MF,Press J if the face is MALE and K if the face is FEMALE, ,JK,,,,,,,,,,,,,,,,,,,,,,,,,,,,,,,,,,,,,,,,,,,,,,1209.8276,0,90,90,77,1,109,0,0,0,0,1,98,,,,,,,,,,,,,,,,,,,,,,,,,,,,,,,,,,,,,,,,,,,,,,,,,,,,,,,,,,,,,,,,,,,,,,,,,,
,,,,616430,001,2024-02-08_10h04.09.711,fluency,2022.2.4,Win32,60.24096386,,,,,,,,,,,,,,,,,,,,,,,,,,,,,,,,,,,,,,,,,,,,,,,,,,,,,,,,,,,,,,,,,,,,,,,,,,,,,,,,,,0,0,0,0,1,,"[""k""]",[1.318200000017896],3,"[""k""]",[1.3181000000238328],,,,,,,,,,,,,,,,,,,,,,,,,,,,,,,,,,,,,,,,,,,,,,,,,,,,,,,,,,,,,,,,,,,,,
,,,,616430,001,2024-02-08_10h04.09.711,fluency,2022.2.4,Win32,60.24096386,,,,,,,,,,,,,,,,,,,,,,,0,8,img/B08_00.jpg,MF,Press J if the face is MALE and K if the face is FEMALE, ,JK,,,,,,,,,,,,,,,,,,,,,,,,,,,,,,,,6,1.0319,,,,,,,,,,,,,,0,90,90,77,1,,,,,,,,,,,,,space,0.6884,,,,,,,,,,,,,,,,,,,,,,,,,,,,,,,,,,,,,,,,,,,,,,,,,,,,,,,,,,,,,,,,,,,
,,,,616430,001,2024-02-08_10h04.09.711,fluency,2022.2.4,Win32,60.24096386,,,,,,,,,,,,,,,,,,,,,,,10,1,img/B01_10.jpg,MF,Press J if the face is MALE and K if the face is FEMALE, ,JK,,,,,,,,,,,,,,,,,,,,,,,,,,,,,,,,,,,,,,,,,,,,,,1216.594,0,91,91,10,1,109,0,0,0,0,1,98,,,,,,,,,,,,,,,,,,,,,,,,,,,,,,,,,,,,,,,,,,,,,,,,,,,,,,,,,,,,,,,,,,,,,,,,,,
,,,,616430,001,2024-02-08_10h04.09.711,fluency,2022.2.4,Win32,60.24096386,,,,,,,,,,,,,,,,,,,,,,,,,,,,,,,,,,,,,,,,,,,,,,,,,,,,,,,,,,,,,,,,,,,,,,,,,,,,,,,,,,0,0,0,0,1,,"[""k""]",[1.0987999999820204],3,"[""k""]",[1.0986999999879572],,,,,,,,,,,,,,,,,,,,,,,,,,,,,,,,,,,,,,,,,,,,,,,,,,,,,,,,,,,,,,,,,,,,,
,,,,616430,001,2024-02-08_10h04.09.711,fluency,2022.2.4,Win32,60.24096386,,,,,,,,,,,,,,,,,,,,,,,10,1,img/B01_10.jpg,MF,Press J if the face is MALE and K if the face is FEMALE, ,JK,,,,,,,,,,,,,,,,,,,,,,,,,,,,,,,,7,1.7285,,,,,,,,,,,,,,0,91,91,10,1,,,,,,,,,,,,,space,0.8505,,,,,,,,,,,,,,,,,,,,,,,,,,,,,,,,,,,,,,,,,,,,,,,,,,,,,,,,,,,,,,,,,,,
,,,,616430,001,2024-02-08_10h04.09.711,fluency,2022.2.4,Win32,60.24096386,,,,,,,,,,,,,,,,,,,,,,,5,2,img/B02_05.jpg,MF,Press J if the face is MALE and K if the face is FEMALE, ,JK,,,,,,,,,,,,,,,,,,,,,,,,,,,,,,,,,,,,,,,,,,,,,,1224.2605,0,92,92,16,1,109,0,0,0,0,1,98,,,,,,,,,,,,,,,,,,,,,,,,,,,,,,,,,,,,,,,,,,,,,,,,,,,,,,,,,,,,,,,,,,,,,,,,,,
,,,,616430,001,2024-02-08_10h04.09.711,fluency,2022.2.4,Win32,60.24096386,,,,,,,,,,,,,,,,,,,,,,,,,,,,,,,,,,,,,,,,,,,,,,,,,,,,,,,,,,,,,,,,,,,,,,,,,,,,,,,,,,0,0,0,0,1,,"[""j""]",[2.4379000000060387],3,"[""j""]",[2.4378000000119755],,,,,,,,,,,,,,,,,,,,,,,,,,,,,,,,,,,,,,,,,,,,,,,,,,,,,,,,,,,,,,,,,,,,,
,,,,616430,001,2024-02-08_10h04.09.711,fluency,2022.2.4,Win32,60.24096386,,,,,,,,,,,,,,,,,,,,,,,5,2,img/B02_05.jpg,MF,Press J if the face is MALE and K if the face is FEMALE, ,JK,,,,,,,,,,,,,,,,,,,,,,,,,,,,,,,,6,4.0834,,,,,,,,,,,,,,0,92,92,16,1,,,,,,,,,,,,,space,0.6343,,,,,,,,,,,,,,,,,,,,,,,,,,,,,,,,,,,,,,,,,,,,,,,,,,,,,,,,,,,,,,,,,,,
,,,,616430,001,2024-02-08_10h04.09.711,fluency,2022.2.4,Win32,60.24096386,,,,,,,,,,,,,,,,,,,,,,,7,2,img/B02_07.jpg,MF,Press J if the face is MALE and K if the face is FEMALE, ,JK,,,,,,,,,,,,,,,,,,,,,,,,,,,,,,,,,,,,,,,,,,,,,,1234.059,0,93,93,18,1,109,0,0,0,0,1,98,,,,,,,,,,,,,,,,,,,,,,,,,,,,,,,,,,,,,,,,,,,,,,,,,,,,,,,,,,,,,,,,,,,,,,,,,,
,,,,616430,001,2024-02-08_10h04.09.711,fluency,2022.2.4,Win32,60.24096386,,,,,,,,,,,,,,,,,,,,,,,,,,,,,,,,,,,,,,,,,,,,,,,,,,,,,,,,,,,,,,,,,,,,,,,,,,,,,,,,,,0,0,0,0,1,,"[""k""]",[0.9311999999881664],3,"[""k""]",[0.9311999999881664],,,,,,,,,,,,,,,,,,,,,,,,,,,,,,,,,,,,,,,,,,,,,,,,,,,,,,,,,,,,,,,,,,,,,
