idTextbox.text,welcomeDone.numClicks,welcomeDone.timesOn,welcomeDone.timesOff,participant,session,date,expName,psychopyVersion,OS,frameRate,consent_advance.keys,consent_advance.rt,consent_advance_2.keys,consent_advance_2.rt,consentClick.x,consentClick.y,consentClick.leftButton,consentClick.midButton,consentClick.rightButton,consentClick.time,consentClick.clicked_name,instr_advance_3.keys,instr_advance_3.rt,spec_instr_adv.keys,spec_instr_adv.rt,spec_instr_adv2.keys,spec_instr_adv2.rt,instrLoop.thisRepN,instrLoop.thisTrialN,instrLoop.thisN,instrLoop.thisIndex,instrLoop.ran,steps,fams,face_file,cond,instr,term,key_map,attnKeyResp1.keys,attnKeyResp1.rt,q1.thisRepN,q1.thisTrialN,q1.thisN,q1.thisIndex,q1.ran,attnKeyResp2.keys,attnKeyResp2.rt,q2.thisRepN,q2.thisTrialN,q2.thisN,q2.thisIndex,q2.ran,attnKeyResp3.keys,attnKeyResp3.rt,q3.thisRepN,q3.thisTrialN,q3.thisN,q3.thisIndex,q3.ran,practiceStart.keys,practiceStart.rt,practiceResp.keys,practiceResp.rt,timesRedone,practiceRepeat.thisRepN,practiceRepeat.thisTrialN,practiceRepeat.thisN,practiceRepeat.thisIndex,practiceRepeat.ran,attrRating.keys,attrRating.rt,practiceTrial.thisRepN,practiceTrial.thisTrialN,practiceTrial.thisN,practiceTrial.thisIndex,practiceTrial.ran,key_resp_3.keys,key_resp_3.rt,attnChecker.thisRepN,attnChecker.thisTrialN,attnChecker.thisN,attnChecker.thisIndex,attnChecker.ran,faceOnsetTime,trials.thisRepN,trials.thisTrialN,trials.thisN,trials.thisIndex,trials.ran,trials.order,repeat_loop.thisRepN,repeat_loop.thisTrialN,repeat_loop.thisN,repeat_loop.thisIndex,repeat_loop.ran,repeat_loop.order,catResp.keys,catResp.rt,globalTimesRedone,catAllKeys.keys,catAllKeys.rt,contResp.keys,contResp.rt,redo_keypress.keys,redo_keypress.rt,redo_feedback_loop.thisRepN,redo_feedback_loop.thisTrialN,redo_feedback_loop.thisN,redo_feedback_loop.thisIndex,redo_feedback_loop.ran,contResp_2.keys,contResp_2.rt,respQ1.response,respQ1.rt,respQ2.response,respQ2.rt,respQ3.response,respQ3.rt,respQ4.response,respQ4.rt,surveyContinue1.numClicks,surveyContinue1.timesOn,surveyContinue1.timesOff,respQ5.response,respQ5.rt,respQ6.response,respQ6.rt,respQ7.response,respQ7.rt,respQ8.response,respQ8.rt,surveyContinue2.numClicks,surveyContinue2.timesOn,surveyContinue2.timesOff,respQ9.response,respQ9.rt,respQ10.response,respQ10.rt,respQ11.response,respQ11.rt,respQ12.response,respQ12.rt,surveyContinue3.numClicks,surveyContinue3.timesOn,surveyContinue3.timesOff,respQ13.response,respQ13.rt,respQ14.response,respQ14.rt,respQ15.response,respQ15.rt,surveyContinue4.numClicks,surveyContinue4.timesOn,surveyContinue4.timesOff,respAge.response,respAge.rt,genderResp1.response,genderResp1.rt,genderResp2.text,demogexitClick.numClicks,demogexitClick.timesOn,demogexitClick.timesOff,textbox.text,openAnswerClick.numClicks,openAnswerClick.timesOn,openAnswerClick.timesOff,debriefEnd.keys,debriefEnd.rt,exitKey.keys,exitKey.rt
5dbc09abbc03131b83aeeacd,1,[5.900699999999254],[5.900699999999254],629815,001,2024-02-02_18h39.08.198,fluency,2022.2.5,Win32,60.24096386,,,,,,,,,,,,,,,,,,,,,,,,,,,,,,,,,,,,,,,,,,,,,,,,,,,,,,,,,,,,,,,,,,,,,,,,,,,,,,,,,,,,,,,,,,,,,,,,,,,,,,,,,,,,,,,,,,,,,,,,,,,,,,,,,,,,,,,,,,,,,,,,,,,,,,,,,,,,,,,,,
,,,,629815,001,2024-02-02_18h39.08.198,fluency,2022.2.5,Win32,60.24096386,space,27.7799,,,,,,,,,,,,,,,,,,,,,,,,,,,,,,,,,,,,,,,,,,,,,,,,,,,,,,,,,,,,,,,,,,,,,,,,,,,,,,,,,,,,,,,,,,,,,,,,,,,,,,,,,,,,,,,,,,,,,,,,,,,,,,,,,,,,,,,,,,,,,,,,,,,,,,,,,,,,,,,
,,,,629815,001,2024-02-02_18h39.08.198,fluency,2022.2.5,Win32,60.24096386,,,space,9.7046,,,,,,,,,,,,,,,,,,,,,,,,,,,,,,,,,,,,,,,,,,,,,,,,,,,,,,,,,,,,,,,,,,,,,,,,,,,,,,,,,,,,,,,,,,,,,,,,,,,,,,,,,,,,,,,,,,,,,,,,,,,,,,,,,,,,,,,,,,,,,,,,,,,,,,,,,,,,,
,,,,629815,001,2024-02-02_18h39.08.198,fluency,2022.2.5,Win32,60.24096386,,,,,0.32222225,-0.333333333,1,0,0,6.3781,iAgree,,,,,,,,,,,,,,,,,,,,,,,,,,,,,,,,,,,,,,,,,,,,,,,,,,,,,,,,,,,,,,,,,,,,,,,,,,,,,,,,,,,,,,,,,,,,,,,,,,,,,,,,,,,,,,,,,,,,,,,,,,,,,,,,,,,,,,,,,,,,,,,,,,,,,,
,,,,629815,001,2024-02-02_18h39.08.198,fluency,2022.2.5,Win32,60.24096386,,,,,,,,,,,,space,16.4802,,,,,,,,,,,,,,,,,,,,,,,,,,,,,,,,,,,,,,,,,,,,,,,,,,,,,,,,,,,,,,,,,,,,,,,,,,,,,,,,,,,,,,,,,,,,,,,,,,,,,,,,,,,,,,,,,,,,,,,,,,,,,,,,,,,,,,,,,,,,,,,,,,,,
,,,,629815,001,2024-02-02_18h39.08.198,fluency,2022.2.5,Win32,60.24096386,,,,,,,,,,,,,,space,20.2472,space,7.2584,0,0,0,43,1,10,4,img/B04_10.jpg,GCNB,Press J if the face is GENDER-CONFORMING and K if the face is NONBINARY,Gender-conforming means that the face appears to be a typical example of its gender. Nonbinary means that the face does not conform to any particular gender norms.,JK,,,,,,,,,,,,,,,,,,,,,,,,,,,,,,,,,,,,,,,,,,,,,,,,,,,,,,,,,,,,,,,,,,,,,,,,,,,,,,,,,,,,,,,,,,,,,,,,,,,,,,,,,,,,,,,,,,,,,,,,,,,,,,,,,,,,
,,,,629815,001,2024-02-02_18h39.08.198,fluency,2022.2.5,Win32,60.24096386,,,,,,,,,,,,,,,,,,,,,,,,,,,,,,c,5.6706,0,0,0,0,1,,,,,,,,,,,,,,,,,,,,,,,,,,,,,,,,,,,,,,,,,,,,,,,,,,,,,,,,,,,,,,,,,,,,,,,,,,,,,,,,,,,,,,,,,,,,,,,,,,,,,,,,,,,,,,,,,,,,,,,,,,,,,
,,,,629815,001,2024-02-02_18h39.08.198,fluency,2022.2.5,Win32,60.24096386,,,,,,,,,,,,,,,,,,,,,,,,,,,,,,,,,,,,,a,4.9497,0,0,0,0,1,,,,,,,,,,,,,,,,,,,,,,,,,,,,,,,,,,,,,,,,,,,,,,,,,,,,,,,,,,,,,,,,,,,,,,,,,,,,,,,,,,,,,,,,,,,,,,,,,,,,,,,,,,,,,,,,,,,,,,
,,,,629815,001,2024-02-02_18h39.08.198,fluency,2022.2.5,Win32,60.24096386,,,,,,,,,,,,,,,,,,,,,,,,,,,,,,,,,,,,,,,,,,,,c,4.3082,0,0,0,0,1,,,,,,,,,,,,,,,,,,,,,,,,,,,,,,,,,,,,,,,,,,,,,,,,,,,,,,,,,,,,,,,,,,,,,,,,,,,,,,,,,,,,,,,,,,,,,,,,,,,,,,,,,,,,,,,
,,,,629815,001,2024-02-02_18h39.08.198,fluency,2022.2.5,Win32,60.24096386,,,,,,,,,,,,,,,,,,,,,,,,,,,,,,,,,,,,,,,,,,,,,,,,,,,space,0.9224,j,2.4017,0,0,0,0,0,1,,,,,,,,,,,,,,,,,,,,,,,,,,,,,,,,,,,,,,,,,,,,,,,,,,,,,,,,,,,,,,,,,,,,,,,,,,,,,,,,,,,,,,,,,,,,,,,,,,,,,
,,,,629815,001,2024-02-02_18h39.08.198,fluency,2022.2.5,Win32,60.24096386,,,,,,,,,,,,,,,,,,,,,,,,,,,,,,,,,,,,,,,,,,,,,,,,,,,,,,,,,,,,,5,7.722,0,0,0,0,1,,,,,,,,,,,,,,,,,,,,,,,,,,,,,,,,,,,,,,,,,,,,,,,,,,,,,,,,,,,,,,,,,,,,,,,,,,,,,,,,,,,,,,,,,,,,,,
,,,,629815,001,2024-02-02_18h39.08.198,fluency,2022.2.5,Win32,60.24096386,,,,,,,,,,,,,,,,,,,,,,,,,,,,,,,,,,,,,,,,,,,,,,,,,,,,,,,,,,,,,,,,,,,,space,1.4089,0,0,0,0,1,,,,,,,,,,,,,,,,,,,,,,,,,,,,,,,,,,,,,,,,,,,,,,,,,,,,,,,,,,,,,,,,,,,,,,,,,,,,,,,,,,,,,,,
,,,,629815,001,2024-02-02_18h39.08.198,fluency,2022.2.5,Win32,60.24096386,,,,,,,,,,,,,,,,,,,,,,,8,2,img/B02_08.jpg,GCNB,Press J if the face is GENDER-CONFORMING and K if the face is NONBINARY,Gender-conforming means that the face appears to be a typical example of its gender. Nonbinary means that the face does not conform to any particular gender norms.,JK,,,,,,,,,,,,,,,,,,,,,,,,,,,,,,,,,,,,,,,,,,,,,,143.1413,0,0,0,19,1,109,0,0,0,0,1,98,,,,,,,,,,,,,,,,,,,,,,,,,,,,,,,,,,,,,,,,,,,,,,,,,,,,,,,,,,,,,,,,,,,,,,,,,,
,,,,629815,001,2024-02-02_18h39.08.198,fluency,2022.2.5,Win32,60.24096386,,,,,,,,,,,,,,,,,,,,,,,,,,,,,,,,,,,,,,,,,,,,,,,,,,,,,,,,,,,,,,,,,,,,,,,,,,,,,,,,,,0,0,0,0,1,,"[""k""]",[1.1468000000007237],0,"[""k""]",[1.1466999999992424],,,,,,,,,,,,,,,,,,,,,,,,,,,,,,,,,,,,,,,,,,,,,,,,,,,,,,,,,,,,,,,,,,,,,
,,,,629815,001,2024-02-02_18h39.08.198,fluency,2022.2.5,Win32,60.24096386,,,,,,,,,,,,,,,,,,,,,,,8,2,img/B02_08.jpg,GCNB,Press J if the face is GENDER-CONFORMING and K if the face is NONBINARY,Gender-conforming means that the face appears to be a typical example of its gender. Nonbinary means that the face does not conform to any particular gender norms.,JK,,,,,,,,,,,,,,,,,,,,,,,,,,,,,,,,7,0.4766,,,,,,,,,,,,,,0,0,0,19,1,,,,,,,,,,,,,space,1.0533,,,,,,,,,,,,,,,,,,,,,,,,,,,,,,,,,,,,,,,,,,,,,,,,,,,,,,,,,,,,,,,,,,,
,,,,629815,001,2024-02-02_18h39.08.198,fluency,2022.2.5,Win32,60.24096386,,,,,,,,,,,,,,,,,,,,,,,3,4,img/B04_03.jpg,GCNB,Press J if the face is GENDER-CONFORMING and K if the face is NONBINARY,Gender-conforming means that the face appears to be a typical example of its gender. Nonbinary means that the face does not conform to any particular gender norms.,JK,,,,,,,,,,,,,,,,,,,,,,,,,,,,,,,,,,,,,,,,,,,,,,149.7405,0,1,1,36,1,109,0,0,0,0,1,98,,,,,,,,,,,,,,,,,,,,,,,,,,,,,,,,,,,,,,,,,,,,,,,,,,,,,,,,,,,,,,,,,,,,,,,,,,
,,,,629815,001,2024-02-02_18h39.08.198,fluency,2022.2.5,Win32,60.24096386,,,,,,,,,,,,,,,,,,,,,,,,,,,,,,,,,,,,,,,,,,,,,,,,,,,,,,,,,,,,,,,,,,,,,,,,,,,,,,,,,,0,0,0,0,1,,"[""j""]",[1.3634999999999877],0,"[""j""]",[1.3634999999999877],,,,,,,,,,,,,,,,,,,,,,,,,,,,,,,,,,,,,,,,,,,,,,,,,,,,,,,,,,,,,,,,,,,,,
,,,,629815,001,2024-02-02_18h39.08.198,fluency,2022.2.5,Win32,60.24096386,,,,,,,,,,,,,,,,,,,,,,,3,4,img/B04_03.jpg,GCNB,Press J if the face is GENDER-CONFORMING and K if the face is NONBINARY,Gender-conforming means that the face appears to be a typical example of its gender. Nonbinary means that the face does not conform to any particular gender norms.,JK,,,,,,,,,,,,,,,,,,,,,,,,,,,,,,,,5,1.85,,,,,,,,,,,,,,0,1,1,36,1,,,,,,,,,,,,,space,0.6827,,,,,,,,,,,,,,,,,,,,,,,,,,,,,,,,,,,,,,,,,,,,,,,,,,,,,,,,,,,,,,,,,,,
,,,,629815,001,2024-02-02_18h39.08.198,fluency,2022.2.5,Win32,60.24096386,,,,,,,,,,,,,,,,,,,,,,,2,6,img/B06_02.jpg,GCNB,Press J if the face is GENDER-CONFORMING and K if the face is NONBINARY,Gender-conforming means that the face appears to be a typical example of its gender. Nonbinary means that the face does not conform to any particular gender norms.,JK,,,,,,,,,,,,,,,,,,,,,,,,,,,,,,,,,,,,,,,,,,,,,,157.3196,0,2,2,57,1,109,0,0,0,0,1,98,,,,,,,,,,,,,,,,,,,,,,,,,,,,,,,,,,,,,,,,,,,,,,,,,,,,,,,,,,,,,,,,,,,,,,,,,,
,,,,629815,001,2024-02-02_18h39.08.198,fluency,2022.2.5,Win32,60.24096386,,,,,,,,,,,,,,,,,,,,,,,,,,,,,,,,,,,,,,,,,,,,,,,,,,,,,,,,,,,,,,,,,,,,,,,,,,,,,,,,,,0,0,0,0,1,,"[""j""]",[1.1221000000014953],0,"[""j""]",[1.1221000000014953],,,,,,,,,,,,,,,,,,,,,,,,,,,,,,,,,,,,,,,,,,,,,,,,,,,,,,,,,,,,,,,,,,,,,
,,,,629815,001,2024-02-02_18h39.08.198,fluency,2022.2.5,Win32,60.24096386,,,,,,,,,,,,,,,,,,,,,,,2,6,img/B06_02.jpg,GCNB,Press J if the face is GENDER-CONFORMING and K if the face is NONBINARY,Gender-conforming means that the face appears to be a typical example of its gender. Nonbinary means that the face does not conform to any particular gender norms.,JK,,,,,,,,,,,,,,,,,,,,,,,,,,,,,,,,3,0.4421,,,,,,,,,,,,,,0,2,2,57,1,,,,,,,,,,,,,space,0.7984,,,,,,,,,,,,,,,,,,,,,,,,,,,,,,,,,,,,,,,,,,,,,,,,,,,,,,,,,,,,,,,,,,,
,,,,629815,001,2024-02-02_18h39.08.198,fluency,2022.2.5,Win32,60.24096386,,,,,,,,,,,,,,,,,,,,,,,5,2,img/B02_05.jpg,GCNB,Press J if the face is GENDER-CONFORMING and K if the face is NONBINARY,Gender-conforming means that the face appears to be a typical example of its gender. Nonbinary means that the face does not conform to any particular gender norms.,JK,,,,,,,,,,,,,,,,,,,,,,,,,,,,,,,,,,,,,,,,,,,,,,163.6189,0,3,3,16,1,109,0,0,0,0,1,98,,,,,,,,,,,,,,,,,,,,,,,,,,,,,,,,,,,,,,,,,,,,,,,,,,,,,,,,,,,,,,,,,,,,,,,,,,
,,,,629815,001,2024-02-02_18h39.08.198,fluency,2022.2.5,Win32,60.24096386,,,,,,,,,,,,,,,,,,,,,,,,,,,,,,,,,,,,,,,,,,,,,,,,,,,,,,,,,,,,,,,,,,,,,,,,,,,,,,,,,,0,0,0,0,1,,"[""k""]",[2.3928999999985194],0,"[""k""]",[2.3928999999985194],,,,,,,,,,,,,,,,,,,,,,,,,,,,,,,,,,,,,,,,,,,,,,,,,,,,,,,,,,,,,,,,,,,,,
,,,,629815,001,2024-02-02_18h39.08.198,fluency,2022.2.5,Win32,60.24096386,,,,,,,,,,,,,,,,,,,,,,,5,2,img/B02_05.jpg,GCNB,Press J if the face is GENDER-CONFORMING and K if the face is NONBINARY,Gender-conforming means that the face appears to be a typical example of its gender. Nonbinary means that the face does not conform to any particular gender norms.,JK,,,,,,,,,,,,,,,,,,,,,,,,,,,,,,,,5,1.0138,,,,,,,,,,,,,,0,3,3,16,1,,,,,,,,,,,,,space,0.6523,,,,,,,,,,,,,,,,,,,,,,,,,,,,,,,,,,,,,,,,,,,,,,,,,,,,,,,,,,,,,,,,,,,
,,,,629815,001,2024-02-02_18h39.08.198,fluency,2022.2.5,Win32,60.24096386,,,,,,,,,,,,,,,,,,,,,,,6,2,img/B02_06.jpg,GCNB,Press J if the face is GENDER-CONFORMING and K if the face is NONBINARY,Gender-conforming means that the face appears to be a typical example of its gender. Nonbinary means that the face does not conform to any particular gender norms.,JK,,,,,,,,,,,,,,,,,,,,,,,,,,,,,,,,,,,,,,,,,,,,,,169.3531,0,4,4,17,1,109,0,0,0,0,1,98,,,,,,,,,,,,,,,,,,,,,,,,,,,,,,,,,,,,,,,,,,,,,,,,,,,,,,,,,,,,,,,,,,,,,,,,,,
,,,,629815,001,2024-02-02_18h39.08.198,fluency,2022.2.5,Win32,60.24096386,,,,,,,,,,,,,,,,,,,,,,,,,,,,,,,,,,,,,,,,,,,,,,,,,,,,,,,,,,,,,,,,,,,,,,,,,,,,,,,,,,0,0,0,0,1,,"[""k""]",[1.136600000001465],0,"[""k""]",[1.136600000001465],,,,,,,,,,,,,,,,,,,,,,,,,,,,,,,,,,,,,,,,,,,,,,,,,,,,,,,,,,,,,,,,,,,,,
,,,,629815,001,2024-02-02_18h39.08.198,fluency,2022.2.5,Win32,60.24096386,,,,,,,,,,,,,,,,,,,,,,,6,2,img/B02_06.jpg,GCNB,Press J if the face is GENDER-CONFORMING and K if the face is NONBINARY,Gender-conforming means that the face appears to be a typical example of its gender. Nonbinary means that the face does not conform to any particular gender norms.,JK,,,,,,,,,,,,,,,,,,,,,,,,,,,,,,,,5,0.4102,,,,,,,,,,,,,,0,4,4,17,1,,,,,,,,,,,,,space,0.6086,,,,,,,,,,,,,,,,,,,,,,,,,,,,,,,,,,,,,,,,,,,,,,,,,,,,,,,,,,,,,,,,,,,
,,,,629815,001,2024-02-02_18h39.08.198,fluency,2022.2.5,Win32,60.24096386,,,,,,,,,,,,,,,,,,,,,,,7,4,img/B04_07.jpg,GCNB,Press J if the face is GENDER-CONFORMING and K if the face is NONBINARY,Gender-conforming means that the face appears to be a typical example of its gender. Nonbinary means that the face does not conform to any particular gender norms.,JK,,,,,,,,,,,,,,,,,,,,,,,,,,,,,,,,,,,,,,,,,,,,,,174.4226,0,5,5,40,1,109,0,0,0,0,1,98,,,,,,,,,,,,,,,,,,,,,,,,,,,,,,,,,,,,,,,,,,,,,,,,,,,,,,,,,,,,,,,,,,,,,,,,,,
,,,,629815,001,2024-02-02_18h39.08.198,fluency,2022.2.5,Win32,60.24096386,,,,,,,,,,,,,,,,,,,,,,,,,,,,,,,,,,,,,,,,,,,,,,,,,,,,,,,,,,,,,,,,,,,,,,,,,,,,,,,,,,,,,,,,,,1,,,,,space,1.5118,0,0,0,0,1,,,,,,,,,,,,,,,,,,,,,,,,,,,,,,,,,,,,,,,,,,,,,,,,,,,,,,,,,,,,
,,,,629815,001,2024-02-02_18h39.08.198,fluency,2022.2.5,Win32,60.24096386,,,,,,,,,,,,,,,,,,,,,,,,,,,,,,,,,,,,,,,,,,,,,,,,,,,,,,,,,,,,,,,,,,,,,,,,,,,,,,,,,,0,0,0,0,1,,,,,,,,,,,,,,,,,,,,,,,,,,,,,,,,,,,,,,,,,,,,,,,,,,,,,,,,,,,,,,,,,,,,,,,,,,,
,,,,629815,001,2024-02-02_18h39.08.198,fluency,2022.2.5,Win32,60.24096386,,,,,,,,,,,,,,,,,,,,,,,7,4,img/B04_07.jpg,GCNB,Press J if the face is GENDER-CONFORMING and K if the face is NONBINARY,Gender-conforming means that the face appears to be a typical example of its gender. Nonbinary means that the face does not conform to any particular gender norms.,JK,,,,,,,,,,,,,,,,,,,,,,,,,,,,,,,,,,,,,,,,,,,,,,180.9716,0,5,5,40,1,109,1,0,1,0,1,98,,,,,,,,,,,,,,,,,,,,,,,,,,,,,,,,,,,,,,,,,,,,,,,,,,,,,,,,,,,,,,,,,,,,,,,,,,
,,,,629815,001,2024-02-02_18h39.08.198,fluency,2022.2.5,Win32,60.24096386,,,,,,,,,,,,,,,,,,,,,,,,,,,,,,,,,,,,,,,,,,,,,,,,,,,,,,,,,,,,,,,,,,,,,,,,,,,,,,,,,,1,0,1,0,1,,"[""j""]",[0.619499999999988],1,"[""j""]",[0.619499999999988],,,,,,,,,,,,,,,,,,,,,,,,,,,,,,,,,,,,,,,,,,,,,,,,,,,,,,,,,,,,,,,,,,,,,
,,,,629815,001,2024-02-02_18h39.08.198,fluency,2022.2.5,Win32,60.24096386,,,,,,,,,,,,,,,,,,,,,,,7,4,img/B04_07.jpg,GCNB,Press J if the face is GENDER-CONFORMING and K if the face is NONBINARY,Gender-conforming means that the face appears to be a typical example of its gender. Nonbinary means that the face does not conform to any particular gender norms.,JK,,,,,,,,,,,,,,,,,,,,,,,,,,,,,,,,5,0.3935,,,,,,,,,,,,,,0,5,5,40,1,,,,,,,,,,,,,space,0.5334,,,,,,,,,,,,,,,,,,,,,,,,,,,,,,,,,,,,,,,,,,,,,,,,,,,,,,,,,,,,,,,,,,,
,,,,629815,001,2024-02-02_18h39.08.198,fluency,2022.2.5,Win32,60.24096386,,,,,,,,,,,,,,,,,,,,,,,2,2,img/B02_02.jpg,GCNB,Press J if the face is GENDER-CONFORMING and K if the face is NONBINARY,Gender-conforming means that the face appears to be a typical example of its gender. Nonbinary means that the face does not conform to any particular gender norms.,JK,,,,,,,,,,,,,,,,,,,,,,,,,,,,,,,,,,,,,,,,,,,,,,187.2713,0,6,6,13,1,109,0,0,0,0,1,98,,,,,,,,,,,,,,,,,,,,,,,,,,,,,,,,,,,,,,,,,,,,,,,,,,,,,,,,,,,,,,,,,,,,,,,,,,
,,,,629815,001,2024-02-02_18h39.08.198,fluency,2022.2.5,Win32,60.24096386,,,,,,,,,,,,,,,,,,,,,,,,,,,,,,,,,,,,,,,,,,,,,,,,,,,,,,,,,,,,,,,,,,,,,,,,,,,,,,,,,,0,0,0,0,1,,"[""j""]",[1.7373000000007721],1,"[""j""]",[1.7371999999992624],,,,,,,,,,,,,,,,,,,,,,,,,,,,,,,,,,,,,,,,,,,,,,,,,,,,,,,,,,,,,,,,,,,,,
,,,,629815,001,2024-02-02_18h39.08.198,fluency,2022.2.5,Win32,60.24096386,,,,,,,,,,,,,,,,,,,,,,,2,2,img/B02_02.jpg,GCNB,Press J if the face is GENDER-CONFORMING and K if the face is NONBINARY,Gender-conforming means that the face appears to be a typical example of its gender. Nonbinary means that the face does not conform to any particular gender norms.,JK,,,,,,,,,,,,,,,,,,,,,,,,,,,,,,,,5,0.3915,,,,,,,,,,,,,,0,6,6,13,1,,,,,,,,,,,,,space,0.4971,,,,,,,,,,,,,,,,,,,,,,,,,,,,,,,,,,,,,,,,,,,,,,,,,,,,,,,,,,,,,,,,,,,
,,,,629815,001,2024-02-02_18h39.08.198,fluency,2022.2.5,Win32,60.24096386,,,,,,,,,,,,,,,,,,,,,,,7,9,img/B09_07.jpg,GCNB,Press J if the face is GENDER-CONFORMING and K if the face is NONBINARY,Gender-conforming means that the face appears to be a typical example of its gender. Nonbinary means that the face does not conform to any particular gender norms.,JK,,,,,,,,,,,,,,,,,,,,,,,,,,,,,,,,,,,,,,,,,,,,,,192.2077,0,7,7,95,1,109,0,0,0,0,1,98,,,,,,,,,,,,,,,,,,,,,,,,,,,,,,,,,,,,,,,,,,,,,,,,,,,,,,,,,,,,,,,,,,,,,,,,,,
,,,,629815,001,2024-02-02_18h39.08.198,fluency,2022.2.5,Win32,60.24096386,,,,,,,,,,,,,,,,,,,,,,,,,,,,,,,,,,,,,,,,,,,,,,,,,,,,,,,,,,,,,,,,,,,,,,,,,,,,,,,,,,0,0,0,0,1,,"[""j""]",[0.9631000000015035],1,"[""j""]",[0.9630000000000223],,,,,,,,,,,,,,,,,,,,,,,,,,,,,,,,,,,,,,,,,,,,,,,,,,,,,,,,,,,,,,,,,,,,,
,,,,629815,001,2024-02-02_18h39.08.198,fluency,2022.2.5,Win32,60.24096386,,,,,,,,,,,,,,,,,,,,,,,7,9,img/B09_07.jpg,GCNB,Press J if the face is GENDER-CONFORMING and K if the face is NONBINARY,Gender-conforming means that the face appears to be a typical example of its gender. Nonbinary means that the face does not conform to any particular gender norms.,JK,,,,,,,,,,,,,,,,,,,,,,,,,,,,,,,,7,0.306,,,,,,,,,,,,,,0,7,7,95,1,,,,,,,,,,,,,space,0.5932,,,,,,,,,,,,,,,,,,,,,,,,,,,,,,,,,,,,,,,,,,,,,,,,,,,,,,,,,,,,,,,,,,,
,,,,629815,001,2024-02-02_18h39.08.198,fluency,2022.2.5,Win32,60.24096386,,,,,,,,,,,,,,,,,,,,,,,4,7,img/B07_04.jpg,GCNB,Press J if the face is GENDER-CONFORMING and K if the face is NONBINARY,Gender-conforming means that the face appears to be a typical example of its gender. Nonbinary means that the face does not conform to any particular gender norms.,JK,,,,,,,,,,,,,,,,,,,,,,,,,,,,,,,,,,,,,,,,,,,,,,198.1417,0,8,8,70,1,109,0,0,0,0,1,98,,,,,,,,,,,,,,,,,,,,,,,,,,,,,,,,,,,,,,,,,,,,,,,,,,,,,,,,,,,,,,,,,,,,,,,,,,
,,,,629815,001,2024-02-02_18h39.08.198,fluency,2022.2.5,Win32,60.24096386,,,,,,,,,,,,,,,,,,,,,,,,,,,,,,,,,,,,,,,,,,,,,,,,,,,,,,,,,,,,,,,,,,,,,,,,,,,,,,,,,,0,0,0,0,1,,"[""k""]",[1.4306999999992627],1,"[""k""]",[1.4306999999992627],,,,,,,,,,,,,,,,,,,,,,,,,,,,,,,,,,,,,,,,,,,,,,,,,,,,,,,,,,,,,,,,,,,,,
,,,,629815,001,2024-02-02_18h39.08.198,fluency,2022.2.5,Win32,60.24096386,,,,,,,,,,,,,,,,,,,,,,,4,7,img/B07_04.jpg,GCNB,Press J if the face is GENDER-CONFORMING and K if the face is NONBINARY,Gender-conforming means that the face appears to be a typical example of its gender. Nonbinary means that the face does not conform to any particular gender norms.,JK,,,,,,,,,,,,,,,,,,,,,,,,,,,,,,,,4,0.3456,,,,,,,,,,,,,,0,8,8,70,1,,,,,,,,,,,,,space,0.7511,,,,,,,,,,,,,,,,,,,,,,,,,,,,,,,,,,,,,,,,,,,,,,,,,,,,,,,,,,,,,,,,,,,
,,,,629815,001,2024-02-02_18h39.08.198,fluency,2022.2.5,Win32,60.24096386,,,,,,,,,,,,,,,,,,,,,,,0,2,img/B02_00.jpg,GCNB,Press J if the face is GENDER-CONFORMING and K if the face is NONBINARY,Gender-conforming means that the face appears to be a typical example of its gender. Nonbinary means that the face does not conform to any particular gender norms.,JK,,,,,,,,,,,,,,,,,,,,,,,,,,,,,,,,,,,,,,,,,,,,,,204.3121,0,9,9,11,1,109,0,0,0,0,1,98,,,,,,,,,,,,,,,,,,,,,,,,,,,,,,,,,,,,,,,,,,,,,,,,,,,,,,,,,,,,,,,,,,,,,,,,,,
,,,,629815,001,2024-02-02_18h39.08.198,fluency,2022.2.5,Win32,60.24096386,,,,,,,,,,,,,,,,,,,,,,,,,,,,,,,,,,,,,,,,,,,,,,,,,,,,,,,,,,,,,,,,,,,,,,,,,,,,,,,,,,0,0,0,0,1,,"[""j""]",[1.0986999999992406],1,"[""j""]",[1.0986999999992406],,,,,,,,,,,,,,,,,,,,,,,,,,,,,,,,,,,,,,,,,,,,,,,,,,,,,,,,,,,,,,,,,,,,,
,,,,629815,001,2024-02-02_18h39.08.198,fluency,2022.2.5,Win32,60.24096386,,,,,,,,,,,,,,,,,,,,,,,0,2,img/B02_00.jpg,GCNB,Press J if the face is GENDER-CONFORMING and K if the face is NONBINARY,Gender-conforming means that the face appears to be a typical example of its gender. Nonbinary means that the face does not conform to any particular gender norms.,JK,,,,,,,,,,,,,,,,,,,,,,,,,,,,,,,,4,0.5206,,,,,,,,,,,,,,0,9,9,11,1,,,,,,,,,,,,,space,0.2588,,,,,,,,,,,,,,,,,,,,,,,,,,,,,,,,,,,,,,,,,,,,,,,,,,,,,,,,,,,,,,,,,,,
,,,,629815,001,2024-02-02_18h39.08.198,fluency,2022.2.5,Win32,60.24096386,,,,,,,,,,,,,,,,,,,,,,,2,5,img/B05_02.jpg,GCNB,Press J if the face is GENDER-CONFORMING and K if the face is NONBINARY,Gender-conforming means that the face appears to be a typical example of its gender. Nonbinary means that the face does not conform to any particular gender norms.,JK,,,,,,,,,,,,,,,,,,,,,,,,,,,,,,,,,,,,,,,,,,,,,,210.1251,0,10,10,46,1,109,0,0,0,0,1,98,,,,,,,,,,,,,,,,,,,,,,,,,,,,,,,,,,,,,,,,,,,,,,,,,,,,,,,,,,,,,,,,,,,,,,,,,,
,,,,629815,001,2024-02-02_18h39.08.198,fluency,2022.2.5,Win32,60.24096386,,,,,,,,,,,,,,,,,,,,,,,,,,,,,,,,,,,,,,,,,,,,,,,,,,,,,,,,,,,,,,,,,,,,,,,,,,,,,,,,,,0,0,0,0,1,,"[""j""]",[1.4565999999977635],1,"[""j""]",[1.4565999999977635],,,,,,,,,,,,,,,,,,,,,,,,,,,,,,,,,,,,,,,,,,,,,,,,,,,,,,,,,,,,,,,,,,,,,
,,,,629815,001,2024-02-02_18h39.08.198,fluency,2022.2.5,Win32,60.24096386,,,,,,,,,,,,,,,,,,,,,,,2,5,img/B05_02.jpg,GCNB,Press J if the face is GENDER-CONFORMING and K if the face is NONBINARY,Gender-conforming means that the face appears to be a typical example of its gender. Nonbinary means that the face does not conform to any particular gender norms.,JK,,,,,,,,,,,,,,,,,,,,,,,,,,,,,,,,3,0.3697,,,,,,,,,,,,,,0,10,10,46,1,,,,,,,,,,,,,space,0.6486,,,,,,,,,,,,,,,,,,,,,,,,,,,,,,,,,,,,,,,,,,,,,,,,,,,,,,,,,,,,,,,,,,,
,,,,629815,001,2024-02-02_18h39.08.198,fluency,2022.2.5,Win32,60.24096386,,,,,,,,,,,,,,,,,,,,,,,5,6,img/B06_05.jpg,GCNB,Press J if the face is GENDER-CONFORMING and K if the face is NONBINARY,Gender-conforming means that the face appears to be a typical example of its gender. Nonbinary means that the face does not conform to any particular gender norms.,JK,,,,,,,,,,,,,,,,,,,,,,,,,,,,,,,,,,,,,,,,,,,,,,216.2086,0,11,11,60,1,109,0,0,0,0,1,98,,,,,,,,,,,,,,,,,,,,,,,,,,,,,,,,,,,,,,,,,,,,,,,,,,,,,,,,,,,,,,,,,,,,,,,,,,
,,,,629815,001,2024-02-02_18h39.08.198,fluency,2022.2.5,Win32,60.24096386,,,,,,,,,,,,,,,,,,,,,,,,,,,,,,,,,,,,,,,,,,,,,,,,,,,,,,,,,,,,,,,,,,,,,,,,,,,,,,,,,,0,0,0,0,1,,"[""k""]",[1.7875000000000227],1,"[""k""]",[1.7875000000000227],,,,,,,,,,,,,,,,,,,,,,,,,,,,,,,,,,,,,,,,,,,,,,,,,,,,,,,,,,,,,,,,,,,,,
,,,,629815,001,2024-02-02_18h39.08.198,fluency,2022.2.5,Win32,60.24096386,,,,,,,,,,,,,,,,,,,,,,,5,6,img/B06_05.jpg,GCNB,Press J if the face is GENDER-CONFORMING and K if the face is NONBINARY,Gender-conforming means that the face appears to be a typical example of its gender. Nonbinary means that the face does not conform to any particular gender norms.,JK,,,,,,,,,,,,,,,,,,,,,,,,,,,,,,,,2,0.3993,,,,,,,,,,,,,,0,11,11,60,1,,,,,,,,,,,,,space,0.4202,,,,,,,,,,,,,,,,,,,,,,,,,,,,,,,,,,,,,,,,,,,,,,,,,,,,,,,,,,,,,,,,,,,
,,,,629815,001,2024-02-02_18h39.08.198,fluency,2022.2.5,Win32,60.24096386,,,,,,,,,,,,,,,,,,,,,,,9,10,img/B10_09.jpg,GCNB,Press J if the face is GENDER-CONFORMING and K if the face is NONBINARY,Gender-conforming means that the face appears to be a typical example of its gender. Nonbinary means that the face does not conform to any particular gender norms.,JK,,,,,,,,,,,,,,,,,,,,,,,,,,,,,,,,,,,,,,,,,,,,,,221.0802,0,12,12,108,1,109,0,0,0,0,1,98,,,,,,,,,,,,,,,,,,,,,,,,,,,,,,,,,,,,,,,,,,,,,,,,,,,,,,,,,,,,,,,,,,,,,,,,,,
,,,,629815,001,2024-02-02_18h39.08.198,fluency,2022.2.5,Win32,60.24096386,,,,,,,,,,,,,,,,,,,,,,,,,,,,,,,,,,,,,,,,,,,,,,,,,,,,,,,,,,,,,,,,,,,,,,,,,,,,,,,,,,0,0,0,0,1,,"[""j""]",[1.2410999999978003],1,"[""j""]",[1.2410000000000423],,,,,,,,,,,,,,,,,,,,,,,,,,,,,,,,,,,,,,,,,,,,,,,,,,,,,,,,,,,,,,,,,,,,,
,,,,629815,001,2024-02-02_18h39.08.198,fluency,2022.2.5,Win32,60.24096386,,,,,,,,,,,,,,,,,,,,,,,9,10,img/B10_09.jpg,GCNB,Press J if the face is GENDER-CONFORMING and K if the face is NONBINARY,Gender-conforming means that the face appears to be a typical example of its gender. Nonbinary means that the face does not conform to any particular gender norms.,JK,,,,,,,,,,,,,,,,,,,,,,,,,,,,,,,,6,0.7179,,,,,,,,,,,,,,0,12,12,108,1,,,,,,,,,,,,,space,0.3658,,,,,,,,,,,,,,,,,,,,,,,,,,,,,,,,,,,,,,,,,,,,,,,,,,,,,,,,,,,,,,,,,,,
,,,,629815,001,2024-02-02_18h39.08.198,fluency,2022.2.5,Win32,60.24096386,,,,,,,,,,,,,,,,,,,,,,,10,5,img/B05_10.jpg,GCNB,Press J if the face is GENDER-CONFORMING and K if the face is NONBINARY,Gender-conforming means that the face appears to be a typical example of its gender. Nonbinary means that the face does not conform to any particular gender norms.,JK,,,,,,,,,,,,,,,,,,,,,,,,,,,,,,,,,,,,,,,,,,,,,,226.2324,0,13,13,54,1,109,0,0,0,0,1,98,,,,,,,,,,,,,,,,,,,,,,,,,,,,,,,,,,,,,,,,,,,,,,,,,,,,,,,,,,,,,,,,,,,,,,,,,,
,,,,629815,001,2024-02-02_18h39.08.198,fluency,2022.2.5,Win32,60.24096386,,,,,,,,,,,,,,,,,,,,,,,,,,,,,,,,,,,,,,,,,,,,,,,,,,,,,,,,,,,,,,,,,,,,,,,,,,,,,,,,,,0,0,0,0,1,,"[""j""]",[0.9261000000014974],1,"[""j""]",[0.9261999999992554],,,,,,,,,,,,,,,,,,,,,,,,,,,,,,,,,,,,,,,,,,,,,,,,,,,,,,,,,,,,,,,,,,,,,
,,,,629815,001,2024-02-02_18h39.08.198,fluency,2022.2.5,Win32,60.24096386,,,,,,,,,,,,,,,,,,,,,,,10,5,img/B05_10.jpg,GCNB,Press J if the face is GENDER-CONFORMING and K if the face is NONBINARY,Gender-conforming means that the face appears to be a typical example of its gender. Nonbinary means that the face does not conform to any particular gender norms.,JK,,,,,,,,,,,,,,,,,,,,,,,,,,,,,,,,5,0.3435,,,,,,,,,,,,,,0,13,13,54,1,,,,,,,,,,,,,space,0.3616,,,,,,,,,,,,,,,,,,,,,,,,,,,,,,,,,,,,,,,,,,,,,,,,,,,,,,,,,,,,,,,,,,,
,,,,629815,001,2024-02-02_18h39.08.198,fluency,2022.2.5,Win32,60.24096386,,,,,,,,,,,,,,,,,,,,,,,10,3,img/B03_10.jpg,GCNB,Press J if the face is GENDER-CONFORMING and K if the face is NONBINARY,Gender-conforming means that the face appears to be a typical example of its gender. Nonbinary means that the face does not conform to any particular gender norms.,JK,,,,,,,,,,,,,,,,,,,,,,,,,,,,,,,,,,,,,,,,,,,,,,231.9659,0,14,14,32,1,109,0,0,0,0,1,98,,,,,,,,,,,,,,,,,,,,,,,,,,,,,,,,,,,,,,,,,,,,,,,,,,,,,,,,,,,,,,,,,,,,,,,,,,
,,,,629815,001,2024-02-02_18h39.08.198,fluency,2022.2.5,Win32,60.24096386,,,,,,,,,,,,,,,,,,,,,,,,,,,,,,,,,,,,,,,,,,,,,,,,,,,,,,,,,,,,,,,,,,,,,,,,,,,,,,,,,,0,0,0,0,1,,"[""j""]",[0.9755999999977689],1,"[""j""]",[0.9755999999977689],,,,,,,,,,,,,,,,,,,,,,,,,,,,,,,,,,,,,,,,,,,,,,,,,,,,,,,,,,,,,,,,,,,,,
,,,,629815,001,2024-02-02_18h39.08.198,fluency,2022.2.5,Win32,60.24096386,,,,,,,,,,,,,,,,,,,,,,,10,3,img/B03_10.jpg,GCNB,Press J if the face is GENDER-CONFORMING and K if the face is NONBINARY,Gender-conforming means that the face appears to be a typical example of its gender. Nonbinary means that the face does not conform to any particular gender norms.,JK,,,,,,,,,,,,,,,,,,,,,,,,,,,,,,,,4,0.6588,,,,,,,,,,,,,,0,14,14,32,1,,,,,,,,,,,,,space,0.3085,,,,,,,,,,,,,,,,,,,,,,,,,,,,,,,,,,,,,,,,,,,,,,,,,,,,,,,,,,,,,,,,,,,
,,,,629815,001,2024-02-02_18h39.08.198,fluency,2022.2.5,Win32,60.24096386,,,,,,,,,,,,,,,,,,,,,,,8,1,img/B01_08.jpg,GCNB,Press J if the face is GENDER-CONFORMING and K if the face is NONBINARY,Gender-conforming means that the face appears to be a typical example of its gender. Nonbinary means that the face does not conform to any particular gender norms.,JK,,,,,,,,,,,,,,,,,,,,,,,,,,,,,,,,,,,,,,,,,,,,,,237.9664,0,15,15,8,1,109,0,0,0,0,1,98,,,,,,,,,,,,,,,,,,,,,,,,,,,,,,,,,,,,,,,,,,,,,,,,,,,,,,,,,,,,,,,,,,,,,,,,,,
,,,,629815,001,2024-02-02_18h39.08.198,fluency,2022.2.5,Win32,60.24096386,,,,,,,,,,,,,,,,,,,,,,,,,,,,,,,,,,,,,,,,,,,,,,,,,,,,,,,,,,,,,,,,,,,,,,,,,,,,,,,,,,0,0,0,0,1,,"[""j""]",[1.7036999999992304],1,"[""j""]",[1.7036999999992304],,,,,,,,,,,,,,,,,,,,,,,,,,,,,,,,,,,,,,,,,,,,,,,,,,,,,,,,,,,,,,,,,,,,,
,,,,629815,001,2024-02-02_18h39.08.198,fluency,2022.2.5,Win32,60.24096386,,,,,,,,,,,,,,,,,,,,,,,8,1,img/B01_08.jpg,GCNB,Press J if the face is GENDER-CONFORMING and K if the face is NONBINARY,Gender-conforming means that the face appears to be a typical example of its gender. Nonbinary means that the face does not conform to any particular gender norms.,JK,,,,,,,,,,,,,,,,,,,,,,,,,,,,,,,,4,0.7198,,,,,,,,,,,,,,0,15,15,8,1,,,,,,,,,,,,,space,0.345,,,,,,,,,,,,,,,,,,,,,,,,,,,,,,,,,,,,,,,,,,,,,,,,,,,,,,,,,,,,,,,,,,,
,,,,629815,001,2024-02-02_18h39.08.198,fluency,2022.2.5,Win32,60.24096386,,,,,,,,,,,,,,,,,,,,,,,8,3,img/B03_08.jpg,GCNB,Press J if the face is GENDER-CONFORMING and K if the face is NONBINARY,Gender-conforming means that the face appears to be a typical example of its gender. Nonbinary means that the face does not conform to any particular gender norms.,JK,,,,,,,,,,,,,,,,,,,,,,,,,,,,,,,,,,,,,,,,,,,,,,243.0691,0,16,16,30,1,109,0,0,0,0,1,98,,,,,,,,,,,,,,,,,,,,,,,,,,,,,,,,,,,,,,,,,,,,,,,,,,,,,,,,,,,,,,,,,,,,,,,,,,
,,,,629815,001,2024-02-02_18h39.08.198,fluency,2022.2.5,Win32,60.24096386,,,,,,,,,,,,,,,,,,,,,,,,,,,,,,,,,,,,,,,,,,,,,,,,,,,,,,,,,,,,,,,,,,,,,,,,,,,,,,,,,,0,0,0,0,1,,"[""j""]",[0.8760000000000332],1,"[""j""]",[0.8760000000000332],,,,,,,,,,,,,,,,,,,,,,,,,,,,,,,,,,,,,,,,,,,,,,,,,,,,,,,,,,,,,,,,,,,,,
,,,,629815,001,2024-02-02_18h39.08.198,fluency,2022.2.5,Win32,60.24096386,,,,,,,,,,,,,,,,,,,,,,,8,3,img/B03_08.jpg,GCNB,Press J if the face is GENDER-CONFORMING and K if the face is NONBINARY,Gender-conforming means that the face appears to be a typical example of its gender. Nonbinary means that the face does not conform to any particular gender norms.,JK,,,,,,,,,,,,,,,,,,,,,,,,,,,,,,,,3,0.34,,,,,,,,,,,,,,0,16,16,30,1,,,,,,,,,,,,,space,0.3446,,,,,,,,,,,,,,,,,,,,,,,,,,,,,,,,,,,,,,,,,,,,,,,,,,,,,,,,,,,,,,,,,,,
,,,,629815,001,2024-02-02_18h39.08.198,fluency,2022.2.5,Win32,60.24096386,,,,,,,,,,,,,,,,,,,,,,,5,8,img/B08_05.jpg,GCNB,Press J if the face is GENDER-CONFORMING and K if the face is NONBINARY,Gender-conforming means that the face appears to be a typical example of its gender. Nonbinary means that the face does not conform to any particular gender norms.,JK,,,,,,,,,,,,,,,,,,,,,,,,,,,,,,,,,,,,,,,,,,,,,,247.7896,0,17,17,82,1,109,0,0,0,0,1,98,,,,,,,,,,,,,,,,,,,,,,,,,,,,,,,,,,,,,,,,,,,,,,,,,,,,,,,,,,,,,,,,,,,,,,,,,,
,,,,629815,001,2024-02-02_18h39.08.198,fluency,2022.2.5,Win32,60.24096386,,,,,,,,,,,,,,,,,,,,,,,,,,,,,,,,,,,,,,,,,,,,,,,,,,,,,,,,,,,,,,,,,,,,,,,,,,,,,,,,,,0,0,0,0,1,,"[""k""]",[1.269800000000771],1,"[""k""]",[1.269800000000771],,,,,,,,,,,,,,,,,,,,,,,,,,,,,,,,,,,,,,,,,,,,,,,,,,,,,,,,,,,,,,,,,,,,,
,,,,629815,001,2024-02-02_18h39.08.198,fluency,2022.2.5,Win32,60.24096386,,,,,,,,,,,,,,,,,,,,,,,5,8,img/B08_05.jpg,GCNB,Press J if the face is GENDER-CONFORMING and K if the face is NONBINARY,Gender-conforming means that the face appears to be a typical example of its gender. Nonbinary means that the face does not conform to any particular gender norms.,JK,,,,,,,,,,,,,,,,,,,,,,,,,,,,,,,,3,0.7267,,,,,,,,,,,,,,0,17,17,82,1,,,,,,,,,,,,,space,0.6138,,,,,,,,,,,,,,,,,,,,,,,,,,,,,,,,,,,,,,,,,,,,,,,,,,,,,,,,,,,,,,,,,,,
,,,,629815,001,2024-02-02_18h39.08.198,fluency,2022.2.5,Win32,60.24096386,,,,,,,,,,,,,,,,,,,,,,,8,10,img/B10_08.jpg,GCNB,Press J if the face is GENDER-CONFORMING and K if the face is NONBINARY,Gender-conforming means that the face appears to be a typical example of its gender. Nonbinary means that the face does not conform to any particular gender norms.,JK,,,,,,,,,,,,,,,,,,,,,,,,,,,,,,,,,,,,,,,,,,,,,,254.1715,0,18,18,107,1,109,0,0,0,0,1,98,,,,,,,,,,,,,,,,,,,,,,,,,,,,,,,,,,,,,,,,,,,,,,,,,,,,,,,,,,,,,,,,,,,,,,,,,,
,,,,629815,001,2024-02-02_18h39.08.198,fluency,2022.2.5,Win32,60.24096386,,,,,,,,,,,,,,,,,,,,,,,,,,,,,,,,,,,,,,,,,,,,,,,,,,,,,,,,,,,,,,,,,,,,,,,,,,,,,,,,,,0,0,0,0,1,,"[""j""]",[1.0334999999999468],1,"[""j""]",[1.0334999999999468],,,,,,,,,,,,,,,,,,,,,,,,,,,,,,,,,,,,,,,,,,,,,,,,,,,,,,,,,,,,,,,,,,,,,
,,,,629815,001,2024-02-02_18h39.08.198,fluency,2022.2.5,Win32,60.24096386,,,,,,,,,,,,,,,,,,,,,,,8,10,img/B10_08.jpg,GCNB,Press J if the face is GENDER-CONFORMING and K if the face is NONBINARY,Gender-conforming means that the face appears to be a typical example of its gender. Nonbinary means that the face does not conform to any particular gender norms.,JK,,,,,,,,,,,,,,,,,,,,,,,,,,,,,,,,7,0.4772,,,,,,,,,,,,,,0,18,18,107,1,,,,,,,,,,,,,space,0.3648,,,,,,,,,,,,,,,,,,,,,,,,,,,,,,,,,,,,,,,,,,,,,,,,,,,,,,,,,,,,,,,,,,,
,,,,629815,001,2024-02-02_18h39.08.198,fluency,2022.2.5,Win32,60.24096386,,,,,,,,,,,,,,,,,,,,,,,8,7,img/B07_08.jpg,GCNB,Press J if the face is GENDER-CONFORMING and K if the face is NONBINARY,Gender-conforming means that the face appears to be a typical example of its gender. Nonbinary means that the face does not conform to any particular gender norms.,JK,,,,,,,,,,,,,,,,,,,,,,,,,,,,,,,,,,,,,,,,,,,,,,260.0561,0,19,19,74,1,109,0,0,0,0,1,98,,,,,,,,,,,,,,,,,,,,,,,,,,,,,,,,,,,,,,,,,,,,,,,,,,,,,,,,,,,,,,,,,,,,,,,,,,
,,,,629815,001,2024-02-02_18h39.08.198,fluency,2022.2.5,Win32,60.24096386,,,,,,,,,,,,,,,,,,,,,,,,,,,,,,,,,,,,,,,,,,,,,,,,,,,,,,,,,,,,,,,,,,,,,,,,,,,,,,,,,,0,0,0,0,1,,"[""j""]",[2.1514999999999986],1,"[""j""]",[2.151399999998546],,,,,,,,,,,,,,,,,,,,,,,,,,,,,,,,,,,,,,,,,,,,,,,,,,,,,,,,,,,,,,,,,,,,,
,,,,629815,001,2024-02-02_18h39.08.198,fluency,2022.2.5,Win32,60.24096386,,,,,,,,,,,,,,,,,,,,,,,8,7,img/B07_08.jpg,GCNB,Press J if the face is GENDER-CONFORMING and K if the face is NONBINARY,Gender-conforming means that the face appears to be a typical example of its gender. Nonbinary means that the face does not conform to any particular gender norms.,JK,,,,,,,,,,,,,,,,,,,,,,,,,,,,,,,,7,0.4226,,,,,,,,,,,,,,0,19,19,74,1,,,,,,,,,,,,,space,1.5116,,,,,,,,,,,,,,,,,,,,,,,,,,,,,,,,,,,,,,,,,,,,,,,,,,,,,,,,,,,,,,,,,,,
,,,,629815,001,2024-02-02_18h39.08.198,fluency,2022.2.5,Win32,60.24096386,,,,,,,,,,,,,,,,,,,,,,,0,10,img/B10_00.jpg,GCNB,Press J if the face is GENDER-CONFORMING and K if the face is NONBINARY,Gender-conforming means that the face appears to be a typical example of its gender. Nonbinary means that the face does not conform to any particular gender norms.,JK,,,,,,,,,,,,,,,,,,,,,,,,,,,,,,,,,,,,,,,,,,,,,,267.0371,0,20,20,99,1,109,0,0,0,0,1,98,,,,,,,,,,,,,,,,,,,,,,,,,,,,,,,,,,,,,,,,,,,,,,,,,,,,,,,,,,,,,,,,,,,,,,,,,,
,,,,629815,001,2024-02-02_18h39.08.198,fluency,2022.2.5,Win32,60.24096386,,,,,,,,,,,,,,,,,,,,,,,,,,,,,,,,,,,,,,,,,,,,,,,,,,,,,,,,,,,,,,,,,,,,,,,,,,,,,,,,,,0,0,0,0,1,,"[""j""]",[1.0562000000030025],1,"[""j""]",[1.0562000000030025],,,,,,,,,,,,,,,,,,,,,,,,,,,,,,,,,,,,,,,,,,,,,,,,,,,,,,,,,,,,,,,,,,,,,
,,,,629815,001,2024-02-02_18h39.08.198,fluency,2022.2.5,Win32,60.24096386,,,,,,,,,,,,,,,,,,,,,,,0,10,img/B10_00.jpg,GCNB,Press J if the face is GENDER-CONFORMING and K if the face is NONBINARY,Gender-conforming means that the face appears to be a typical example of its gender. Nonbinary means that the face does not conform to any particular gender norms.,JK,,,,,,,,,,,,,,,,,,,,,,,,,,,,,,,,6,0.3277,,,,,,,,,,,,,,0,20,20,99,1,,,,,,,,,,,,,space,0.3169,,,,,,,,,,,,,,,,,,,,,,,,,,,,,,,,,,,,,,,,,,,,,,,,,,,,,,,,,,,,,,,,,,,
,,,,629815,001,2024-02-02_18h39.08.198,fluency,2022.2.5,Win32,60.24096386,,,,,,,,,,,,,,,,,,,,,,,3,3,img/B03_03.jpg,GCNB,Press J if the face is GENDER-CONFORMING and K if the face is NONBINARY,Gender-conforming means that the face appears to be a typical example of its gender. Nonbinary means that the face does not conform to any particular gender norms.,JK,,,,,,,,,,,,,,,,,,,,,,,,,,,,,,,,,,,,,,,,,,,,,,271.7243,0,21,21,25,1,109,0,0,0,0,1,98,,,,,,,,,,,,,,,,,,,,,,,,,,,,,,,,,,,,,,,,,,,,,,,,,,,,,,,,,,,,,,,,,,,,,,,,,,
,,,,629815,001,2024-02-02_18h39.08.198,fluency,2022.2.5,Win32,60.24096386,,,,,,,,,,,,,,,,,,,,,,,,,,,,,,,,,,,,,,,,,,,,,,,,,,,,,,,,,,,,,,,,,,,,,,,,,,,,,,,,,,0,0,0,0,1,,"[""j""]",[1.2046999999992636],1,"[""j""]",[1.2047999999970216],,,,,,,,,,,,,,,,,,,,,,,,,,,,,,,,,,,,,,,,,,,,,,,,,,,,,,,,,,,,,,,,,,,,,
,,,,629815,001,2024-02-02_18h39.08.198,fluency,2022.2.5,Win32,60.24096386,,,,,,,,,,,,,,,,,,,,,,,3,3,img/B03_03.jpg,GCNB,Press J if the face is GENDER-CONFORMING and K if the face is NONBINARY,Gender-conforming means that the face appears to be a typical example of its gender. Nonbinary means that the face does not conform to any particular gender norms.,JK,,,,,,,,,,,,,,,,,,,,,,,,,,,,,,,,6,0.291,,,,,,,,,,,,,,0,21,21,25,1,,,,,,,,,,,,,space,0.3159,,,,,,,,,,,,,,,,,,,,,,,,,,,,,,,,,,,,,,,,,,,,,,,,,,,,,,,,,,,,,,,,,,,
,,,,629815,001,2024-02-02_18h39.08.198,fluency,2022.2.5,Win32,60.24096386,,,,,,,,,,,,,,,,,,,,,,,5,9,img/B09_05.jpg,GCNB,Press J if the face is GENDER-CONFORMING and K if the face is NONBINARY,Gender-conforming means that the face appears to be a typical example of its gender. Nonbinary means that the face does not conform to any particular gender norms.,JK,,,,,,,,,,,,,,,,,,,,,,,,,,,,,,,,,,,,,,,,,,,,,,276.3783,0,22,22,93,1,109,0,0,0,0,1,98,,,,,,,,,,,,,,,,,,,,,,,,,,,,,,,,,,,,,,,,,,,,,,,,,,,,,,,,,,,,,,,,,,,,,,,,,,
,,,,629815,001,2024-02-02_18h39.08.198,fluency,2022.2.5,Win32,60.24096386,,,,,,,,,,,,,,,,,,,,,,,,,,,,,,,,,,,,,,,,,,,,,,,,,,,,,,,,,,,,,,,,,,,,,,,,,,,,,,,,,,0,0,0,0,1,,"[""j""]",[0.4784999999999968],1,"[""j""]",[0.4784999999999968],,,,,,,,,,,,,,,,,,,,,,,,,,,,,,,,,,,,,,,,,,,,,,,,,,,,,,,,,,,,,,,,,,,,,
,,,,629815,001,2024-02-02_18h39.08.198,fluency,2022.2.5,Win32,60.24096386,,,,,,,,,,,,,,,,,,,,,,,5,9,img/B09_05.jpg,GCNB,Press J if the face is GENDER-CONFORMING and K if the face is NONBINARY,Gender-conforming means that the face appears to be a typical example of its gender. Nonbinary means that the face does not conform to any particular gender norms.,JK,,,,,,,,,,,,,,,,,,,,,,,,,,,,,,,,5,0.3453,,,,,,,,,,,,,,0,22,22,93,1,,,,,,,,,,,,,space,0.258,,,,,,,,,,,,,,,,,,,,,,,,,,,,,,,,,,,,,,,,,,,,,,,,,,,,,,,,,,,,,,,,,,,
,,,,629815,001,2024-02-02_18h39.08.198,fluency,2022.2.5,Win32,60.24096386,,,,,,,,,,,,,,,,,,,,,,,4,6,img/B06_04.jpg,GCNB,Press J if the face is GENDER-CONFORMING and K if the face is NONBINARY,Gender-conforming means that the face appears to be a typical example of its gender. Nonbinary means that the face does not conform to any particular gender norms.,JK,,,,,,,,,,,,,,,,,,,,,,,,,,,,,,,,,,,,,,,,,,,,,,281.0155,0,23,23,59,1,109,0,0,0,0,1,98,,,,,,,,,,,,,,,,,,,,,,,,,,,,,,,,,,,,,,,,,,,,,,,,,,,,,,,,,,,,,,,,,,,,,,,,,,
,,,,629815,001,2024-02-02_18h39.08.198,fluency,2022.2.5,Win32,60.24096386,,,,,,,,,,,,,,,,,,,,,,,,,,,,,,,,,,,,,,,,,,,,,,,,,,,,,,,,,,,,,,,,,,,,,,,,,,,,,,,,,,0,0,0,0,1,,"[""k""]",[1.3191000000014697],1,"[""k""]",[1.3190000000000168],,,,,,,,,,,,,,,,,,,,,,,,,,,,,,,,,,,,,,,,,,,,,,,,,,,,,,,,,,,,,,,,,,,,,
,,,,629815,001,2024-02-02_18h39.08.198,fluency,2022.2.5,Win32,60.24096386,,,,,,,,,,,,,,,,,,,,,,,4,6,img/B06_04.jpg,GCNB,Press J if the face is GENDER-CONFORMING and K if the face is NONBINARY,Gender-conforming means that the face appears to be a typical example of its gender. Nonbinary means that the face does not conform to any particular gender norms.,JK,,,,,,,,,,,,,,,,,,,,,,,,,,,,,,,,4,0.4909,,,,,,,,,,,,,,0,23,23,59,1,,,,,,,,,,,,,space,0.2998,,,,,,,,,,,,,,,,,,,,,,,,,,,,,,,,,,,,,,,,,,,,,,,,,,,,,,,,,,,,,,,,,,,
,,,,629815,001,2024-02-02_18h39.08.198,fluency,2022.2.5,Win32,60.24096386,,,,,,,,,,,,,,,,,,,,,,,5,4,img/B04_05.jpg,GCNB,Press J if the face is GENDER-CONFORMING and K if the face is NONBINARY,Gender-conforming means that the face appears to be a typical example of its gender. Nonbinary means that the face does not conform to any particular gender norms.,JK,,,,,,,,,,,,,,,,,,,,,,,,,,,,,,,,,,,,,,,,,,,,,,286.8496,0,24,24,38,1,109,0,0,0,0,1,98,,,,,,,,,,,,,,,,,,,,,,,,,,,,,,,,,,,,,,,,,,,,,,,,,,,,,,,,,,,,,,,,,,,,,,,,,,
,,,,629815,001,2024-02-02_18h39.08.198,fluency,2022.2.5,Win32,60.24096386,,,,,,,,,,,,,,,,,,,,,,,,,,,,,,,,,,,,,,,,,,,,,,,,,,,,,,,,,,,,,,,,,,,,,,,,,,,,,,,,,,0,0,0,0,1,,"[""k""]",[2.354000000000042],1,"[""k""]",[2.3540999999978],,,,,,,,,,,,,,,,,,,,,,,,,,,,,,,,,,,,,,,,,,,,,,,,,,,,,,,,,,,,,,,,,,,,,
,,,,629815,001,2024-02-02_18h39.08.198,fluency,2022.2.5,Win32,60.24096386,,,,,,,,,,,,,,,,,,,,,,,5,4,img/B04_05.jpg,GCNB,Press J if the face is GENDER-CONFORMING and K if the face is NONBINARY,Gender-conforming means that the face appears to be a typical example of its gender. Nonbinary means that the face does not conform to any particular gender norms.,JK,,,,,,,,,,,,,,,,,,,,,,,,,,,,,,,,3,0.4849,,,,,,,,,,,,,,0,24,24,38,1,,,,,,,,,,,,,space,0.2708,,,,,,,,,,,,,,,,,,,,,,,,,,,,,,,,,,,,,,,,,,,,,,,,,,,,,,,,,,,,,,,,,,,
,,,,629815,001,2024-02-02_18h39.08.198,fluency,2022.2.5,Win32,60.24096386,,,,,,,,,,,,,,,,,,,,,,,7,1,img/B01_07.jpg,GCNB,Press J if the face is GENDER-CONFORMING and K if the face is NONBINARY,Gender-conforming means that the face appears to be a typical example of its gender. Nonbinary means that the face does not conform to any particular gender norms.,JK,,,,,,,,,,,,,,,,,,,,,,,,,,,,,,,,,,,,,,,,,,,,,,291.6531,0,25,25,7,1,109,0,0,0,0,1,98,,,,,,,,,,,,,,,,,,,,,,,,,,,,,,,,,,,,,,,,,,,,,,,,,,,,,,,,,,,,,,,,,,,,,,,,,,
,,,,629815,001,2024-02-02_18h39.08.198,fluency,2022.2.5,Win32,60.24096386,,,,,,,,,,,,,,,,,,,,,,,,,,,,,,,,,,,,,,,,,,,,,,,,,,,,,,,,,,,,,,,,,,,,,,,,,,,,,,,,,,0,0,0,0,1,,"[""j""]",[1.343900000002236],1,"[""j""]",[1.3438000000007264],,,,,,,,,,,,,,,,,,,,,,,,,,,,,,,,,,,,,,,,,,,,,,,,,,,,,,,,,,,,,,,,,,,,,
,,,,629815,001,2024-02-02_18h39.08.198,fluency,2022.2.5,Win32,60.24096386,,,,,,,,,,,,,,,,,,,,,,,7,1,img/B01_07.jpg,GCNB,Press J if the face is GENDER-CONFORMING and K if the face is NONBINARY,Gender-conforming means that the face appears to be a typical example of its gender. Nonbinary means that the face does not conform to any particular gender norms.,JK,,,,,,,,,,,,,,,,,,,,,,,,,,,,,,,,4,0.3017,,,,,,,,,,,,,,0,25,25,7,1,,,,,,,,,,,,,space,0.2652,,,,,,,,,,,,,,,,,,,,,,,,,,,,,,,,,,,,,,,,,,,,,,,,,,,,,,,,,,,,,,,,,,,
,,,,629815,001,2024-02-02_18h39.08.198,fluency,2022.2.5,Win32,60.24096386,,,,,,,,,,,,,,,,,,,,,,,7,5,img/B05_07.jpg,GCNB,Press J if the face is GENDER-CONFORMING and K if the face is NONBINARY,Gender-conforming means that the face appears to be a typical example of its gender. Nonbinary means that the face does not conform to any particular gender norms.,JK,,,,,,,,,,,,,,,,,,,,,,,,,,,,,,,,,,,,,,,,,,,,,,296.2742,0,26,26,51,1,109,0,0,0,0,1,98,,,,,,,,,,,,,,,,,,,,,,,,,,,,,,,,,,,,,,,,,,,,,,,,,,,,,,,,,,,,,,,,,,,,,,,,,,
,,,,629815,001,2024-02-02_18h39.08.198,fluency,2022.2.5,Win32,60.24096386,,,,,,,,,,,,,,,,,,,,,,,,,,,,,,,,,,,,,,,,,,,,,,,,,,,,,,,,,,,,,,,,,,,,,,,,,,,,,,,,,,0,0,0,0,1,,"[""j""]",[0.8443000000007714],1,"[""j""]",[0.8443000000007714],,,,,,,,,,,,,,,,,,,,,,,,,,,,,,,,,,,,,,,,,,,,,,,,,,,,,,,,,,,,,,,,,,,,,
,,,,629815,001,2024-02-02_18h39.08.198,fluency,2022.2.5,Win32,60.24096386,,,,,,,,,,,,,,,,,,,,,,,7,5,img/B05_07.jpg,GCNB,Press J if the face is GENDER-CONFORMING and K if the face is NONBINARY,Gender-conforming means that the face appears to be a typical example of its gender. Nonbinary means that the face does not conform to any particular gender norms.,JK,,,,,,,,,,,,,,,,,,,,,,,,,,,,,,,,6,0.3062,,,,,,,,,,,,,,0,26,26,51,1,,,,,,,,,,,,,space,0.2379,,,,,,,,,,,,,,,,,,,,,,,,,,,,,,,,,,,,,,,,,,,,,,,,,,,,,,,,,,,,,,,,,,,
,,,,629815,001,2024-02-02_18h39.08.198,fluency,2022.2.5,Win32,60.24096386,,,,,,,,,,,,,,,,,,,,,,,3,6,img/B06_03.jpg,GCNB,Press J if the face is GENDER-CONFORMING and K if the face is NONBINARY,Gender-conforming means that the face appears to be a typical example of its gender. Nonbinary means that the face does not conform to any particular gender norms.,JK,,,,,,,,,,,,,,,,,,,,,,,,,,,,,,,,,,,,,,,,,,,,,,301.8591,0,27,27,58,1,109,0,0,0,0,1,98,,,,,,,,,,,,,,,,,,,,,,,,,,,,,,,,,,,,,,,,,,,,,,,,,,,,,,,,,,,,,,,,,,,,,,,,,,
,,,,629815,001,2024-02-02_18h39.08.198,fluency,2022.2.5,Win32,60.24096386,,,,,,,,,,,,,,,,,,,,,,,,,,,,,,,,,,,,,,,,,,,,,,,,,,,,,,,,,,,,,,,,,,,,,,,,,,,,,,,,,,0,0,0,0,1,,"[""j""]",[1.0856999999992922],1,"[""j""]",[1.0857000000029302],,,,,,,,,,,,,,,,,,,,,,,,,,,,,,,,,,,,,,,,,,,,,,,,,,,,,,,,,,,,,,,,,,,,,
,,,,629815,001,2024-02-02_18h39.08.198,fluency,2022.2.5,Win32,60.24096386,,,,,,,,,,,,,,,,,,,,,,,3,6,img/B06_03.jpg,GCNB,Press J if the face is GENDER-CONFORMING and K if the face is NONBINARY,Gender-conforming means that the face appears to be a typical example of its gender. Nonbinary means that the face does not conform to any particular gender norms.,JK,,,,,,,,,,,,,,,,,,,,,,,,,,,,,,,,4,0.323,,,,,,,,,,,,,,0,27,27,58,1,,,,,,,,,,,,,space,0.1929,,,,,,,,,,,,,,,,,,,,,,,,,,,,,,,,,,,,,,,,,,,,,,,,,,,,,,,,,,,,,,,,,,,
,,,,629815,001,2024-02-02_18h39.08.198,fluency,2022.2.5,Win32,60.24096386,,,,,,,,,,,,,,,,,,,,,,,6,6,img/B06_06.jpg,GCNB,Press J if the face is GENDER-CONFORMING and K if the face is NONBINARY,Gender-conforming means that the face appears to be a typical example of its gender. Nonbinary means that the face does not conform to any particular gender norms.,JK,,,,,,,,,,,,,,,,,,,,,,,,,,,,,,,,,,,,,,,,,,,,,,306.4133,0,28,28,61,1,109,0,0,0,0,1,98,,,,,,,,,,,,,,,,,,,,,,,,,,,,,,,,,,,,,,,,,,,,,,,,,,,,,,,,,,,,,,,,,,,,,,,,,,
,,,,629815,001,2024-02-02_18h39.08.198,fluency,2022.2.5,Win32,60.24096386,,,,,,,,,,,,,,,,,,,,,,,,,,,,,,,,,,,,,,,,,,,,,,,,,,,,,,,,,,,,,,,,,,,,,,,,,,,,,,,,,,0,0,0,0,1,,"[""k""]",[1.16930000000076],1,"[""k""]",[1.16930000000076],,,,,,,,,,,,,,,,,,,,,,,,,,,,,,,,,,,,,,,,,,,,,,,,,,,,,,,,,,,,,,,,,,,,,
,,,,629815,001,2024-02-02_18h39.08.198,fluency,2022.2.5,Win32,60.24096386,,,,,,,,,,,,,,,,,,,,,,,6,6,img/B06_06.jpg,GCNB,Press J if the face is GENDER-CONFORMING and K if the face is NONBINARY,Gender-conforming means that the face appears to be a typical example of its gender. Nonbinary means that the face does not conform to any particular gender norms.,JK,,,,,,,,,,,,,,,,,,,,,,,,,,,,,,,,4,0.3108,,,,,,,,,,,,,,0,28,28,61,1,,,,,,,,,,,,,space,0.2567,,,,,,,,,,,,,,,,,,,,,,,,,,,,,,,,,,,,,,,,,,,,,,,,,,,,,,,,,,,,,,,,,,,
,,,,629815,001,2024-02-02_18h39.08.198,fluency,2022.2.5,Win32,60.24096386,,,,,,,,,,,,,,,,,,,,,,,4,4,img/B04_04.jpg,GCNB,Press J if the face is GENDER-CONFORMING and K if the face is NONBINARY,Gender-conforming means that the face appears to be a typical example of its gender. Nonbinary means that the face does not conform to any particular gender norms.,JK,,,,,,,,,,,,,,,,,,,,,,,,,,,,,,,,,,,,,,,,,,,,,,311.0168,0,29,29,37,1,109,0,0,0,0,1,98,,,,,,,,,,,,,,,,,,,,,,,,,,,,,,,,,,,,,,,,,,,,,,,,,,,,,,,,,,,,,,,,,,,,,,,,,,
,,,,629815,001,2024-02-02_18h39.08.198,fluency,2022.2.5,Win32,60.24096386,,,,,,,,,,,,,,,,,,,,,,,,,,,,,,,,,,,,,,,,,,,,,,,,,,,,,,,,,,,,,,,,,,,,,,,,,,,,,,,,,,0,0,0,0,1,,"[""k""]",[1.4113000000007219],1,"[""k""]",[1.4113999999984799],,,,,,,,,,,,,,,,,,,,,,,,,,,,,,,,,,,,,,,,,,,,,,,,,,,,,,,,,,,,,,,,,,,,,
,,,,629815,001,2024-02-02_18h39.08.198,fluency,2022.2.5,Win32,60.24096386,,,,,,,,,,,,,,,,,,,,,,,4,4,img/B04_04.jpg,GCNB,Press J if the face is GENDER-CONFORMING and K if the face is NONBINARY,Gender-conforming means that the face appears to be a typical example of its gender. Nonbinary means that the face does not conform to any particular gender norms.,JK,,,,,,,,,,,,,,,,,,,,,,,,,,,,,,,,4,0.3058,,,,,,,,,,,,,,0,29,29,37,1,,,,,,,,,,,,,space,0.2486,,,,,,,,,,,,,,,,,,,,,,,,,,,,,,,,,,,,,,,,,,,,,,,,,,,,,,,,,,,,,,,,,,,
,,,,629815,001,2024-02-02_18h39.08.198,fluency,2022.2.5,Win32,60.24096386,,,,,,,,,,,,,,,,,,,,,,,10,6,img/B06_10.jpg,GCNB,Press J if the face is GENDER-CONFORMING and K if the face is NONBINARY,Gender-conforming means that the face appears to be a typical example of its gender. Nonbinary means that the face does not conform to any particular gender norms.,JK,,,,,,,,,,,,,,,,,,,,,,,,,,,,,,,,,,,,,,,,,,,,,,316.6183,0,30,30,65,1,109,0,0,0,0,1,98,,,,,,,,,,,,,,,,,,,,,,,,,,,,,,,,,,,,,,,,,,,,,,,,,,,,,,,,,,,,,,,,,,,,,,,,,,
,,,,629815,001,2024-02-02_18h39.08.198,fluency,2022.2.5,Win32,60.24096386,,,,,,,,,,,,,,,,,,,,,,,,,,,,,,,,,,,,,,,,,,,,,,,,,,,,,,,,,,,,,,,,,,,,,,,,,,,,,,,,,,0,0,0,0,1,,"[""j""]",[0.7572000000030243],1,"[""j""]",[0.7571000000015147],,,,,,,,,,,,,,,,,,,,,,,,,,,,,,,,,,,,,,,,,,,,,,,,,,,,,,,,,,,,,,,,,,,,,
,,,,629815,001,2024-02-02_18h39.08.198,fluency,2022.2.5,Win32,60.24096386,,,,,,,,,,,,,,,,,,,,,,,10,6,img/B06_10.jpg,GCNB,Press J if the face is GENDER-CONFORMING and K if the face is NONBINARY,Gender-conforming means that the face appears to be a typical example of its gender. Nonbinary means that the face does not conform to any particular gender norms.,JK,,,,,,,,,,,,,,,,,,,,,,,,,,,,,,,,7,0.3106,,,,,,,,,,,,,,0,30,30,65,1,,,,,,,,,,,,,space,0.2426,,,,,,,,,,,,,,,,,,,,,,,,,,,,,,,,,,,,,,,,,,,,,,,,,,,,,,,,,,,,,,,,,,,
,,,,629815,001,2024-02-02_18h39.08.198,fluency,2022.2.5,Win32,60.24096386,,,,,,,,,,,,,,,,,,,,,,,9,7,img/B07_09.jpg,GCNB,Press J if the face is GENDER-CONFORMING and K if the face is NONBINARY,Gender-conforming means that the face appears to be a typical example of its gender. Nonbinary means that the face does not conform to any particular gender norms.,JK,,,,,,,,,,,,,,,,,,,,,,,,,,,,,,,,,,,,,,,,,,,,,,322.2035,0,31,31,75,1,109,0,0,0,0,1,98,,,,,,,,,,,,,,,,,,,,,,,,,,,,,,,,,,,,,,,,,,,,,,,,,,,,,,,,,,,,,,,,,,,,,,,,,,
,,,,629815,001,2024-02-02_18h39.08.198,fluency,2022.2.5,Win32,60.24096386,,,,,,,,,,,,,,,,,,,,,,,,,,,,,,,,,,,,,,,,,,,,,,,,,,,,,,,,,,,,,,,,,,,,,,,,,,,,,,,,,,0,0,0,0,1,,"[""j""]",[1.3366000000014537],1,"[""j""]",[1.3366000000014537],,,,,,,,,,,,,,,,,,,,,,,,,,,,,,,,,,,,,,,,,,,,,,,,,,,,,,,,,,,,,,,,,,,,,
,,,,629815,001,2024-02-02_18h39.08.198,fluency,2022.2.5,Win32,60.24096386,,,,,,,,,,,,,,,,,,,,,,,9,7,img/B07_09.jpg,GCNB,Press J if the face is GENDER-CONFORMING and K if the face is NONBINARY,Gender-conforming means that the face appears to be a typical example of its gender. Nonbinary means that the face does not conform to any particular gender norms.,JK,,,,,,,,,,,,,,,,,,,,,,,,,,,,,,,,7,0.3444,,,,,,,,,,,,,,0,31,31,75,1,,,,,,,,,,,,,space,0.2483,,,,,,,,,,,,,,,,,,,,,,,,,,,,,,,,,,,,,,,,,,,,,,,,,,,,,,,,,,,,,,,,,,,
,,,,629815,001,2024-02-02_18h39.08.198,fluency,2022.2.5,Win32,60.24096386,,,,,,,,,,,,,,,,,,,,,,,0,8,img/B08_00.jpg,GCNB,Press J if the face is GENDER-CONFORMING and K if the face is NONBINARY,Gender-conforming means that the face appears to be a typical example of its gender. Nonbinary means that the face does not conform to any particular gender norms.,JK,,,,,,,,,,,,,,,,,,,,,,,,,,,,,,,,,,,,,,,,,,,,,,326.8407,0,32,32,77,1,109,0,0,0,0,1,98,,,,,,,,,,,,,,,,,,,,,,,,,,,,,,,,,,,,,,,,,,,,,,,,,,,,,,,,,,,,,,,,,,,,,,,,,,
,,,,629815,001,2024-02-02_18h39.08.198,fluency,2022.2.5,Win32,60.24096386,,,,,,,,,,,,,,,,,,,,,,,,,,,,,,,,,,,,,,,,,,,,,,,,,,,,,,,,,,,,,,,,,,,,,,,,,,,,,,,,,,0,0,0,0,1,,"[""k""]",[2.053600000001495],1,"[""k""]",[2.053600000001495],,,,,,,,,,,,,,,,,,,,,,,,,,,,,,,,,,,,,,,,,,,,,,,,,,,,,,,,,,,,,,,,,,,,,
,,,,629815,001,2024-02-02_18h39.08.198,fluency,2022.2.5,Win32,60.24096386,,,,,,,,,,,,,,,,,,,,,,,0,8,img/B08_00.jpg,GCNB,Press J if the face is GENDER-CONFORMING and K if the face is NONBINARY,Gender-conforming means that the face appears to be a typical example of its gender. Nonbinary means that the face does not conform to any particular gender norms.,JK,,,,,,,,,,,,,,,,,,,,,,,,,,,,,,,,4,0.3026,,,,,,,,,,,,,,0,32,32,77,1,,,,,,,,,,,,,space,0.2171,,,,,,,,,,,,,,,,,,,,,,,,,,,,,,,,,,,,,,,,,,,,,,,,,,,,,,,,,,,,,,,,,,,
,,,,629815,001,2024-02-02_18h39.08.198,fluency,2022.2.5,Win32,60.24096386,,,,,,,,,,,,,,,,,,,,,,,9,8,img/B08_09.jpg,GCNB,Press J if the face is GENDER-CONFORMING and K if the face is NONBINARY,Gender-conforming means that the face appears to be a typical example of its gender. Nonbinary means that the face does not conform to any particular gender norms.,JK,,,,,,,,,,,,,,,,,,,,,,,,,,,,,,,,,,,,,,,,,,,,,,331.4114,0,33,33,86,1,109,0,0,0,0,1,98,,,,,,,,,,,,,,,,,,,,,,,,,,,,,,,,,,,,,,,,,,,,,,,,,,,,,,,,,,,,,,,,,,,,,,,,,,
,,,,629815,001,2024-02-02_18h39.08.198,fluency,2022.2.5,Win32,60.24096386,,,,,,,,,,,,,,,,,,,,,,,,,,,,,,,,,,,,,,,,,,,,,,,,,,,,,,,,,,,,,,,,,,,,,,,,,,,,,,,,,,0,0,0,0,1,,"[""j""]",[1.4536999999992304],1,"[""j""]",[1.4536999999992304],,,,,,,,,,,,,,,,,,,,,,,,,,,,,,,,,,,,,,,,,,,,,,,,,,,,,,,,,,,,,,,,,,,,,
,,,,629815,001,2024-02-02_18h39.08.198,fluency,2022.2.5,Win32,60.24096386,,,,,,,,,,,,,,,,,,,,,,,9,8,img/B08_09.jpg,GCNB,Press J if the face is GENDER-CONFORMING and K if the face is NONBINARY,Gender-conforming means that the face appears to be a typical example of its gender. Nonbinary means that the face does not conform to any particular gender norms.,JK,,,,,,,,,,,,,,,,,,,,,,,,,,,,,,,,2,0.3087,,,,,,,,,,,,,,0,33,33,86,1,,,,,,,,,,,,,space,0.2064,,,,,,,,,,,,,,,,,,,,,,,,,,,,,,,,,,,,,,,,,,,,,,,,,,,,,,,,,,,,,,,,,,,
,,,,629815,001,2024-02-02_18h39.08.198,fluency,2022.2.5,Win32,60.24096386,,,,,,,,,,,,,,,,,,,,,,,6,4,img/B04_06.jpg,GCNB,Press J if the face is GENDER-CONFORMING and K if the face is NONBINARY,Gender-conforming means that the face appears to be a typical example of its gender. Nonbinary means that the face does not conform to any particular gender norms.,JK,,,,,,,,,,,,,,,,,,,,,,,,,,,,,,,,,,,,,,,,,,,,,,335.9656,0,34,34,39,1,109,0,0,0,0,1,98,,,,,,,,,,,,,,,,,,,,,,,,,,,,,,,,,,,,,,,,,,,,,,,,,,,,,,,,,,,,,,,,,,,,,,,,,,
,,,,629815,001,2024-02-02_18h39.08.198,fluency,2022.2.5,Win32,60.24096386,,,,,,,,,,,,,,,,,,,,,,,,,,,,,,,,,,,,,,,,,,,,,,,,,,,,,,,,,,,,,,,,,,,,,,,,,,,,,,,,,,0,0,0,0,1,,"[""k""]",[1.356700000003002],1,"[""k""]",[1.3566000000014924],,,,,,,,,,,,,,,,,,,,,,,,,,,,,,,,,,,,,,,,,,,,,,,,,,,,,,,,,,,,,,,,,,,,,
,,,,629815,001,2024-02-02_18h39.08.198,fluency,2022.2.5,Win32,60.24096386,,,,,,,,,,,,,,,,,,,,,,,6,4,img/B04_06.jpg,GCNB,Press J if the face is GENDER-CONFORMING and K if the face is NONBINARY,Gender-conforming means that the face appears to be a typical example of its gender. Nonbinary means that the face does not conform to any particular gender norms.,JK,,,,,,,,,,,,,,,,,,,,,,,,,,,,,,,,3,0.2914,,,,,,,,,,,,,,0,34,34,39,1,,,,,,,,,,,,,space,0.1979,,,,,,,,,,,,,,,,,,,,,,,,,,,,,,,,,,,,,,,,,,,,,,,,,,,,,,,,,,,,,,,,,,,
,,,,629815,001,2024-02-02_18h39.08.198,fluency,2022.2.5,Win32,60.24096386,,,,,,,,,,,,,,,,,,,,,,,8,8,img/B08_08.jpg,GCNB,Press J if the face is GENDER-CONFORMING and K if the face is NONBINARY,Gender-conforming means that the face appears to be a typical example of its gender. Nonbinary means that the face does not conform to any particular gender norms.,JK,,,,,,,,,,,,,,,,,,,,,,,,,,,,,,,,,,,,,,,,,,,,,,341.5006,0,35,35,85,1,109,0,0,0,0,1,98,,,,,,,,,,,,,,,,,,,,,,,,,,,,,,,,,,,,,,,,,,,,,,,,,,,,,,,,,,,,,,,,,,,,,,,,,,
,,,,629815,001,2024-02-02_18h39.08.198,fluency,2022.2.5,Win32,60.24096386,,,,,,,,,,,,,,,,,,,,,,,,,,,,,,,,,,,,,,,,,,,,,,,,,,,,,,,,,,,,,,,,,,,,,,,,,,,,,,,,,,0,0,0,0,1,,"[""j""]",[1.6948000000007823],1,"[""j""]",[1.6949000000022352],,,,,,,,,,,,,,,,,,,,,,,,,,,,,,,,,,,,,,,,,,,,,,,,,,,,,,,,,,,,,,,,,,,,,
,,,,629815,001,2024-02-02_18h39.08.198,fluency,2022.2.5,Win32,60.24096386,,,,,,,,,,,,,,,,,,,,,,,8,8,img/B08_08.jpg,GCNB,Press J if the face is GENDER-CONFORMING and K if the face is NONBINARY,Gender-conforming means that the face appears to be a typical example of its gender. Nonbinary means that the face does not conform to any particular gender norms.,JK,,,,,,,,,,,,,,,,,,,,,,,,,,,,,,,,2,0.2581,,,,,,,,,,,,,,0,35,35,85,1,,,,,,,,,,,,,space,0.2022,,,,,,,,,,,,,,,,,,,,,,,,,,,,,,,,,,,,,,,,,,,,,,,,,,,,,,,,,,,,,,,,,,,
,,,,629815,001,2024-02-02_18h39.08.198,fluency,2022.2.5,Win32,60.24096386,,,,,,,,,,,,,,,,,,,,,,,1,2,img/B02_01.jpg,GCNB,Press J if the face is GENDER-CONFORMING and K if the face is NONBINARY,Gender-conforming means that the face appears to be a typical example of its gender. Nonbinary means that the face does not conform to any particular gender norms.,JK,,,,,,,,,,,,,,,,,,,,,,,,,,,,,,,,,,,,,,,,,,,,,,347.0025,0,36,36,12,1,109,0,0,0,0,1,98,,,,,,,,,,,,,,,,,,,,,,,,,,,,,,,,,,,,,,,,,,,,,,,,,,,,,,,,,,,,,,,,,,,,,,,,,,
,,,,629815,001,2024-02-02_18h39.08.198,fluency,2022.2.5,Win32,60.24096386,,,,,,,,,,,,,,,,,,,,,,,,,,,,,,,,,,,,,,,,,,,,,,,,,,,,,,,,,,,,,,,,,,,,,,,,,,,,,,,,,,0,0,0,0,1,,"[""j""]",[1.0801000000014938],1,"[""j""]",[1.0801000000014938],,,,,,,,,,,,,,,,,,,,,,,,,,,,,,,,,,,,,,,,,,,,,,,,,,,,,,,,,,,,,,,,,,,,,
,,,,629815,001,2024-02-02_18h39.08.198,fluency,2022.2.5,Win32,60.24096386,,,,,,,,,,,,,,,,,,,,,,,1,2,img/B02_01.jpg,GCNB,Press J if the face is GENDER-CONFORMING and K if the face is NONBINARY,Gender-conforming means that the face appears to be a typical example of its gender. Nonbinary means that the face does not conform to any particular gender norms.,JK,,,,,,,,,,,,,,,,,,,,,,,,,,,,,,,,2,0.2841,,,,,,,,,,,,,,0,36,36,12,1,,,,,,,,,,,,,space,0.2238,,,,,,,,,,,,,,,,,,,,,,,,,,,,,,,,,,,,,,,,,,,,,,,,,,,,,,,,,,,,,,,,,,,
,,,,629815,001,2024-02-02_18h39.08.198,fluency,2022.2.5,Win32,60.24096386,,,,,,,,,,,,,,,,,,,,,,,1,7,img/B07_01.jpg,GCNB,Press J if the face is GENDER-CONFORMING and K if the face is NONBINARY,Gender-conforming means that the face appears to be a typical example of its gender. Nonbinary means that the face does not conform to any particular gender norms.,JK,,,,,,,,,,,,,,,,,,,,,,,,,,,,,,,,,,,,,,,,,,,,,,351.5564,0,37,37,67,1,109,0,0,0,0,1,98,,,,,,,,,,,,,,,,,,,,,,,,,,,,,,,,,,,,,,,,,,,,,,,,,,,,,,,,,,,,,,,,,,,,,,,,,,
,,,,629815,001,2024-02-02_18h39.08.198,fluency,2022.2.5,Win32,60.24096386,,,,,,,,,,,,,,,,,,,,,,,,,,,,,,,,,,,,,,,,,,,,,,,,,,,,,,,,,,,,,,,,,,,,,,,,,,,,,,,,,,0,0,0,0,1,,"[""j""]",[1.074100000001522],1,"[""j""]",[1.07419999999928],,,,,,,,,,,,,,,,,,,,,,,,,,,,,,,,,,,,,,,,,,,,,,,,,,,,,,,,,,,,,,,,,,,,,
,,,,629815,001,2024-02-02_18h39.08.198,fluency,2022.2.5,Win32,60.24096386,,,,,,,,,,,,,,,,,,,,,,,1,7,img/B07_01.jpg,GCNB,Press J if the face is GENDER-CONFORMING and K if the face is NONBINARY,Gender-conforming means that the face appears to be a typical example of its gender. Nonbinary means that the face does not conform to any particular gender norms.,JK,,,,,,,,,,,,,,,,,,,,,,,,,,,,,,,,5,0.3526,,,,,,,,,,,,,,0,37,37,67,1,,,,,,,,,,,,,space,0.1832,,,,,,,,,,,,,,,,,,,,,,,,,,,,,,,,,,,,,,,,,,,,,,,,,,,,,,,,,,,,,,,,,,,
,,,,629815,001,2024-02-02_18h39.08.198,fluency,2022.2.5,Win32,60.24096386,,,,,,,,,,,,,,,,,,,,,,,1,4,img/B04_01.jpg,GCNB,Press J if the face is GENDER-CONFORMING and K if the face is NONBINARY,Gender-conforming means that the face appears to be a typical example of its gender. Nonbinary means that the face does not conform to any particular gender norms.,JK,,,,,,,,,,,,,,,,,,,,,,,,,,,,,,,,,,,,,,,,,,,,,,356.1439,0,38,38,34,1,109,0,0,0,0,1,98,,,,,,,,,,,,,,,,,,,,,,,,,,,,,,,,,,,,,,,,,,,,,,,,,,,,,,,,,,,,,,,,,,,,,,,,,,
,,,,629815,001,2024-02-02_18h39.08.198,fluency,2022.2.5,Win32,60.24096386,,,,,,,,,,,,,,,,,,,,,,,,,,,,,,,,,,,,,,,,,,,,,,,,,,,,,,,,,,,,,,,,,,,,,,,,,,,,,,,,,,0,0,0,0,1,,"[""j""]",[0.8566000000014924],1,"[""j""]",[0.8566000000014924],,,,,,,,,,,,,,,,,,,,,,,,,,,,,,,,,,,,,,,,,,,,,,,,,,,,,,,,,,,,,,,,,,,,,
,,,,629815,001,2024-02-02_18h39.08.198,fluency,2022.2.5,Win32,60.24096386,,,,,,,,,,,,,,,,,,,,,,,1,4,img/B04_01.jpg,GCNB,Press J if the face is GENDER-CONFORMING and K if the face is NONBINARY,Gender-conforming means that the face appears to be a typical example of its gender. Nonbinary means that the face does not conform to any particular gender norms.,JK,,,,,,,,,,,,,,,,,,,,,,,,,,,,,,,,6,0.3553,,,,,,,,,,,,,,0,38,38,34,1,,,,,,,,,,,,,space,0.2211,,,,,,,,,,,,,,,,,,,,,,,,,,,,,,,,,,,,,,,,,,,,,,,,,,,,,,,,,,,,,,,,,,,
,,,,629815,001,2024-02-02_18h39.08.198,fluency,2022.2.5,Win32,60.24096386,,,,,,,,,,,,,,,,,,,,,,,0,1,img/B01_00.jpg,GCNB,Press J if the face is GENDER-CONFORMING and K if the face is NONBINARY,Gender-conforming means that the face appears to be a typical example of its gender. Nonbinary means that the face does not conform to any particular gender norms.,JK,,,,,,,,,,,,,,,,,,,,,,,,,,,,,,,,,,,,,,,,,,,,,,360.7649,0,39,39,0,1,109,0,0,0,0,1,98,,,,,,,,,,,,,,,,,,,,,,,,,,,,,,,,,,,,,,,,,,,,,,,,,,,,,,,,,,,,,,,,,,,,,,,,,,
,,,,629815,001,2024-02-02_18h39.08.198,fluency,2022.2.5,Win32,60.24096386,,,,,,,,,,,,,,,,,,,,,,,,,,,,,,,,,,,,,,,,,,,,,,,,,,,,,,,,,,,,,,,,,,,,,,,,,,,,,,,,,,0,0,0,0,1,,"[""j""]",[0.9628999999985126],1,"[""j""]",[0.9627999999970029],,,,,,,,,,,,,,,,,,,,,,,,,,,,,,,,,,,,,,,,,,,,,,,,,,,,,,,,,,,,,,,,,,,,,
,,,,629815,001,2024-02-02_18h39.08.198,fluency,2022.2.5,Win32,60.24096386,,,,,,,,,,,,,,,,,,,,,,,0,1,img/B01_00.jpg,GCNB,Press J if the face is GENDER-CONFORMING and K if the face is NONBINARY,Gender-conforming means that the face appears to be a typical example of its gender. Nonbinary means that the face does not conform to any particular gender norms.,JK,,,,,,,,,,,,,,,,,,,,,,,,,,,,,,,,1,0.3451,,,,,,,,,,,,,,0,39,39,0,1,,,,,,,,,,,,,space,0.1949,,,,,,,,,,,,,,,,,,,,,,,,,,,,,,,,,,,,,,,,,,,,,,,,,,,,,,,,,,,,,,,,,,,
,,,,629815,001,2024-02-02_18h39.08.198,fluency,2022.2.5,Win32,60.24096386,,,,,,,,,,,,,,,,,,,,,,,3,1,img/B01_03.jpg,GCNB,Press J if the face is GENDER-CONFORMING and K if the face is NONBINARY,Gender-conforming means that the face appears to be a typical example of its gender. Nonbinary means that the face does not conform to any particular gender norms.,JK,,,,,,,,,,,,,,,,,,,,,,,,,,,,,,,,,,,,,,,,,,,,,,365.3355,0,40,40,3,1,109,0,0,0,0,1,98,,,,,,,,,,,,,,,,,,,,,,,,,,,,,,,,,,,,,,,,,,,,,,,,,,,,,,,,,,,,,,,,,,,,,,,,,,
,,,,629815,001,2024-02-02_18h39.08.198,fluency,2022.2.5,Win32,60.24096386,,,,,,,,,,,,,,,,,,,,,,,,,,,,,,,,,,,,,,,,,,,,,,,,,,,,,,,,,,,,,,,,,,,,,,,,,,,,,,,,,,0,0,0,0,1,,"[""j""]",[0.713100000001532],1,"[""j""]",[0.713100000001532],,,,,,,,,,,,,,,,,,,,,,,,,,,,,,,,,,,,,,,,,,,,,,,,,,,,,,,,,,,,,,,,,,,,,
,,,,629815,001,2024-02-02_18h39.08.198,fluency,2022.2.5,Win32,60.24096386,,,,,,,,,,,,,,,,,,,,,,,3,1,img/B01_03.jpg,GCNB,Press J if the face is GENDER-CONFORMING and K if the face is NONBINARY,Gender-conforming means that the face appears to be a typical example of its gender. Nonbinary means that the face does not conform to any particular gender norms.,JK,,,,,,,,,,,,,,,,,,,,,,,,,,,,,,,,1,0.3533,,,,,,,,,,,,,,0,40,40,3,1,,,,,,,,,,,,,space,0.2062,,,,,,,,,,,,,,,,,,,,,,,,,,,,,,,,,,,,,,,,,,,,,,,,,,,,,,,,,,,,,,,,,,,
,,,,629815,001,2024-02-02_18h39.08.198,fluency,2022.2.5,Win32,60.24096386,,,,,,,,,,,,,,,,,,,,,,,3,9,img/B09_03.jpg,GCNB,Press J if the face is GENDER-CONFORMING and K if the face is NONBINARY,Gender-conforming means that the face appears to be a typical example of its gender. Nonbinary means that the face does not conform to any particular gender norms.,JK,,,,,,,,,,,,,,,,,,,,,,,,,,,,,,,,,,,,,,,,,,,,,,369.9397,0,41,41,91,1,109,0,0,0,0,1,98,,,,,,,,,,,,,,,,,,,,,,,,,,,,,,,,,,,,,,,,,,,,,,,,,,,,,,,,,,,,,,,,,,,,,,,,,,
,,,,629815,001,2024-02-02_18h39.08.198,fluency,2022.2.5,Win32,60.24096386,,,,,,,,,,,,,,,,,,,,,,,,,,,,,,,,,,,,,,,,,,,,,,,,,,,,,,,,,,,,,,,,,,,,,,,,,,,,,,,,,,0,0,0,0,1,,"[""k""]",[1.9676999999992972],1,"[""k""]",[1.9676999999992972],,,,,,,,,,,,,,,,,,,,,,,,,,,,,,,,,,,,,,,,,,,,,,,,,,,,,,,,,,,,,,,,,,,,,
,,,,629815,001,2024-02-02_18h39.08.198,fluency,2022.2.5,Win32,60.24096386,,,,,,,,,,,,,,,,,,,,,,,3,9,img/B09_03.jpg,GCNB,Press J if the face is GENDER-CONFORMING and K if the face is NONBINARY,Gender-conforming means that the face appears to be a typical example of its gender. Nonbinary means that the face does not conform to any particular gender norms.,JK,,,,,,,,,,,,,,,,,,,,,,,,,,,,,,,,3,0.4459,,,,,,,,,,,,,,0,41,41,91,1,,,,,,,,,,,,,space,0.2348,,,,,,,,,,,,,,,,,,,,,,,,,,,,,,,,,,,,,,,,,,,,,,,,,,,,,,,,,,,,,,,,,,,
,,,,629815,001,2024-02-02_18h39.08.198,fluency,2022.2.5,Win32,60.24096386,,,,,,,,,,,,,,,,,,,,,,,6,7,img/B07_06.jpg,GCNB,Press J if the face is GENDER-CONFORMING and K if the face is NONBINARY,Gender-conforming means that the face appears to be a typical example of its gender. Nonbinary means that the face does not conform to any particular gender norms.,JK,,,,,,,,,,,,,,,,,,,,,,,,,,,,,,,,,,,,,,,,,,,,,,375.6576,0,42,42,72,1,109,0,0,0,0,1,98,,,,,,,,,,,,,,,,,,,,,,,,,,,,,,,,,,,,,,,,,,,,,,,,,,,,,,,,,,,,,,,,,,,,,,,,,,
,,,,629815,001,2024-02-02_18h39.08.198,fluency,2022.2.5,Win32,60.24096386,,,,,,,,,,,,,,,,,,,,,,,,,,,,,,,,,,,,,,,,,,,,,,,,,,,,,,,,,,,,,,,,,,,,,,,,,,,,,,,,,,0,0,0,0,1,,"[""k""]",[2.6993999999985476],1,"[""k""]",[2.6993999999985476],,,,,,,,,,,,,,,,,,,,,,,,,,,,,,,,,,,,,,,,,,,,,,,,,,,,,,,,,,,,,,,,,,,,,
,,,,629815,001,2024-02-02_18h39.08.198,fluency,2022.2.5,Win32,60.24096386,,,,,,,,,,,,,,,,,,,,,,,6,7,img/B07_06.jpg,GCNB,Press J if the face is GENDER-CONFORMING and K if the face is NONBINARY,Gender-conforming means that the face appears to be a typical example of its gender. Nonbinary means that the face does not conform to any particular gender norms.,JK,,,,,,,,,,,,,,,,,,,,,,,,,,,,,,,,4,0.8924,,,,,,,,,,,,,,0,42,42,72,1,,,,,,,,,,,,,space,0.3993,,,,,,,,,,,,,,,,,,,,,,,,,,,,,,,,,,,,,,,,,,,,,,,,,,,,,,,,,,,,,,,,,,,
,,,,629815,001,2024-02-02_18h39.08.198,fluency,2022.2.5,Win32,60.24096386,,,,,,,,,,,,,,,,,,,,,,,0,7,img/B07_00.jpg,GCNB,Press J if the face is GENDER-CONFORMING and K if the face is NONBINARY,Gender-conforming means that the face appears to be a typical example of its gender. Nonbinary means that the face does not conform to any particular gender norms.,JK,,,,,,,,,,,,,,,,,,,,,,,,,,,,,,,,,,,,,,,,,,,,,,381.9897,0,43,43,66,1,109,0,0,0,0,1,98,,,,,,,,,,,,,,,,,,,,,,,,,,,,,,,,,,,,,,,,,,,,,,,,,,,,,,,,,,,,,,,,,,,,,,,,,,
,,,,629815,001,2024-02-02_18h39.08.198,fluency,2022.2.5,Win32,60.24096386,,,,,,,,,,,,,,,,,,,,,,,,,,,,,,,,,,,,,,,,,,,,,,,,,,,,,,,,,,,,,,,,,,,,,,,,,,,,,,,,,,0,0,0,0,1,,"[""j""]",[0.7893000000007646],1,"[""j""]",[0.7893000000007646],,,,,,,,,,,,,,,,,,,,,,,,,,,,,,,,,,,,,,,,,,,,,,,,,,,,,,,,,,,,,,,,,,,,,
,,,,629815,001,2024-02-02_18h39.08.198,fluency,2022.2.5,Win32,60.24096386,,,,,,,,,,,,,,,,,,,,,,,0,7,img/B07_00.jpg,GCNB,Press J if the face is GENDER-CONFORMING and K if the face is NONBINARY,Gender-conforming means that the face appears to be a typical example of its gender. Nonbinary means that the face does not conform to any particular gender norms.,JK,,,,,,,,,,,,,,,,,,,,,,,,,,,,,,,,5,0.2913,,,,,,,,,,,,,,0,43,43,66,1,,,,,,,,,,,,,space,0.2168,,,,,,,,,,,,,,,,,,,,,,,,,,,,,,,,,,,,,,,,,,,,,,,,,,,,,,,,,,,,,,,,,,,
,,,,629815,001,2024-02-02_18h39.08.198,fluency,2022.2.5,Win32,60.24096386,,,,,,,,,,,,,,,,,,,,,,,9,5,img/B05_09.jpg,GCNB,Press J if the face is GENDER-CONFORMING and K if the face is NONBINARY,Gender-conforming means that the face appears to be a typical example of its gender. Nonbinary means that the face does not conform to any particular gender norms.,JK,,,,,,,,,,,,,,,,,,,,,,,,,,,,,,,,,,,,,,,,,,,,,,386.5444,0,44,44,53,1,109,0,0,0,0,1,98,,,,,,,,,,,,,,,,,,,,,,,,,,,,,,,,,,,,,,,,,,,,,,,,,,,,,,,,,,,,,,,,,,,,,,,,,,
,,,,629815,001,2024-02-02_18h39.08.198,fluency,2022.2.5,Win32,60.24096386,,,,,,,,,,,,,,,,,,,,,,,,,,,,,,,,,,,,,,,,,,,,,,,,,,,,,,,,,,,,,,,,,,,,,,,,,,,,,,,,,,0,0,0,0,1,,"[""k""]",[2.0685000000000286],1,"[""k""]",[2.068399999998519],,,,,,,,,,,,,,,,,,,,,,,,,,,,,,,,,,,,,,,,,,,,,,,,,,,,,,,,,,,,,,,,,,,,,
,,,,629815,001,2024-02-02_18h39.08.198,fluency,2022.2.5,Win32,60.24096386,,,,,,,,,,,,,,,,,,,,,,,9,5,img/B05_09.jpg,GCNB,Press J if the face is GENDER-CONFORMING and K if the face is NONBINARY,Gender-conforming means that the face appears to be a typical example of its gender. Nonbinary means that the face does not conform to any particular gender norms.,JK,,,,,,,,,,,,,,,,,,,,,,,,,,,,,,,,4,0.8579,,,,,,,,,,,,,,0,44,44,53,1,,,,,,,,,,,,,space,0.2179,,,,,,,,,,,,,,,,,,,,,,,,,,,,,,,,,,,,,,,,,,,,,,,,,,,,,,,,,,,,,,,,,,,
,,,,629815,001,2024-02-02_18h39.08.198,fluency,2022.2.5,Win32,60.24096386,,,,,,,,,,,,,,,,,,,,,,,3,8,img/B08_03.jpg,GCNB,Press J if the face is GENDER-CONFORMING and K if the face is NONBINARY,Gender-conforming means that the face appears to be a typical example of its gender. Nonbinary means that the face does not conform to any particular gender norms.,JK,,,,,,,,,,,,,,,,,,,,,,,,,,,,,,,,,,,,,,,,,,,,,,392.6605,0,45,45,80,1,109,0,0,0,0,1,98,,,,,,,,,,,,,,,,,,,,,,,,,,,,,,,,,,,,,,,,,,,,,,,,,,,,,,,,,,,,,,,,,,,,,,,,,,
,,,,629815,001,2024-02-02_18h39.08.198,fluency,2022.2.5,Win32,60.24096386,,,,,,,,,,,,,,,,,,,,,,,,,,,,,,,,,,,,,,,,,,,,,,,,,,,,,,,,,,,,,,,,,,,,,,,,,,,,,,,,,,0,0,0,0,1,,"[""k""]",[1.4673000000007619],1,"[""k""]",[1.4673000000007619],,,,,,,,,,,,,,,,,,,,,,,,,,,,,,,,,,,,,,,,,,,,,,,,,,,,,,,,,,,,,,,,,,,,,
,,,,629815,001,2024-02-02_18h39.08.198,fluency,2022.2.5,Win32,60.24096386,,,,,,,,,,,,,,,,,,,,,,,3,8,img/B08_03.jpg,GCNB,Press J if the face is GENDER-CONFORMING and K if the face is NONBINARY,Gender-conforming means that the face appears to be a typical example of its gender. Nonbinary means that the face does not conform to any particular gender norms.,JK,,,,,,,,,,,,,,,,,,,,,,,,,,,,,,,,3,0.3136,,,,,,,,,,,,,,0,45,45,80,1,,,,,,,,,,,,,space,0.2406,,,,,,,,,,,,,,,,,,,,,,,,,,,,,,,,,,,,,,,,,,,,,,,,,,,,,,,,,,,,,,,,,,,
,,,,629815,001,2024-02-02_18h39.08.198,fluency,2022.2.5,Win32,60.24096386,,,,,,,,,,,,,,,,,,,,,,,1,10,img/B10_01.jpg,GCNB,Press J if the face is GENDER-CONFORMING and K if the face is NONBINARY,Gender-conforming means that the face appears to be a typical example of its gender. Nonbinary means that the face does not conform to any particular gender norms.,JK,,,,,,,,,,,,,,,,,,,,,,,,,,,,,,,,,,,,,,,,,,,,,,398.2458,0,46,46,100,1,109,0,0,0,0,1,98,,,,,,,,,,,,,,,,,,,,,,,,,,,,,,,,,,,,,,,,,,,,,,,,,,,,,,,,,,,,,,,,,,,,,,,,,,
,,,,629815,001,2024-02-02_18h39.08.198,fluency,2022.2.5,Win32,60.24096386,,,,,,,,,,,,,,,,,,,,,,,,,,,,,,,,,,,,,,,,,,,,,,,,,,,,,,,,,,,,,,,,,,,,,,,,,,,,,,,,,,0,0,0,0,1,,"[""j""]",[1.7941999999992504],1,"[""j""]",[1.7941999999992504],,,,,,,,,,,,,,,,,,,,,,,,,,,,,,,,,,,,,,,,,,,,,,,,,,,,,,,,,,,,,,,,,,,,,
,,,,629815,001,2024-02-02_18h39.08.198,fluency,2022.2.5,Win32,60.24096386,,,,,,,,,,,,,,,,,,,,,,,1,10,img/B10_01.jpg,GCNB,Press J if the face is GENDER-CONFORMING and K if the face is NONBINARY,Gender-conforming means that the face appears to be a typical example of its gender. Nonbinary means that the face does not conform to any particular gender norms.,JK,,,,,,,,,,,,,,,,,,,,,,,,,,,,,,,,6,0.4154,,,,,,,,,,,,,,0,46,46,100,1,,,,,,,,,,,,,space,0.27,,,,,,,,,,,,,,,,,,,,,,,,,,,,,,,,,,,,,,,,,,,,,,,,,,,,,,,,,,,,,,,,,,,
,,,,629815,001,2024-02-02_18h39.08.198,fluency,2022.2.5,Win32,60.24096386,,,,,,,,,,,,,,,,,,,,,,,7,10,img/B10_07.jpg,GCNB,Press J if the face is GENDER-CONFORMING and K if the face is NONBINARY,Gender-conforming means that the face appears to be a typical example of its gender. Nonbinary means that the face does not conform to any particular gender norms.,JK,,,,,,,,,,,,,,,,,,,,,,,,,,,,,,,,,,,,,,,,,,,,,,402.9663,0,47,47,106,1,109,0,0,0,0,1,98,,,,,,,,,,,,,,,,,,,,,,,,,,,,,,,,,,,,,,,,,,,,,,,,,,,,,,,,,,,,,,,,,,,,,,,,,,
,,,,629815,001,2024-02-02_18h39.08.198,fluency,2022.2.5,Win32,60.24096386,,,,,,,,,,,,,,,,,,,,,,,,,,,,,,,,,,,,,,,,,,,,,,,,,,,,,,,,,,,,,,,,,,,,,,,,,,,,,,,,,,0,0,0,0,1,,"[""k""]",[2.218999999999994],1,"[""k""]",[2.2188999999985413],,,,,,,,,,,,,,,,,,,,,,,,,,,,,,,,,,,,,,,,,,,,,,,,,,,,,,,,,,,,,,,,,,,,,
,,,,629815,001,2024-02-02_18h39.08.198,fluency,2022.2.5,Win32,60.24096386,,,,,,,,,,,,,,,,,,,,,,,7,10,img/B10_07.jpg,GCNB,Press J if the face is GENDER-CONFORMING and K if the face is NONBINARY,Gender-conforming means that the face appears to be a typical example of its gender. Nonbinary means that the face does not conform to any particular gender norms.,JK,,,,,,,,,,,,,,,,,,,,,,,,,,,,,,,,5,0.491,,,,,,,,,,,,,,0,47,47,106,1,,,,,,,,,,,,,space,0.275,,,,,,,,,,,,,,,,,,,,,,,,,,,,,,,,,,,,,,,,,,,,,,,,,,,,,,,,,,,,,,,,,,,
,,,,629815,001,2024-02-02_18h39.08.198,fluency,2022.2.5,Win32,60.24096386,,,,,,,,,,,,,,,,,,,,,,,3,7,img/B07_03.jpg,GCNB,Press J if the face is GENDER-CONFORMING and K if the face is NONBINARY,Gender-conforming means that the face appears to be a typical example of its gender. Nonbinary means that the face does not conform to any particular gender norms.,JK,,,,,,,,,,,,,,,,,,,,,,,,,,,,,,,,,,,,,,,,,,,,,,407.7698,0,48,48,69,1,109,0,0,0,0,1,98,,,,,,,,,,,,,,,,,,,,,,,,,,,,,,,,,,,,,,,,,,,,,,,,,,,,,,,,,,,,,,,,,,,,,,,,,,
,,,,629815,001,2024-02-02_18h39.08.198,fluency,2022.2.5,Win32,60.24096386,,,,,,,,,,,,,,,,,,,,,,,,,,,,,,,,,,,,,,,,,,,,,,,,,,,,,,,,,,,,,,,,,,,,,,,,,,,,,,,,,,0,0,0,0,1,,"[""k""]",[1.1938999999985072],1,"[""k""]",[1.1938999999985072],,,,,,,,,,,,,,,,,,,,,,,,,,,,,,,,,,,,,,,,,,,,,,,,,,,,,,,,,,,,,,,,,,,,,
,,,,629815,001,2024-02-02_18h39.08.198,fluency,2022.2.5,Win32,60.24096386,,,,,,,,,,,,,,,,,,,,,,,3,7,img/B07_03.jpg,GCNB,Press J if the face is GENDER-CONFORMING and K if the face is NONBINARY,Gender-conforming means that the face appears to be a typical example of its gender. Nonbinary means that the face does not conform to any particular gender norms.,JK,,,,,,,,,,,,,,,,,,,,,,,,,,,,,,,,3,0.3164,,,,,,,,,,,,,,0,48,48,69,1,,,,,,,,,,,,,space,0.1819,,,,,,,,,,,,,,,,,,,,,,,,,,,,,,,,,,,,,,,,,,,,,,,,,,,,,,,,,,,,,,,,,,,
,,,,629815,001,2024-02-02_18h39.08.198,fluency,2022.2.5,Win32,60.24096386,,,,,,,,,,,,,,,,,,,,,,,0,3,img/B03_00.jpg,GCNB,Press J if the face is GENDER-CONFORMING and K if the face is NONBINARY,Gender-conforming means that the face appears to be a typical example of its gender. Nonbinary means that the face does not conform to any particular gender norms.,JK,,,,,,,,,,,,,,,,,,,,,,,,,,,,,,,,,,,,,,,,,,,,,,412.324,0,49,49,22,1,109,0,0,0,0,1,98,,,,,,,,,,,,,,,,,,,,,,,,,,,,,,,,,,,,,,,,,,,,,,,,,,,,,,,,,,,,,,,,,,,,,,,,,,
,,,,629815,001,2024-02-02_18h39.08.198,fluency,2022.2.5,Win32,60.24096386,,,,,,,,,,,,,,,,,,,,,,,,,,,,,,,,,,,,,,,,,,,,,,,,,,,,,,,,,,,,,,,,,,,,,,,,,,,,,,,,,,0,0,0,0,1,,"[""j""]",[1.0155999999977894],1,"[""j""]",[1.0155999999977894],,,,,,,,,,,,,,,,,,,,,,,,,,,,,,,,,,,,,,,,,,,,,,,,,,,,,,,,,,,,,,,,,,,,,
,,,,629815,001,2024-02-02_18h39.08.198,fluency,2022.2.5,Win32,60.24096386,,,,,,,,,,,,,,,,,,,,,,,0,3,img/B03_00.jpg,GCNB,Press J if the face is GENDER-CONFORMING and K if the face is NONBINARY,Gender-conforming means that the face appears to be a typical example of its gender. Nonbinary means that the face does not conform to any particular gender norms.,JK,,,,,,,,,,,,,,,,,,,,,,,,,,,,,,,,5,0.2905,,,,,,,,,,,,,,0,49,49,22,1,,,,,,,,,,,,,space,0.1876,,,,,,,,,,,,,,,,,,,,,,,,,,,,,,,,,,,,,,,,,,,,,,,,,,,,,,,,,,,,,,,,,,,
,,,,629815,001,2024-02-02_18h39.08.198,fluency,2022.2.5,Win32,60.24096386,,,,,,,,,,,,,,,,,,,,,,,1,3,img/B03_01.jpg,GCNB,Press J if the face is GENDER-CONFORMING and K if the face is NONBINARY,Gender-conforming means that the face appears to be a typical example of its gender. Nonbinary means that the face does not conform to any particular gender norms.,JK,,,,,,,,,,,,,,,,,,,,,,,,,,,,,,,,,,,,,,,,,,,,,,417.8424,0,50,50,23,1,109,0,0,0,0,1,98,,,,,,,,,,,,,,,,,,,,,,,,,,,,,,,,,,,,,,,,,,,,,,,,,,,,,,,,,,,,,,,,,,,,,,,,,,
,,,,629815,001,2024-02-02_18h39.08.198,fluency,2022.2.5,Win32,60.24096386,,,,,,,,,,,,,,,,,,,,,,,,,,,,,,,,,,,,,,,,,,,,,,,,,,,,,,,,,,,,,,,,,,,,,,,,,,,,,,,,,,0,0,0,0,1,,"[""j""]",[0.7389000000022179],1,"[""j""]",[0.7389000000022179],,,,,,,,,,,,,,,,,,,,,,,,,,,,,,,,,,,,,,,,,,,,,,,,,,,,,,,,,,,,,,,,,,,,,
,,,,629815,001,2024-02-02_18h39.08.198,fluency,2022.2.5,Win32,60.24096386,,,,,,,,,,,,,,,,,,,,,,,1,3,img/B03_01.jpg,GCNB,Press J if the face is GENDER-CONFORMING and K if the face is NONBINARY,Gender-conforming means that the face appears to be a typical example of its gender. Nonbinary means that the face does not conform to any particular gender norms.,JK,,,,,,,,,,,,,,,,,,,,,,,,,,,,,,,,5,0.2759,,,,,,,,,,,,,,0,50,50,23,1,,,,,,,,,,,,,space,0.4092,,,,,,,,,,,,,,,,,,,,,,,,,,,,,,,,,,,,,,,,,,,,,,,,,,,,,,,,,,,,,,,,,,,
,,,,629815,001,2024-02-02_18h39.08.198,fluency,2022.2.5,Win32,60.24096386,,,,,,,,,,,,,,,,,,,,,,,1,5,img/B05_01.jpg,GCNB,Press J if the face is GENDER-CONFORMING and K if the face is NONBINARY,Gender-conforming means that the face appears to be a typical example of its gender. Nonbinary means that the face does not conform to any particular gender norms.,JK,,,,,,,,,,,,,,,,,,,,,,,,,,,,,,,,,,,,,,,,,,,,,,423.5601,0,51,51,45,1,109,0,0,0,0,1,98,,,,,,,,,,,,,,,,,,,,,,,,,,,,,,,,,,,,,,,,,,,,,,,,,,,,,,,,,,,,,,,,,,,,,,,,,,
,,,,629815,001,2024-02-02_18h39.08.198,fluency,2022.2.5,Win32,60.24096386,,,,,,,,,,,,,,,,,,,,,,,,,,,,,,,,,,,,,,,,,,,,,,,,,,,,,,,,,,,,,,,,,,,,,,,,,,,,,,,,,,0,0,0,0,1,,"[""j""]",[1.961599999997759],1,"[""j""]",[1.9616999999992686],,,,,,,,,,,,,,,,,,,,,,,,,,,,,,,,,,,,,,,,,,,,,,,,,,,,,,,,,,,,,,,,,,,,,
,,,,629815,001,2024-02-02_18h39.08.198,fluency,2022.2.5,Win32,60.24096386,,,,,,,,,,,,,,,,,,,,,,,1,5,img/B05_01.jpg,GCNB,Press J if the face is GENDER-CONFORMING and K if the face is NONBINARY,Gender-conforming means that the face appears to be a typical example of its gender. Nonbinary means that the face does not conform to any particular gender norms.,JK,,,,,,,,,,,,,,,,,,,,,,,,,,,,,,,,2,0.419,,,,,,,,,,,,,,0,51,51,45,1,,,,,,,,,,,,,space,0.1864,,,,,,,,,,,,,,,,,,,,,,,,,,,,,,,,,,,,,,,,,,,,,,,,,,,,,,,,,,,,,,,,,,,
,,,,629815,001,2024-02-02_18h39.08.198,fluency,2022.2.5,Win32,60.24096386,,,,,,,,,,,,,,,,,,,,,,,10,9,img/B09_10.jpg,GCNB,Press J if the face is GENDER-CONFORMING and K if the face is NONBINARY,Gender-conforming means that the face appears to be a typical example of its gender. Nonbinary means that the face does not conform to any particular gender norms.,JK,,,,,,,,,,,,,,,,,,,,,,,,,,,,,,,,,,,,,,,,,,,,,,428.2141,0,52,52,98,1,109,0,0,0,0,1,98,,,,,,,,,,,,,,,,,,,,,,,,,,,,,,,,,,,,,,,,,,,,,,,,,,,,,,,,,,,,,,,,,,,,,,,,,,
,,,,629815,001,2024-02-02_18h39.08.198,fluency,2022.2.5,Win32,60.24096386,,,,,,,,,,,,,,,,,,,,,,,,,,,,,,,,,,,,,,,,,,,,,,,,,,,,,,,,,,,,,,,,,,,,,,,,,,,,,,,,,,0,0,0,0,1,,"[""k""]",[1.0043999999984976],1,"[""k""]",[1.0043999999984976],,,,,,,,,,,,,,,,,,,,,,,,,,,,,,,,,,,,,,,,,,,,,,,,,,,,,,,,,,,,,,,,,,,,,
,,,,629815,001,2024-02-02_18h39.08.198,fluency,2022.2.5,Win32,60.24096386,,,,,,,,,,,,,,,,,,,,,,,10,9,img/B09_10.jpg,GCNB,Press J if the face is GENDER-CONFORMING and K if the face is NONBINARY,Gender-conforming means that the face appears to be a typical example of its gender. Nonbinary means that the face does not conform to any particular gender norms.,JK,,,,,,,,,,,,,,,,,,,,,,,,,,,,,,,,6,0.526,,,,,,,,,,,,,,0,52,52,98,1,,,,,,,,,,,,,space,0.2147,,,,,,,,,,,,,,,,,,,,,,,,,,,,,,,,,,,,,,,,,,,,,,,,,,,,,,,,,,,,,,,,,,,
,,,,629815,001,2024-02-02_18h39.08.198,fluency,2022.2.5,Win32,60.24096386,,,,,,,,,,,,,,,,,,,,,,,4,5,img/B05_04.jpg,GCNB,Press J if the face is GENDER-CONFORMING and K if the face is NONBINARY,Gender-conforming means that the face appears to be a typical example of its gender. Nonbinary means that the face does not conform to any particular gender norms.,JK,,,,,,,,,,,,,,,,,,,,,,,,,,,,,,,,,,,,,,,,,,,,,,433.9985,0,53,53,48,1,109,0,0,0,0,1,98,,,,,,,,,,,,,,,,,,,,,,,,,,,,,,,,,,,,,,,,,,,,,,,,,,,,,,,,,,,,,,,,,,,,,,,,,,
,,,,629815,001,2024-02-02_18h39.08.198,fluency,2022.2.5,Win32,60.24096386,,,,,,,,,,,,,,,,,,,,,,,,,,,,,,,,,,,,,,,,,,,,,,,,,,,,,,,,,,,,,,,,,,,,,,,,,,,,,,,,,,0,0,0,0,1,,"[""k""]",[1.4643999999984771],1,"[""k""]",[1.4643000000007191],,,,,,,,,,,,,,,,,,,,,,,,,,,,,,,,,,,,,,,,,,,,,,,,,,,,,,,,,,,,,,,,,,,,,
,,,,629815,001,2024-02-02_18h39.08.198,fluency,2022.2.5,Win32,60.24096386,,,,,,,,,,,,,,,,,,,,,,,4,5,img/B05_04.jpg,GCNB,Press J if the face is GENDER-CONFORMING and K if the face is NONBINARY,Gender-conforming means that the face appears to be a typical example of its gender. Nonbinary means that the face does not conform to any particular gender norms.,JK,,,,,,,,,,,,,,,,,,,,,,,,,,,,,,,,4,0.2902,,,,,,,,,,,,,,0,53,53,48,1,,,,,,,,,,,,,space,0.1837,,,,,,,,,,,,,,,,,,,,,,,,,,,,,,,,,,,,,,,,,,,,,,,,,,,,,,,,,,,,,,,,,,,
,,,,629815,001,2024-02-02_18h39.08.198,fluency,2022.2.5,Win32,60.24096386,,,,,,,,,,,,,,,,,,,,,,,8,6,img/B06_08.jpg,GCNB,Press J if the face is GENDER-CONFORMING and K if the face is NONBINARY,Gender-conforming means that the face appears to be a typical example of its gender. Nonbinary means that the face does not conform to any particular gender norms.,JK,,,,,,,,,,,,,,,,,,,,,,,,,,,,,,,,,,,,,,,,,,,,,,438.5193,0,54,54,63,1,109,0,0,0,0,1,98,,,,,,,,,,,,,,,,,,,,,,,,,,,,,,,,,,,,,,,,,,,,,,,,,,,,,,,,,,,,,,,,,,,,,,,,,,
,,,,629815,001,2024-02-02_18h39.08.198,fluency,2022.2.5,Win32,60.24096386,,,,,,,,,,,,,,,,,,,,,,,,,,,,,,,,,,,,,,,,,,,,,,,,,,,,,,,,,,,,,,,,,,,,,,,,,,,,,,,,,,,,,,,,,,2,,,,,space,1.0455,0,0,0,0,1,,,,,,,,,,,,,,,,,,,,,,,,,,,,,,,,,,,,,,,,,,,,,,,,,,,,,,,,,,,,
,,,,629815,001,2024-02-02_18h39.08.198,fluency,2022.2.5,Win32,60.24096386,,,,,,,,,,,,,,,,,,,,,,,,,,,,,,,,,,,,,,,,,,,,,,,,,,,,,,,,,,,,,,,,,,,,,,,,,,,,,,,,,,0,0,0,0,1,,,,,,,,,,,,,,,,,,,,,,,,,,,,,,,,,,,,,,,,,,,,,,,,,,,,,,,,,,,,,,,,,,,,,,,,,,,
,,,,629815,001,2024-02-02_18h39.08.198,fluency,2022.2.5,Win32,60.24096386,,,,,,,,,,,,,,,,,,,,,,,8,6,img/B06_08.jpg,GCNB,Press J if the face is GENDER-CONFORMING and K if the face is NONBINARY,Gender-conforming means that the face appears to be a typical example of its gender. Nonbinary means that the face does not conform to any particular gender norms.,JK,,,,,,,,,,,,,,,,,,,,,,,,,,,,,,,,,,,,,,,,,,,,,,444.5863,0,54,54,63,1,109,1,0,1,0,1,98,,,,,,,,,,,,,,,,,,,,,,,,,,,,,,,,,,,,,,,,,,,,,,,,,,,,,,,,,,,,,,,,,,,,,,,,,,
,,,,629815,001,2024-02-02_18h39.08.198,fluency,2022.2.5,Win32,60.24096386,,,,,,,,,,,,,,,,,,,,,,,,,,,,,,,,,,,,,,,,,,,,,,,,,,,,,,,,,,,,,,,,,,,,,,,,,,,,,,,,,,1,0,1,0,1,,"[""k""]",[0.7513999999985117],2,"[""k"",""5""]","[0.7513999999985117,2.7410999999978003]",,,,,,,,,,,,,,,,,,,,,,,,,,,,,,,,,,,,,,,,,,,,,,,,,,,,,,,,,,,,,,,,,,,,,
,,,,629815,001,2024-02-02_18h39.08.198,fluency,2022.2.5,Win32,60.24096386,,,,,,,,,,,,,,,,,,,,,,,8,6,img/B06_08.jpg,GCNB,Press J if the face is GENDER-CONFORMING and K if the face is NONBINARY,Gender-conforming means that the face appears to be a typical example of its gender. Nonbinary means that the face does not conform to any particular gender norms.,JK,,,,,,,,,,,,,,,,,,,,,,,,,,,,,,,,5,0.3605,,,,,,,,,,,,,,0,54,54,63,1,,,,,,,,,,,,,space,0.2314,,,,,,,,,,,,,,,,,,,,,,,,,,,,,,,,,,,,,,,,,,,,,,,,,,,,,,,,,,,,,,,,,,,
,,,,629815,001,2024-02-02_18h39.08.198,fluency,2022.2.5,Win32,60.24096386,,,,,,,,,,,,,,,,,,,,,,,10,10,img/B10_10.jpg,GCNB,Press J if the face is GENDER-CONFORMING and K if the face is NONBINARY,Gender-conforming means that the face appears to be a typical example of its gender. Nonbinary means that the face does not conform to any particular gender norms.,JK,,,,,,,,,,,,,,,,,,,,,,,,,,,,,,,,,,,,,,,,,,,,,,449.2236,0,55,55,109,1,109,0,0,0,0,1,98,,,,,,,,,,,,,,,,,,,,,,,,,,,,,,,,,,,,,,,,,,,,,,,,,,,,,,,,,,,,,,,,,,,,,,,,,,
,,,,629815,001,2024-02-02_18h39.08.198,fluency,2022.2.5,Win32,60.24096386,,,,,,,,,,,,,,,,,,,,,,,,,,,,,,,,,,,,,,,,,,,,,,,,,,,,,,,,,,,,,,,,,,,,,,,,,,,,,,,,,,0,0,0,0,1,,"[""j""]",[0.9461000000014792],2,"[""j""]",[0.9461000000014792],,,,,,,,,,,,,,,,,,,,,,,,,,,,,,,,,,,,,,,,,,,,,,,,,,,,,,,,,,,,,,,,,,,,,
,,,,629815,001,2024-02-02_18h39.08.198,fluency,2022.2.5,Win32,60.24096386,,,,,,,,,,,,,,,,,,,,,,,10,10,img/B10_10.jpg,GCNB,Press J if the face is GENDER-CONFORMING and K if the face is NONBINARY,Gender-conforming means that the face appears to be a typical example of its gender. Nonbinary means that the face does not conform to any particular gender norms.,JK,,,,,,,,,,,,,,,,,,,,,,,,,,,,,,,,4,0.3995,,,,,,,,,,,,,,0,55,55,109,1,,,,,,,,,,,,,space,0.4175,,,,,,,,,,,,,,,,,,,,,,,,,,,,,,,,,,,,,,,,,,,,,,,,,,,,,,,,,,,,,,,,,,,
,,,,629815,001,2024-02-02_18h39.08.198,fluency,2022.2.5,Win32,60.24096386,,,,,,,,,,,,,,,,,,,,,,,4,10,img/B10_04.jpg,GCNB,Press J if the face is GENDER-CONFORMING and K if the face is NONBINARY,Gender-conforming means that the face appears to be a typical example of its gender. Nonbinary means that the face does not conform to any particular gender norms.,JK,,,,,,,,,,,,,,,,,,,,,,,,,,,,,,,,,,,,,,,,,,,,,,455.0907,0,56,56,103,1,109,0,0,0,0,1,98,,,,,,,,,,,,,,,,,,,,,,,,,,,,,,,,,,,,,,,,,,,,,,,,,,,,,,,,,,,,,,,,,,,,,,,,,,
,,,,629815,001,2024-02-02_18h39.08.198,fluency,2022.2.5,Win32,60.24096386,,,,,,,,,,,,,,,,,,,,,,,,,,,,,,,,,,,,,,,,,,,,,,,,,,,,,,,,,,,,,,,,,,,,,,,,,,,,,,,,,,0,0,0,0,1,,"[""k""]",[1.6462999999969838],2,"[""k""]",[1.6462999999969838],,,,,,,,,,,,,,,,,,,,,,,,,,,,,,,,,,,,,,,,,,,,,,,,,,,,,,,,,,,,,,,,,,,,,
,,,,629815,001,2024-02-02_18h39.08.198,fluency,2022.2.5,Win32,60.24096386,,,,,,,,,,,,,,,,,,,,,,,4,10,img/B10_04.jpg,GCNB,Press J if the face is GENDER-CONFORMING and K if the face is NONBINARY,Gender-conforming means that the face appears to be a typical example of its gender. Nonbinary means that the face does not conform to any particular gender norms.,JK,,,,,,,,,,,,,,,,,,,,,,,,,,,,,,,,4,0.4224,,,,,,,,,,,,,,0,56,56,103,1,,,,,,,,,,,,,space,0.2769,,,,,,,,,,,,,,,,,,,,,,,,,,,,,,,,,,,,,,,,,,,,,,,,,,,,,,,,,,,,,,,,,,,
,,,,629815,001,2024-02-02_18h39.08.198,fluency,2022.2.5,Win32,60.24096386,,,,,,,,,,,,,,,,,,,,,,,1,6,img/B06_01.jpg,GCNB,Press J if the face is GENDER-CONFORMING and K if the face is NONBINARY,Gender-conforming means that the face appears to be a typical example of its gender. Nonbinary means that the face does not conform to any particular gender norms.,JK,,,,,,,,,,,,,,,,,,,,,,,,,,,,,,,,,,,,,,,,,,,,,,459.8279,0,57,57,56,1,109,0,0,0,0,1,98,,,,,,,,,,,,,,,,,,,,,,,,,,,,,,,,,,,,,,,,,,,,,,,,,,,,,,,,,,,,,,,,,,,,,,,,,,
,,,,629815,001,2024-02-02_18h39.08.198,fluency,2022.2.5,Win32,60.24096386,,,,,,,,,,,,,,,,,,,,,,,,,,,,,,,,,,,,,,,,,,,,,,,,,,,,,,,,,,,,,,,,,,,,,,,,,,,,,,,,,,0,0,0,0,1,,"[""k""]",[0.8078000000007819],2,"[""k""]",[0.8078000000007819],,,,,,,,,,,,,,,,,,,,,,,,,,,,,,,,,,,,,,,,,,,,,,,,,,,,,,,,,,,,,,,,,,,,,
,,,,629815,001,2024-02-02_18h39.08.198,fluency,2022.2.5,Win32,60.24096386,,,,,,,,,,,,,,,,,,,,,,,1,6,img/B06_01.jpg,GCNB,Press J if the face is GENDER-CONFORMING and K if the face is NONBINARY,Gender-conforming means that the face appears to be a typical example of its gender. Nonbinary means that the face does not conform to any particular gender norms.,JK,,,,,,,,,,,,,,,,,,,,,,,,,,,,,,,,4,0.3193,,,,,,,,,,,,,,0,57,57,56,1,,,,,,,,,,,,,space,0.204,,,,,,,,,,,,,,,,,,,,,,,,,,,,,,,,,,,,,,,,,,,,,,,,,,,,,,,,,,,,,,,,,,,
,,,,629815,001,2024-02-02_18h39.08.198,fluency,2022.2.5,Win32,60.24096386,,,,,,,,,,,,,,,,,,,,,,,3,10,img/B10_03.jpg,GCNB,Press J if the face is GENDER-CONFORMING and K if the face is NONBINARY,Gender-conforming means that the face appears to be a typical example of its gender. Nonbinary means that the face does not conform to any particular gender norms.,JK,,,,,,,,,,,,,,,,,,,,,,,,,,,,,,,,,,,,,,,,,,,,,,465.3959,0,58,58,102,1,109,0,0,0,0,1,98,,,,,,,,,,,,,,,,,,,,,,,,,,,,,,,,,,,,,,,,,,,,,,,,,,,,,,,,,,,,,,,,,,,,,,,,,,
,,,,629815,001,2024-02-02_18h39.08.198,fluency,2022.2.5,Win32,60.24096386,,,,,,,,,,,,,,,,,,,,,,,,,,,,,,,,,,,,,,,,,,,,,,,,,,,,,,,,,,,,,,,,,,,,,,,,,,,,,,,,,,0,0,0,0,1,,"[""j""]",[0.6721000000014783],2,"[""j""]",[0.6721000000014783],,,,,,,,,,,,,,,,,,,,,,,,,,,,,,,,,,,,,,,,,,,,,,,,,,,,,,,,,,,,,,,,,,,,,
,,,,629815,001,2024-02-02_18h39.08.198,fluency,2022.2.5,Win32,60.24096386,,,,,,,,,,,,,,,,,,,,,,,3,10,img/B10_03.jpg,GCNB,Press J if the face is GENDER-CONFORMING and K if the face is NONBINARY,Gender-conforming means that the face appears to be a typical example of its gender. Nonbinary means that the face does not conform to any particular gender norms.,JK,,,,,,,,,,,,,,,,,,,,,,,,,,,,,,,,8,0.3019,,,,,,,,,,,,,,0,58,58,102,1,,,,,,,,,,,,,space,0.1996,,,,,,,,,,,,,,,,,,,,,,,,,,,,,,,,,,,,,,,,,,,,,,,,,,,,,,,,,,,,,,,,,,,
,,,,629815,001,2024-02-02_18h39.08.198,fluency,2022.2.5,Win32,60.24096386,,,,,,,,,,,,,,,,,,,,,,,4,1,img/B01_04.jpg,GCNB,Press J if the face is GENDER-CONFORMING and K if the face is NONBINARY,Gender-conforming means that the face appears to be a typical example of its gender. Nonbinary means that the face does not conform to any particular gender norms.,JK,,,,,,,,,,,,,,,,,,,,,,,,,,,,,,,,,,,,,,,,,,,,,,469.9503,0,59,59,4,1,109,0,0,0,0,1,98,,,,,,,,,,,,,,,,,,,,,,,,,,,,,,,,,,,,,,,,,,,,,,,,,,,,,,,,,,,,,,,,,,,,,,,,,,
,,,,629815,001,2024-02-02_18h39.08.198,fluency,2022.2.5,Win32,60.24096386,,,,,,,,,,,,,,,,,,,,,,,,,,,,,,,,,,,,,,,,,,,,,,,,,,,,,,,,,,,,,,,,,,,,,,,,,,,,,,,,,,0,0,0,0,1,,"[""k""]",[1.3045000000001323],2,"[""k""]",[1.3045000000001323],,,,,,,,,,,,,,,,,,,,,,,,,,,,,,,,,,,,,,,,,,,,,,,,,,,,,,,,,,,,,,,,,,,,,
,,,,629815,001,2024-02-02_18h39.08.198,fluency,2022.2.5,Win32,60.24096386,,,,,,,,,,,,,,,,,,,,,,,4,1,img/B01_04.jpg,GCNB,Press J if the face is GENDER-CONFORMING and K if the face is NONBINARY,Gender-conforming means that the face appears to be a typical example of its gender. Nonbinary means that the face does not conform to any particular gender norms.,JK,,,,,,,,,,,,,,,,,,,,,,,,,,,,,,,,4,0.4776,,,,,,,,,,,,,,0,59,59,4,1,,,,,,,,,,,,,space,0.1541,,,,,,,,,,,,,,,,,,,,,,,,,,,,,,,,,,,,,,,,,,,,,,,,,,,,,,,,,,,,,,,,,,,
,,,,629815,001,2024-02-02_18h39.08.198,fluency,2022.2.5,Win32,60.24096386,,,,,,,,,,,,,,,,,,,,,,,2,1,img/B01_02.jpg,GCNB,Press J if the face is GENDER-CONFORMING and K if the face is NONBINARY,Gender-conforming means that the face appears to be a typical example of its gender. Nonbinary means that the face does not conform to any particular gender norms.,JK,,,,,,,,,,,,,,,,,,,,,,,,,,,,,,,,,,,,,,,,,,,,,,475.6181,0,60,60,2,1,109,0,0,0,0,1,98,,,,,,,,,,,,,,,,,,,,,,,,,,,,,,,,,,,,,,,,,,,,,,,,,,,,,,,,,,,,,,,,,,,,,,,,,,
,,,,629815,001,2024-02-02_18h39.08.198,fluency,2022.2.5,Win32,60.24096386,,,,,,,,,,,,,,,,,,,,,,,,,,,,,,,,,,,,,,,,,,,,,,,,,,,,,,,,,,,,,,,,,,,,,,,,,,,,,,,,,,0,0,0,0,1,,"[""j""]",[2.369699999999284],2,"[""j""]",[2.369699999999284],,,,,,,,,,,,,,,,,,,,,,,,,,,,,,,,,,,,,,,,,,,,,,,,,,,,,,,,,,,,,,,,,,,,,
,,,,629815,001,2024-02-02_18h39.08.198,fluency,2022.2.5,Win32,60.24096386,,,,,,,,,,,,,,,,,,,,,,,2,1,img/B01_02.jpg,GCNB,Press J if the face is GENDER-CONFORMING and K if the face is NONBINARY,Gender-conforming means that the face appears to be a typical example of its gender. Nonbinary means that the face does not conform to any particular gender norms.,JK,,,,,,,,,,,,,,,,,,,,,,,,,,,,,,,,4,1.0687,,,,,,,,,,,,,,0,60,60,2,1,,,,,,,,,,,,,space,0.215,,,,,,,,,,,,,,,,,,,,,,,,,,,,,,,,,,,,,,,,,,,,,,,,,,,,,,,,,,,,,,,,,,,
,,,,629815,001,2024-02-02_18h39.08.198,fluency,2022.2.5,Win32,60.24096386,,,,,,,,,,,,,,,,,,,,,,,0,6,img/B06_00.jpg,GCNB,Press J if the face is GENDER-CONFORMING and K if the face is NONBINARY,Gender-conforming means that the face appears to be a typical example of its gender. Nonbinary means that the face does not conform to any particular gender norms.,JK,,,,,,,,,,,,,,,,,,,,,,,,,,,,,,,,,,,,,,,,,,,,,,480.9542,0,61,61,55,1,109,0,0,0,0,1,98,,,,,,,,,,,,,,,,,,,,,,,,,,,,,,,,,,,,,,,,,,,,,,,,,,,,,,,,,,,,,,,,,,,,,,,,,,
,,,,629815,001,2024-02-02_18h39.08.198,fluency,2022.2.5,Win32,60.24096386,,,,,,,,,,,,,,,,,,,,,,,,,,,,,,,,,,,,,,,,,,,,,,,,,,,,,,,,,,,,,,,,,,,,,,,,,,,,,,,,,,0,0,0,0,1,,"[""j""]",[1.5451000000015256],2,"[""j""]",[1.545099999997774],,,,,,,,,,,,,,,,,,,,,,,,,,,,,,,,,,,,,,,,,,,,,,,,,,,,,,,,,,,,,,,,,,,,,
,,,,629815,001,2024-02-02_18h39.08.198,fluency,2022.2.5,Win32,60.24096386,,,,,,,,,,,,,,,,,,,,,,,0,6,img/B06_00.jpg,GCNB,Press J if the face is GENDER-CONFORMING and K if the face is NONBINARY,Gender-conforming means that the face appears to be a typical example of its gender. Nonbinary means that the face does not conform to any particular gender norms.,JK,,,,,,,,,,,,,,,,,,,,,,,,,,,,,,,,4,0.3225,,,,,,,,,,,,,,0,61,61,55,1,,,,,,,,,,,,,space,0.2413,,,,,,,,,,,,,,,,,,,,,,,,,,,,,,,,,,,,,,,,,,,,,,,,,,,,,,,,,,,,,,,,,,,
,,,,629815,001,2024-02-02_18h39.08.198,fluency,2022.2.5,Win32,60.24096386,,,,,,,,,,,,,,,,,,,,,,,6,5,img/B05_06.jpg,GCNB,Press J if the face is GENDER-CONFORMING and K if the face is NONBINARY,Gender-conforming means that the face appears to be a typical example of its gender. Nonbinary means that the face does not conform to any particular gender norms.,JK,,,,,,,,,,,,,,,,,,,,,,,,,,,,,,,,,,,,,,,,,,,,,,485.5574,0,62,62,50,1,109,0,0,0,0,1,98,,,,,,,,,,,,,,,,,,,,,,,,,,,,,,,,,,,,,,,,,,,,,,,,,,,,,,,,,,,,,,,,,,,,,,,,,,
,,,,629815,001,2024-02-02_18h39.08.198,fluency,2022.2.5,Win32,60.24096386,,,,,,,,,,,,,,,,,,,,,,,,,,,,,,,,,,,,,,,,,,,,,,,,,,,,,,,,,,,,,,,,,,,,,,,,,,,,,,,,,,0,0,0,0,1,,"[""j""]",[1.4296000000014146],2,"[""j""]",[1.4296000000014146],,,,,,,,,,,,,,,,,,,,,,,,,,,,,,,,,,,,,,,,,,,,,,,,,,,,,,,,,,,,,,,,,,,,,
,,,,629815,001,2024-02-02_18h39.08.198,fluency,2022.2.5,Win32,60.24096386,,,,,,,,,,,,,,,,,,,,,,,6,5,img/B05_06.jpg,GCNB,Press J if the face is GENDER-CONFORMING and K if the face is NONBINARY,Gender-conforming means that the face appears to be a typical example of its gender. Nonbinary means that the face does not conform to any particular gender norms.,JK,,,,,,,,,,,,,,,,,,,,,,,,,,,,,,,,6,0.349,,,,,,,,,,,,,,0,62,62,50,1,,,,,,,,,,,,,space,0.2247,,,,,,,,,,,,,,,,,,,,,,,,,,,,,,,,,,,,,,,,,,,,,,,,,,,,,,,,,,,,,,,,,,,
,,,,629815,001,2024-02-02_18h39.08.198,fluency,2022.2.5,Win32,60.24096386,,,,,,,,,,,,,,,,,,,,,,,8,9,img/B09_08.jpg,GCNB,Press J if the face is GENDER-CONFORMING and K if the face is NONBINARY,Gender-conforming means that the face appears to be a typical example of its gender. Nonbinary means that the face does not conform to any particular gender norms.,JK,,,,,,,,,,,,,,,,,,,,,,,,,,,,,,,,,,,,,,,,,,,,,,491.1755,0,63,63,96,1,109,0,0,0,0,1,98,,,,,,,,,,,,,,,,,,,,,,,,,,,,,,,,,,,,,,,,,,,,,,,,,,,,,,,,,,,,,,,,,,,,,,,,,,
,,,,629815,001,2024-02-02_18h39.08.198,fluency,2022.2.5,Win32,60.24096386,,,,,,,,,,,,,,,,,,,,,,,,,,,,,,,,,,,,,,,,,,,,,,,,,,,,,,,,,,,,,,,,,,,,,,,,,,,,,,,,,,0,0,0,0,1,,"[""j""]",[0.8341000000015129],2,"[""j""]",[0.8341000000015129],,,,,,,,,,,,,,,,,,,,,,,,,,,,,,,,,,,,,,,,,,,,,,,,,,,,,,,,,,,,,,,,,,,,,
,,,,629815,001,2024-02-02_18h39.08.198,fluency,2022.2.5,Win32,60.24096386,,,,,,,,,,,,,,,,,,,,,,,8,9,img/B09_08.jpg,GCNB,Press J if the face is GENDER-CONFORMING and K if the face is NONBINARY,Gender-conforming means that the face appears to be a typical example of its gender. Nonbinary means that the face does not conform to any particular gender norms.,JK,,,,,,,,,,,,,,,,,,,,,,,,,,,,,,,,8,0.3522,,,,,,,,,,,,,,0,63,63,96,1,,,,,,,,,,,,,space,0.2663,,,,,,,,,,,,,,,,,,,,,,,,,,,,,,,,,,,,,,,,,,,,,,,,,,,,,,,,,,,,,,,,,,,
,,,,629815,001,2024-02-02_18h39.08.198,fluency,2022.2.5,Win32,60.24096386,,,,,,,,,,,,,,,,,,,,,,,4,3,img/B03_04.jpg,GCNB,Press J if the face is GENDER-CONFORMING and K if the face is NONBINARY,Gender-conforming means that the face appears to be a typical example of its gender. Nonbinary means that the face does not conform to any particular gender norms.,JK,,,,,,,,,,,,,,,,,,,,,,,,,,,,,,,,,,,,,,,,,,,,,,495.8461,0,64,64,26,1,109,0,0,0,0,1,98,,,,,,,,,,,,,,,,,,,,,,,,,,,,,,,,,,,,,,,,,,,,,,,,,,,,,,,,,,,,,,,,,,,,,,,,,,
,,,,629815,001,2024-02-02_18h39.08.198,fluency,2022.2.5,Win32,60.24096386,,,,,,,,,,,,,,,,,,,,,,,,,,,,,,,,,,,,,,,,,,,,,,,,,,,,,,,,,,,,,,,,,,,,,,,,,,,,,,,,,,0,0,0,0,1,,"[""k""]",[1.8274999999999864],2,"[""k""]",[1.8274999999999864],,,,,,,,,,,,,,,,,,,,,,,,,,,,,,,,,,,,,,,,,,,,,,,,,,,,,,,,,,,,,,,,,,,,,
,,,,629815,001,2024-02-02_18h39.08.198,fluency,2022.2.5,Win32,60.24096386,,,,,,,,,,,,,,,,,,,,,,,4,3,img/B03_04.jpg,GCNB,Press J if the face is GENDER-CONFORMING and K if the face is NONBINARY,Gender-conforming means that the face appears to be a typical example of its gender. Nonbinary means that the face does not conform to any particular gender norms.,JK,,,,,,,,,,,,,,,,,,,,,,,,,,,,,,,,5,0.6316,,,,,,,,,,,,,,0,64,64,26,1,,,,,,,,,,,,,space,0.1996,,,,,,,,,,,,,,,,,,,,,,,,,,,,,,,,,,,,,,,,,,,,,,,,,,,,,,,,,,,,,,,,,,,
,,,,629815,001,2024-02-02_18h39.08.198,fluency,2022.2.5,Win32,60.24096386,,,,,,,,,,,,,,,,,,,,,,,5,1,img/B01_05.jpg,GCNB,Press J if the face is GENDER-CONFORMING and K if the face is NONBINARY,Gender-conforming means that the face appears to be a typical example of its gender. Nonbinary means that the face does not conform to any particular gender norms.,JK,,,,,,,,,,,,,,,,,,,,,,,,,,,,,,,,,,,,,,,,,,,,,,501.73,0,65,65,5,1,109,0,0,0,0,1,98,,,,,,,,,,,,,,,,,,,,,,,,,,,,,,,,,,,,,,,,,,,,,,,,,,,,,,,,,,,,,,,,,,,,,,,,,,
,,,,629815,001,2024-02-02_18h39.08.198,fluency,2022.2.5,Win32,60.24096386,,,,,,,,,,,,,,,,,,,,,,,,,,,,,,,,,,,,,,,,,,,,,,,,,,,,,,,,,,,,,,,,,,,,,,,,,,,,,,,,,,0,0,0,0,1,,"[""k""]",[1.8443000000007714],2,"[""k""]",[1.844400000002338],,,,,,,,,,,,,,,,,,,,,,,,,,,,,,,,,,,,,,,,,,,,,,,,,,,,,,,,,,,,,,,,,,,,,
,,,,629815,001,2024-02-02_18h39.08.198,fluency,2022.2.5,Win32,60.24096386,,,,,,,,,,,,,,,,,,,,,,,5,1,img/B01_05.jpg,GCNB,Press J if the face is GENDER-CONFORMING and K if the face is NONBINARY,Gender-conforming means that the face appears to be a typical example of its gender. Nonbinary means that the face does not conform to any particular gender norms.,JK,,,,,,,,,,,,,,,,,,,,,,,,,,,,,,,,4,1.18,,,,,,,,,,,,,,0,65,65,5,1,,,,,,,,,,,,,space,0.1779,,,,,,,,,,,,,,,,,,,,,,,,,,,,,,,,,,,,,,,,,,,,,,,,,,,,,,,,,,,,,,,,,,,
,,,,629815,001,2024-02-02_18h39.08.198,fluency,2022.2.5,Win32,60.24096386,,,,,,,,,,,,,,,,,,,,,,,9,3,img/B03_09.jpg,GCNB,Press J if the face is GENDER-CONFORMING and K if the face is NONBINARY,Gender-conforming means that the face appears to be a typical example of its gender. Nonbinary means that the face does not conform to any particular gender norms.,JK,,,,,,,,,,,,,,,,,,,,,,,,,,,,,,,,,,,,,,,,,,,,,,508.1293,0,66,66,31,1,109,0,0,0,0,1,98,,,,,,,,,,,,,,,,,,,,,,,,,,,,,,,,,,,,,,,,,,,,,,,,,,,,,,,,,,,,,,,,,,,,,,,,,,
,,,,629815,001,2024-02-02_18h39.08.198,fluency,2022.2.5,Win32,60.24096386,,,,,,,,,,,,,,,,,,,,,,,,,,,,,,,,,,,,,,,,,,,,,,,,,,,,,,,,,,,,,,,,,,,,,,,,,,,,,,,,,,0,0,0,0,1,,"[""j""]",[1.189700000002972],2,"[""j""]",[1.1896000000014055],,,,,,,,,,,,,,,,,,,,,,,,,,,,,,,,,,,,,,,,,,,,,,,,,,,,,,,,,,,,,,,,,,,,,
,,,,629815,001,2024-02-02_18h39.08.198,fluency,2022.2.5,Win32,60.24096386,,,,,,,,,,,,,,,,,,,,,,,9,3,img/B03_09.jpg,GCNB,Press J if the face is GENDER-CONFORMING and K if the face is NONBINARY,Gender-conforming means that the face appears to be a typical example of its gender. Nonbinary means that the face does not conform to any particular gender norms.,JK,,,,,,,,,,,,,,,,,,,,,,,,,,,,,,,,5,0.5319,,,,,,,,,,,,,,0,66,66,31,1,,,,,,,,,,,,,space,0.1996,,,,,,,,,,,,,,,,,,,,,,,,,,,,,,,,,,,,,,,,,,,,,,,,,,,,,,,,,,,,,,,,,,,
,,,,629815,001,2024-02-02_18h39.08.198,fluency,2022.2.5,Win32,60.24096386,,,,,,,,,,,,,,,,,,,,,,,7,7,img/B07_07.jpg,GCNB,Press J if the face is GENDER-CONFORMING and K if the face is NONBINARY,Gender-conforming means that the face appears to be a typical example of its gender. Nonbinary means that the face does not conform to any particular gender norms.,JK,,,,,,,,,,,,,,,,,,,,,,,,,,,,,,,,,,,,,,,,,,,,,,513.9132,0,67,67,73,1,109,0,0,0,0,1,98,,,,,,,,,,,,,,,,,,,,,,,,,,,,,,,,,,,,,,,,,,,,,,,,,,,,,,,,,,,,,,,,,,,,,,,,,,
,,,,629815,001,2024-02-02_18h39.08.198,fluency,2022.2.5,Win32,60.24096386,,,,,,,,,,,,,,,,,,,,,,,,,,,,,,,,,,,,,,,,,,,,,,,,,,,,,,,,,,,,,,,,,,,,,,,,,,,,,,,,,,0,0,0,0,1,,"[""j""]",[1.3454000000023143],2,"[""j""]",[1.3454000000023143],,,,,,,,,,,,,,,,,,,,,,,,,,,,,,,,,,,,,,,,,,,,,,,,,,,,,,,,,,,,,,,,,,,,,
,,,,629815,001,2024-02-02_18h39.08.198,fluency,2022.2.5,Win32,60.24096386,,,,,,,,,,,,,,,,,,,,,,,7,7,img/B07_07.jpg,GCNB,Press J if the face is GENDER-CONFORMING and K if the face is NONBINARY,Gender-conforming means that the face appears to be a typical example of its gender. Nonbinary means that the face does not conform to any particular gender norms.,JK,,,,,,,,,,,,,,,,,,,,,,,,,,,,,,,,6,0.308,,,,,,,,,,,,,,0,67,67,73,1,,,,,,,,,,,,,space,0.2899,,,,,,,,,,,,,,,,,,,,,,,,,,,,,,,,,,,,,,,,,,,,,,,,,,,,,,,,,,,,,,,,,,,
,,,,629815,001,2024-02-02_18h39.08.198,fluency,2022.2.5,Win32,60.24096386,,,,,,,,,,,,,,,,,,,,,,,9,4,img/B04_09.jpg,GCNB,Press J if the face is GENDER-CONFORMING and K if the face is NONBINARY,Gender-conforming means that the face appears to be a typical example of its gender. Nonbinary means that the face does not conform to any particular gender norms.,JK,,,,,,,,,,,,,,,,,,,,,,,,,,,,,,,,,,,,,,,,,,,,,,518.5674,0,68,68,42,1,109,0,0,0,0,1,98,,,,,,,,,,,,,,,,,,,,,,,,,,,,,,,,,,,,,,,,,,,,,,,,,,,,,,,,,,,,,,,,,,,,,,,,,,
,,,,629815,001,2024-02-02_18h39.08.198,fluency,2022.2.5,Win32,60.24096386,,,,,,,,,,,,,,,,,,,,,,,,,,,,,,,,,,,,,,,,,,,,,,,,,,,,,,,,,,,,,,,,,,,,,,,,,,,,,,,,,,0,0,0,0,1,,"[""k""]",[1.4928000000006705],2,"[""k""]",[1.4928000000006705],,,,,,,,,,,,,,,,,,,,,,,,,,,,,,,,,,,,,,,,,,,,,,,,,,,,,,,,,,,,,,,,,,,,,
