idTextbox.text,welcomeDone.numClicks,welcomeDone.timesOn,welcomeDone.timesOff,participant,session,date,expName,psychopyVersion,OS,frameRate,consent_advance.keys,consent_advance.rt,consent_advance_2.keys,consent_advance_2.rt,consentClick.x,consentClick.y,consentClick.leftButton,consentClick.midButton,consentClick.rightButton,consentClick.time,consentClick.clicked_name,instr_advance_3.keys,instr_advance_3.rt,spec_instr_adv.keys,spec_instr_adv.rt,spec_instr_adv2.keys,spec_instr_adv2.rt,instrLoop.thisRepN,instrLoop.thisTrialN,instrLoop.thisN,instrLoop.thisIndex,instrLoop.ran,steps,fams,face_file,cond,instr,term,key_map,attnKeyResp1.keys,attnKeyResp1.rt,q1.thisRepN,q1.thisTrialN,q1.thisN,q1.thisIndex,q1.ran,attnKeyResp2.keys,attnKeyResp2.rt,q2.thisRepN,q2.thisTrialN,q2.thisN,q2.thisIndex,q2.ran,attnKeyResp3.keys,attnKeyResp3.rt,q3.thisRepN,q3.thisTrialN,q3.thisN,q3.thisIndex,q3.ran,practiceStart.keys,practiceStart.rt,practiceResp.keys,practiceResp.rt,timesRedone,practiceRepeat.thisRepN,practiceRepeat.thisTrialN,practiceRepeat.thisN,practiceRepeat.thisIndex,practiceRepeat.ran,attrRating.keys,attrRating.rt,practiceTrial.thisRepN,practiceTrial.thisTrialN,practiceTrial.thisN,practiceTrial.thisIndex,practiceTrial.ran,key_resp_3.keys,key_resp_3.rt,attnChecker.thisRepN,attnChecker.thisTrialN,attnChecker.thisN,attnChecker.thisIndex,attnChecker.ran,faceOnsetTime,trials.thisRepN,trials.thisTrialN,trials.thisN,trials.thisIndex,trials.ran,trials.order,repeat_loop.thisRepN,repeat_loop.thisTrialN,repeat_loop.thisN,repeat_loop.thisIndex,repeat_loop.ran,repeat_loop.order,catResp.keys,catResp.rt,globalTimesRedone,catAllKeys.keys,catAllKeys.rt,contResp.keys,contResp.rt,contResp_2.keys,contResp_2.rt,respQ1.response,respQ1.rt,respQ2.response,respQ2.rt,respQ3.response,respQ3.rt,respQ4.response,respQ4.rt,surveyContinue1.numClicks,surveyContinue1.timesOn,surveyContinue1.timesOff,respQ5.response,respQ5.rt,respQ6.response,respQ6.rt,respQ7.response,respQ7.rt,respQ8.response,respQ8.rt,surveyContinue2.numClicks,surveyContinue2.timesOn,surveyContinue2.timesOff,respQ9.response,respQ9.rt,respQ10.response,respQ10.rt,respQ11.response,respQ11.rt,respQ12.response,respQ12.rt,surveyContinue3.numClicks,surveyContinue3.timesOn,surveyContinue3.timesOff,respQ13.response,respQ13.rt,respQ14.response,respQ14.rt,respQ15.response,respQ15.rt,surveyContinue4.numClicks,surveyContinue4.timesOn,surveyContinue4.timesOff,respAge.response,respAge.rt,genderResp1.response,genderResp1.rt,genderResp2.text,demogexitClick.numClicks,demogexitClick.timesOn,demogexitClick.timesOff,textbox.text,openAnswerClick.numClicks,openAnswerClick.timesOn,openAnswerClick.timesOff,debriefEnd.keys,debriefEnd.rt,exitKey.keys,exitKey.rt
60705c85858fb8154a1515ed,1,[4.203999999999997],[4.203999999999997],602970,001,2024-02-07_21h02.24.123,fluency,2022.2.4,Win32,59.95203837,,,,,,,,,,,,,,,,,,,,,,,,,,,,,,,,,,,,,,,,,,,,,,,,,,,,,,,,,,,,,,,,,,,,,,,,,,,,,,,,,,,,,,,,,,,,,,,,,,,,,,,,,,,,,,,,,,,,,,,,,,,,,,,,,,,,,,,,,,,,,,,,,,,,,,,,,,
,,,,602970,001,2024-02-07_21h02.24.123,fluency,2022.2.4,Win32,59.95203837,space,9.417,,,,,,,,,,,,,,,,,,,,,,,,,,,,,,,,,,,,,,,,,,,,,,,,,,,,,,,,,,,,,,,,,,,,,,,,,,,,,,,,,,,,,,,,,,,,,,,,,,,,,,,,,,,,,,,,,,,,,,,,,,,,,,,,,,,,,,,,,,,,,,,,,,,,,,,,
,,,,602970,001,2024-02-07_21h02.24.123,fluency,2022.2.4,Win32,59.95203837,,,space,18.105,,,,,,,,,,,,,,,,,,,,,,,,,,,,,,,,,,,,,,,,,,,,,,,,,,,,,,,,,,,,,,,,,,,,,,,,,,,,,,,,,,,,,,,,,,,,,,,,,,,,,,,,,,,,,,,,,,,,,,,,,,,,,,,,,,,,,,,,,,,,,,,,,,,,,,
,,,,602970,001,2024-02-07_21h02.24.123,fluency,2022.2.4,Win32,59.95203837,,,,,0.343055556,-0.356944444,1,0,0,16.656,iAgree,,,,,,,,,,,,,,,,,,,,,,,,,,,,,,,,,,,,,,,,,,,,,,,,,,,,,,,,,,,,,,,,,,,,,,,,,,,,,,,,,,,,,,,,,,,,,,,,,,,,,,,,,,,,,,,,,,,,,,,,,,,,,,,,,,,,,,,,,,,,,,,
,,,,602970,001,2024-02-07_21h02.24.123,fluency,2022.2.4,Win32,59.95203837,,,,,,,,,,,,space,7.083,,,,,,,,,,,,,,,,,,,,,,,,,,,,,,,,,,,,,,,,,,,,,,,,,,,,,,,,,,,,,,,,,,,,,,,,,,,,,,,,,,,,,,,,,,,,,,,,,,,,,,,,,,,,,,,,,,,,,,,,,,,,,,,,,,,,,,,,,,,,,
,,,,602970,001,2024-02-07_21h02.24.123,fluency,2022.2.4,Win32,59.95203837,,,,,,,,,,,,,,space,8.561,space,26.642,0,0,0,10,1,10,1,img/B01_10.jpg,MF,Press J if the face is MALE and K if the face is FEMALE, ,JK,,,,,,,,,,,,,,,,,,,,,,,,,,,,,,,,,,,,,,,,,,,,,,,,,,,,,,,,,,,,,,,,,,,,,,,,,,,,,,,,,,,,,,,,,,,,,,,,,,,,,,,,,,,,,,,,,,,,,,,,,,,,,
,,,,602970,001,2024-02-07_21h02.24.123,fluency,2022.2.4,Win32,59.95203837,,,,,,,,,,,,,,,,,,,,,,,,,,,,,,c,7.059,0,0,0,0,1,,,,,,,,,,,,,,,,,,,,,,,,,,,,,,,,,,,,,,,,,,,,,,,,,,,,,,,,,,,,,,,,,,,,,,,,,,,,,,,,,,,,,,,,,,,,,,,,,,,,,,,,,,,,,,,,,,,,,,
,,,,602970,001,2024-02-07_21h02.24.123,fluency,2022.2.4,Win32,59.95203837,,,,,,,,,,,,,,,,,,,,,,,,,,,,,,,,,,,,,a,5.646,0,0,0,0,1,,,,,,,,,,,,,,,,,,,,,,,,,,,,,,,,,,,,,,,,,,,,,,,,,,,,,,,,,,,,,,,,,,,,,,,,,,,,,,,,,,,,,,,,,,,,,,,,,,,,,,,,,,,,,,,
,,,,602970,001,2024-02-07_21h02.24.123,fluency,2022.2.4,Win32,59.95203837,,,,,,,,,,,,,,,,,,,,,,,,,,,,,,,,,,,,,,,,,,,,c,9.738,0,0,0,0,1,,,,,,,,,,,,,,,,,,,,,,,,,,,,,,,,,,,,,,,,,,,,,,,,,,,,,,,,,,,,,,,,,,,,,,,,,,,,,,,,,,,,,,,,,,,,,,,,,,,,,,,,
,,,,602970,001,2024-02-07_21h02.24.123,fluency,2022.2.4,Win32,59.95203837,,,,,,,,,,,,,,,,,,,,,,,,,,,,,,,,,,,,,,,,,,,,,,,,,,,space,2.498,j,1.561,0,0,0,0,0,1,,,,,,,,,,,,,,,,,,,,,,,,,,,,,,,,,,,,,,,,,,,,,,,,,,,,,,,,,,,,,,,,,,,,,,,,,,,,,,,,,,,,,,,,,,,,,,
,,,,602970,001,2024-02-07_21h02.24.123,fluency,2022.2.4,Win32,59.95203837,,,,,,,,,,,,,,,,,,,,,,,,,,,,,,,,,,,,,,,,,,,,,,,,,,,,,,,,,,,,,2,19.342,0,0,0,0,1,,,,,,,,,,,,,,,,,,,,,,,,,,,,,,,,,,,,,,,,,,,,,,,,,,,,,,,,,,,,,,,,,,,,,,,,,,,,,,,,,,,,,,,
,,,,602970,001,2024-02-07_21h02.24.123,fluency,2022.2.4,Win32,59.95203837,,,,,,,,,,,,,,,,,,,,,,,,,,,,,,,,,,,,,,,,,,,,,,,,,,,,,,,,,,,,,,,,,,,,space,7.285,0,0,0,0,1,,,,,,,,,,,,,,,,,,,,,,,,,,,,,,,,,,,,,,,,,,,,,,,,,,,,,,,,,,,,,,,,,,,,,,,,,,,,,,,,
,,,,602970,001,2024-02-07_21h02.24.123,fluency,2022.2.4,Win32,59.95203837,,,,,,,,,,,,,,,,,,,,,,,1,9,img/B09_01.jpg,MF,Press J if the face is MALE and K if the face is FEMALE, ,JK,,,,,,,,,,,,,,,,,,,,,,,,,,,,,,,,,,,,,,,,,,,,,,166.763,0,0,0,89,1,109,0,0,0,0,1,98,,,,,,,,,,,,,,,,,,,,,,,,,,,,,,,,,,,,,,,,,,,,,,,,,,,,,,,,,,,,,,,,,,,
,,,,602970,001,2024-02-07_21h02.24.123,fluency,2022.2.4,Win32,59.95203837,,,,,,,,,,,,,,,,,,,,,,,,,,,,,,,,,,,,,,,,,,,,,,,,,,,,,,,,,,,,,,,,,,,,,,,,,,,,,,,,,,0,0,0,0,1,,"[""j""]",[0.828000000000003],0,"[""j""]",[0.828000000000003],,,,,,,,,,,,,,,,,,,,,,,,,,,,,,,,,,,,,,,,,,,,,,,,,,,,,,,,,,,,,,
,,,,602970,001,2024-02-07_21h02.24.123,fluency,2022.2.4,Win32,59.95203837,,,,,,,,,,,,,,,,,,,,,,,1,9,img/B09_01.jpg,MF,Press J if the face is MALE and K if the face is FEMALE, ,JK,,,,,,,,,,,,,,,,,,,,,,,,,,,,,,,,3,2.122,,,,,,,,,,,,,,0,0,0,89,1,,,,,,,,,,,,,space,4.27,,,,,,,,,,,,,,,,,,,,,,,,,,,,,,,,,,,,,,,,,,,,,,,,,,,,,,,,,,,,
,,,,602970,001,2024-02-07_21h02.24.123,fluency,2022.2.4,Win32,59.95203837,,,,,,,,,,,,,,,,,,,,,,,2,1,img/B01_02.jpg,MF,Press J if the face is MALE and K if the face is FEMALE, ,JK,,,,,,,,,,,,,,,,,,,,,,,,,,,,,,,,,,,,,,,,,,,,,,177.241,0,1,1,2,1,109,0,0,0,0,1,98,,,,,,,,,,,,,,,,,,,,,,,,,,,,,,,,,,,,,,,,,,,,,,,,,,,,,,,,,,,,,,,,,,,
,,,,602970,001,2024-02-07_21h02.24.123,fluency,2022.2.4,Win32,59.95203837,,,,,,,,,,,,,,,,,,,,,,,,,,,,,,,,,,,,,,,,,,,,,,,,,,,,,,,,,,,,,,,,,,,,,,,,,,,,,,,,,,0,0,0,0,1,,"[""j""]",[0.6450000000000102],0,"[""j""]",[0.6450000000000102],,,,,,,,,,,,,,,,,,,,,,,,,,,,,,,,,,,,,,,,,,,,,,,,,,,,,,,,,,,,,,
,,,,602970,001,2024-02-07_21h02.24.123,fluency,2022.2.4,Win32,59.95203837,,,,,,,,,,,,,,,,,,,,,,,2,1,img/B01_02.jpg,MF,Press J if the face is MALE and K if the face is FEMALE, ,JK,,,,,,,,,,,,,,,,,,,,,,,,,,,,,,,,1,1.495,,,,,,,,,,,,,,0,1,1,2,1,,,,,,,,,,,,,space,2.003,,,,,,,,,,,,,,,,,,,,,,,,,,,,,,,,,,,,,,,,,,,,,,,,,,,,,,,,,,,,
,,,,602970,001,2024-02-07_21h02.24.123,fluency,2022.2.4,Win32,59.95203837,,,,,,,,,,,,,,,,,,,,,,,7,2,img/B02_07.jpg,MF,Press J if the face is MALE and K if the face is FEMALE, ,JK,,,,,,,,,,,,,,,,,,,,,,,,,,,,,,,,,,,,,,,,,,,,,,185.801,0,2,2,18,1,109,0,0,0,0,1,98,,,,,,,,,,,,,,,,,,,,,,,,,,,,,,,,,,,,,,,,,,,,,,,,,,,,,,,,,,,,,,,,,,,
,,,,602970,001,2024-02-07_21h02.24.123,fluency,2022.2.4,Win32,59.95203837,,,,,,,,,,,,,,,,,,,,,,,,,,,,,,,,,,,,,,,,,,,,,,,,,,,,,,,,,,,,,,,,,,,,,,,,,,,,,,,,,,0,0,0,0,1,,"[""k""]",[0.6629999999999825],0,"[""k""]",[0.6629999999999825],,,,,,,,,,,,,,,,,,,,,,,,,,,,,,,,,,,,,,,,,,,,,,,,,,,,,,,,,,,,,,
,,,,602970,001,2024-02-07_21h02.24.123,fluency,2022.2.4,Win32,59.95203837,,,,,,,,,,,,,,,,,,,,,,,7,2,img/B02_07.jpg,MF,Press J if the face is MALE and K if the face is FEMALE, ,JK,,,,,,,,,,,,,,,,,,,,,,,,,,,,,,,,4,1.012,,,,,,,,,,,,,,0,2,2,18,1,,,,,,,,,,,,,space,0.955,,,,,,,,,,,,,,,,,,,,,,,,,,,,,,,,,,,,,,,,,,,,,,,,,,,,,,,,,,,,
,,,,602970,001,2024-02-07_21h02.24.123,fluency,2022.2.4,Win32,59.95203837,,,,,,,,,,,,,,,,,,,,,,,1,1,img/B01_01.jpg,MF,Press J if the face is MALE and K if the face is FEMALE, ,JK,,,,,,,,,,,,,,,,,,,,,,,,,,,,,,,,,,,,,,,,,,,,,,191.828,0,3,3,1,1,109,0,0,0,0,1,98,,,,,,,,,,,,,,,,,,,,,,,,,,,,,,,,,,,,,,,,,,,,,,,,,,,,,,,,,,,,,,,,,,,
,,,,602970,001,2024-02-07_21h02.24.123,fluency,2022.2.4,Win32,59.95203837,,,,,,,,,,,,,,,,,,,,,,,,,,,,,,,,,,,,,,,,,,,,,,,,,,,,,,,,,,,,,,,,,,,,,,,,,,,,,,,,,,0,0,0,0,1,,"[""j""]",[0.6510000000000105],0,"[""j""]",[0.6510000000000105],,,,,,,,,,,,,,,,,,,,,,,,,,,,,,,,,,,,,,,,,,,,,,,,,,,,,,,,,,,,,,
,,,,602970,001,2024-02-07_21h02.24.123,fluency,2022.2.4,Win32,59.95203837,,,,,,,,,,,,,,,,,,,,,,,1,1,img/B01_01.jpg,MF,Press J if the face is MALE and K if the face is FEMALE, ,JK,,,,,,,,,,,,,,,,,,,,,,,,,,,,,,,,1,0.529,,,,,,,,,,,,,,0,3,3,1,1,,,,,,,,,,,,,space,0.606,,,,,,,,,,,,,,,,,,,,,,,,,,,,,,,,,,,,,,,,,,,,,,,,,,,,,,,,,,,,
,,,,602970,001,2024-02-07_21h02.24.123,fluency,2022.2.4,Win32,59.95203837,,,,,,,,,,,,,,,,,,,,,,,5,8,img/B08_05.jpg,MF,Press J if the face is MALE and K if the face is FEMALE, ,JK,,,,,,,,,,,,,,,,,,,,,,,,,,,,,,,,,,,,,,,,,,,,,,198.032,0,4,4,82,1,109,0,0,0,0,1,98,,,,,,,,,,,,,,,,,,,,,,,,,,,,,,,,,,,,,,,,,,,,,,,,,,,,,,,,,,,,,,,,,,,
,,,,602970,001,2024-02-07_21h02.24.123,fluency,2022.2.4,Win32,59.95203837,,,,,,,,,,,,,,,,,,,,,,,,,,,,,,,,,,,,,,,,,,,,,,,,,,,,,,,,,,,,,,,,,,,,,,,,,,,,,,,,,,0,0,0,0,1,,"[""k""]",[0.585000000000008],0,"[""k""]",[0.585000000000008],,,,,,,,,,,,,,,,,,,,,,,,,,,,,,,,,,,,,,,,,,,,,,,,,,,,,,,,,,,,,,
,,,,602970,001,2024-02-07_21h02.24.123,fluency,2022.2.4,Win32,59.95203837,,,,,,,,,,,,,,,,,,,,,,,5,8,img/B08_05.jpg,MF,Press J if the face is MALE and K if the face is FEMALE, ,JK,,,,,,,,,,,,,,,,,,,,,,,,,,,,,,,,3,0.461,,,,,,,,,,,,,,0,4,4,82,1,,,,,,,,,,,,,space,0.5,,,,,,,,,,,,,,,,,,,,,,,,,,,,,,,,,,,,,,,,,,,,,,,,,,,,,,,,,,,,
,,,,602970,001,2024-02-07_21h02.24.123,fluency,2022.2.4,Win32,59.95203837,,,,,,,,,,,,,,,,,,,,,,,7,9,img/B09_07.jpg,MF,Press J if the face is MALE and K if the face is FEMALE, ,JK,,,,,,,,,,,,,,,,,,,,,,,,,,,,,,,,,,,,,,,,,,,,,,203.054,0,5,5,95,1,109,0,0,0,0,1,98,,,,,,,,,,,,,,,,,,,,,,,,,,,,,,,,,,,,,,,,,,,,,,,,,,,,,,,,,,,,,,,,,,,
,,,,602970,001,2024-02-07_21h02.24.123,fluency,2022.2.4,Win32,59.95203837,,,,,,,,,,,,,,,,,,,,,,,,,,,,,,,,,,,,,,,,,,,,,,,,,,,,,,,,,,,,,,,,,,,,,,,,,,,,,,,,,,0,0,0,0,1,,"[""k""]",[0.6809999999999832],0,"[""k""]",[0.6809999999999832],,,,,,,,,,,,,,,,,,,,,,,,,,,,,,,,,,,,,,,,,,,,,,,,,,,,,,,,,,,,,,
,,,,602970,001,2024-02-07_21h02.24.123,fluency,2022.2.4,Win32,59.95203837,,,,,,,,,,,,,,,,,,,,,,,7,9,img/B09_07.jpg,MF,Press J if the face is MALE and K if the face is FEMALE, ,JK,,,,,,,,,,,,,,,,,,,,,,,,,,,,,,,,4,1.306,,,,,,,,,,,,,,0,5,5,95,1,,,,,,,,,,,,,space,0.386,,,,,,,,,,,,,,,,,,,,,,,,,,,,,,,,,,,,,,,,,,,,,,,,,,,,,,,,,,,,
,,,,602970,001,2024-02-07_21h02.24.123,fluency,2022.2.4,Win32,59.95203837,,,,,,,,,,,,,,,,,,,,,,,9,10,img/B10_09.jpg,MF,Press J if the face is MALE and K if the face is FEMALE, ,JK,,,,,,,,,,,,,,,,,,,,,,,,,,,,,,,,,,,,,,,,,,,,,,209.811,0,6,6,108,1,109,0,0,0,0,1,98,,,,,,,,,,,,,,,,,,,,,,,,,,,,,,,,,,,,,,,,,,,,,,,,,,,,,,,,,,,,,,,,,,,
,,,,602970,001,2024-02-07_21h02.24.123,fluency,2022.2.4,Win32,59.95203837,,,,,,,,,,,,,,,,,,,,,,,,,,,,,,,,,,,,,,,,,,,,,,,,,,,,,,,,,,,,,,,,,,,,,,,,,,,,,,,,,,0,0,0,0,1,,"[""k""]",[0.4889999999999759],0,"[""k""]",[0.4889999999999759],,,,,,,,,,,,,,,,,,,,,,,,,,,,,,,,,,,,,,,,,,,,,,,,,,,,,,,,,,,,,,
,,,,602970,001,2024-02-07_21h02.24.123,fluency,2022.2.4,Win32,59.95203837,,,,,,,,,,,,,,,,,,,,,,,9,10,img/B10_09.jpg,MF,Press J if the face is MALE and K if the face is FEMALE, ,JK,,,,,,,,,,,,,,,,,,,,,,,,,,,,,,,,4,0.313,,,,,,,,,,,,,,0,6,6,108,1,,,,,,,,,,,,,space,0.19,,,,,,,,,,,,,,,,,,,,,,,,,,,,,,,,,,,,,,,,,,,,,,,,,,,,,,,,,,,,
,,,,602970,001,2024-02-07_21h02.24.123,fluency,2022.2.4,Win32,59.95203837,,,,,,,,,,,,,,,,,,,,,,,2,7,img/B07_02.jpg,MF,Press J if the face is MALE and K if the face is FEMALE, ,JK,,,,,,,,,,,,,,,,,,,,,,,,,,,,,,,,,,,,,,,,,,,,,,214.366,0,7,7,68,1,109,0,0,0,0,1,98,,,,,,,,,,,,,,,,,,,,,,,,,,,,,,,,,,,,,,,,,,,,,,,,,,,,,,,,,,,,,,,,,,,
,,,,602970,001,2024-02-07_21h02.24.123,fluency,2022.2.4,Win32,59.95203837,,,,,,,,,,,,,,,,,,,,,,,,,,,,,,,,,,,,,,,,,,,,,,,,,,,,,,,,,,,,,,,,,,,,,,,,,,,,,,,,,,0,0,0,0,1,,"[""j""]",[0.5099999999999909],0,"[""j""]",[0.5099999999999909],,,,,,,,,,,,,,,,,,,,,,,,,,,,,,,,,,,,,,,,,,,,,,,,,,,,,,,,,,,,,,
,,,,602970,001,2024-02-07_21h02.24.123,fluency,2022.2.4,Win32,59.95203837,,,,,,,,,,,,,,,,,,,,,,,2,7,img/B07_02.jpg,MF,Press J if the face is MALE and K if the face is FEMALE, ,JK,,,,,,,,,,,,,,,,,,,,,,,,,,,,,,,,4,0.47,,,,,,,,,,,,,,0,7,7,68,1,,,,,,,,,,,,,space,0.224,,,,,,,,,,,,,,,,,,,,,,,,,,,,,,,,,,,,,,,,,,,,,,,,,,,,,,,,,,,,
,,,,602970,001,2024-02-07_21h02.24.123,fluency,2022.2.4,Win32,59.95203837,,,,,,,,,,,,,,,,,,,,,,,6,10,img/B10_06.jpg,MF,Press J if the face is MALE and K if the face is FEMALE, ,JK,,,,,,,,,,,,,,,,,,,,,,,,,,,,,,,,,,,,,,,,,,,,,,220.122,0,8,8,105,1,109,0,0,0,0,1,98,,,,,,,,,,,,,,,,,,,,,,,,,,,,,,,,,,,,,,,,,,,,,,,,,,,,,,,,,,,,,,,,,,,
,,,,602970,001,2024-02-07_21h02.24.123,fluency,2022.2.4,Win32,59.95203837,,,,,,,,,,,,,,,,,,,,,,,,,,,,,,,,,,,,,,,,,,,,,,,,,,,,,,,,,,,,,,,,,,,,,,,,,,,,,,,,,,0,0,0,0,1,,"[""k""]",[1.8089999999999975],0,"[""k""]",[1.8089999999999975],,,,,,,,,,,,,,,,,,,,,,,,,,,,,,,,,,,,,,,,,,,,,,,,,,,,,,,,,,,,,,
,,,,602970,001,2024-02-07_21h02.24.123,fluency,2022.2.4,Win32,59.95203837,,,,,,,,,,,,,,,,,,,,,,,6,10,img/B10_06.jpg,MF,Press J if the face is MALE and K if the face is FEMALE, ,JK,,,,,,,,,,,,,,,,,,,,,,,,,,,,,,,,4,0.756,,,,,,,,,,,,,,0,8,8,105,1,,,,,,,,,,,,,space,0.158,,,,,,,,,,,,,,,,,,,,,,,,,,,,,,,,,,,,,,,,,,,,,,,,,,,,,,,,,,,,
,,,,602970,001,2024-02-07_21h02.24.123,fluency,2022.2.4,Win32,59.95203837,,,,,,,,,,,,,,,,,,,,,,,7,7,img/B07_07.jpg,MF,Press J if the face is MALE and K if the face is FEMALE, ,JK,,,,,,,,,,,,,,,,,,,,,,,,,,,,,,,,,,,,,,,,,,,,,,225.094,0,9,9,73,1,109,0,0,0,0,1,98,,,,,,,,,,,,,,,,,,,,,,,,,,,,,,,,,,,,,,,,,,,,,,,,,,,,,,,,,,,,,,,,,,,
,,,,602970,001,2024-02-07_21h02.24.123,fluency,2022.2.4,Win32,59.95203837,,,,,,,,,,,,,,,,,,,,,,,,,,,,,,,,,,,,,,,,,,,,,,,,,,,,,,,,,,,,,,,,,,,,,,,,,,,,,,,,,,0,0,0,0,1,,"[""k""]",[1.0579999999999927],0,"[""k""]",[1.0579999999999927],,,,,,,,,,,,,,,,,,,,,,,,,,,,,,,,,,,,,,,,,,,,,,,,,,,,,,,,,,,,,,
,,,,602970,001,2024-02-07_21h02.24.123,fluency,2022.2.4,Win32,59.95203837,,,,,,,,,,,,,,,,,,,,,,,7,7,img/B07_07.jpg,MF,Press J if the face is MALE and K if the face is FEMALE, ,JK,,,,,,,,,,,,,,,,,,,,,,,,,,,,,,,,5,0.36,,,,,,,,,,,,,,0,9,9,73,1,,,,,,,,,,,,,space,0.119,,,,,,,,,,,,,,,,,,,,,,,,,,,,,,,,,,,,,,,,,,,,,,,,,,,,,,,,,,,,
,,,,602970,001,2024-02-07_21h02.24.123,fluency,2022.2.4,Win32,59.95203837,,,,,,,,,,,,,,,,,,,,,,,2,6,img/B06_02.jpg,MF,Press J if the face is MALE and K if the face is FEMALE, ,JK,,,,,,,,,,,,,,,,,,,,,,,,,,,,,,,,,,,,,,,,,,,,,,229.649,0,10,10,57,1,109,0,0,0,0,1,98,,,,,,,,,,,,,,,,,,,,,,,,,,,,,,,,,,,,,,,,,,,,,,,,,,,,,,,,,,,,,,,,,,,
,,,,602970,001,2024-02-07_21h02.24.123,fluency,2022.2.4,Win32,59.95203837,,,,,,,,,,,,,,,,,,,,,,,,,,,,,,,,,,,,,,,,,,,,,,,,,,,,,,,,,,,,,,,,,,,,,,,,,,,,,,,,,,0,0,0,0,1,,"[""j""]",[0.6810000000000116],0,"[""j""]",[0.6810000000000116],,,,,,,,,,,,,,,,,,,,,,,,,,,,,,,,,,,,,,,,,,,,,,,,,,,,,,,,,,,,,,
,,,,602970,001,2024-02-07_21h02.24.123,fluency,2022.2.4,Win32,59.95203837,,,,,,,,,,,,,,,,,,,,,,,2,6,img/B06_02.jpg,MF,Press J if the face is MALE and K if the face is FEMALE, ,JK,,,,,,,,,,,,,,,,,,,,,,,,,,,,,,,,2,0.535,,,,,,,,,,,,,,0,10,10,57,1,,,,,,,,,,,,,space,0.168,,,,,,,,,,,,,,,,,,,,,,,,,,,,,,,,,,,,,,,,,,,,,,,,,,,,,,,,,,,,
,,,,602970,001,2024-02-07_21h02.24.123,fluency,2022.2.4,Win32,59.95203837,,,,,,,,,,,,,,,,,,,,,,,3,5,img/B05_03.jpg,MF,Press J if the face is MALE and K if the face is FEMALE, ,JK,,,,,,,,,,,,,,,,,,,,,,,,,,,,,,,,,,,,,,,,,,,,,,235.422,0,11,11,47,1,109,0,0,0,0,1,98,,,,,,,,,,,,,,,,,,,,,,,,,,,,,,,,,,,,,,,,,,,,,,,,,,,,,,,,,,,,,,,,,,,
,,,,602970,001,2024-02-07_21h02.24.123,fluency,2022.2.4,Win32,59.95203837,,,,,,,,,,,,,,,,,,,,,,,,,,,,,,,,,,,,,,,,,,,,,,,,,,,,,,,,,,,,,,,,,,,,,,,,,,,,,,,,,,0,0,0,0,1,,"[""k""]",[1.1119999999999948],0,"[""k""]",[1.1119999999999948],,,,,,,,,,,,,,,,,,,,,,,,,,,,,,,,,,,,,,,,,,,,,,,,,,,,,,,,,,,,,,
,,,,602970,001,2024-02-07_21h02.24.123,fluency,2022.2.4,Win32,59.95203837,,,,,,,,,,,,,,,,,,,,,,,3,5,img/B05_03.jpg,MF,Press J if the face is MALE and K if the face is FEMALE, ,JK,,,,,,,,,,,,,,,,,,,,,,,,,,,,,,,,2,0.322,,,,,,,,,,,,,,0,11,11,47,1,,,,,,,,,,,,,space,0.13,,,,,,,,,,,,,,,,,,,,,,,,,,,,,,,,,,,,,,,,,,,,,,,,,,,,,,,,,,,,
,,,,602970,001,2024-02-07_21h02.24.123,fluency,2022.2.4,Win32,59.95203837,,,,,,,,,,,,,,,,,,,,,,,9,2,img/B02_09.jpg,MF,Press J if the face is MALE and K if the face is FEMALE, ,JK,,,,,,,,,,,,,,,,,,,,,,,,,,,,,,,,,,,,,,,,,,,,,,239.928,0,12,12,20,1,109,0,0,0,0,1,98,,,,,,,,,,,,,,,,,,,,,,,,,,,,,,,,,,,,,,,,,,,,,,,,,,,,,,,,,,,,,,,,,,,
,,,,602970,001,2024-02-07_21h02.24.123,fluency,2022.2.4,Win32,59.95203837,,,,,,,,,,,,,,,,,,,,,,,,,,,,,,,,,,,,,,,,,,,,,,,,,,,,,,,,,,,,,,,,,,,,,,,,,,,,,,,,,,0,0,0,0,1,,"[""k""]",[0.7210000000000036],0,"[""k""]",[0.7210000000000036],,,,,,,,,,,,,,,,,,,,,,,,,,,,,,,,,,,,,,,,,,,,,,,,,,,,,,,,,,,,,,
,,,,602970,001,2024-02-07_21h02.24.123,fluency,2022.2.4,Win32,59.95203837,,,,,,,,,,,,,,,,,,,,,,,9,2,img/B02_09.jpg,MF,Press J if the face is MALE and K if the face is FEMALE, ,JK,,,,,,,,,,,,,,,,,,,,,,,,,,,,,,,,4,0.332,,,,,,,,,,,,,,0,12,12,20,1,,,,,,,,,,,,,space,0.188,,,,,,,,,,,,,,,,,,,,,,,,,,,,,,,,,,,,,,,,,,,,,,,,,,,,,,,,,,,,
,,,,602970,001,2024-02-07_21h02.24.123,fluency,2022.2.4,Win32,59.95203837,,,,,,,,,,,,,,,,,,,,,,,8,10,img/B10_08.jpg,MF,Press J if the face is MALE and K if the face is FEMALE, ,JK,,,,,,,,,,,,,,,,,,,,,,,,,,,,,,,,,,,,,,,,,,,,,,244.499,0,13,13,107,1,109,0,0,0,0,1,98,,,,,,,,,,,,,,,,,,,,,,,,,,,,,,,,,,,,,,,,,,,,,,,,,,,,,,,,,,,,,,,,,,,
,,,,602970,001,2024-02-07_21h02.24.123,fluency,2022.2.4,Win32,59.95203837,,,,,,,,,,,,,,,,,,,,,,,,,,,,,,,,,,,,,,,,,,,,,,,,,,,,,,,,,,,,,,,,,,,,,,,,,,,,,,,,,,0,0,0,0,1,,"[""k""]",[0.6129999999999995],0,"[""k"",""space""]","[0.6129999999999995,1.1050000000000182]",,,,,,,,,,,,,,,,,,,,,,,,,,,,,,,,,,,,,,,,,,,,,,,,,,,,,,,,,,,,,,
,,,,602970,001,2024-02-07_21h02.24.123,fluency,2022.2.4,Win32,59.95203837,,,,,,,,,,,,,,,,,,,,,,,8,10,img/B10_08.jpg,MF,Press J if the face is MALE and K if the face is FEMALE, ,JK,,,,,,,,,,,,,,,,,,,,,,,,,,,,,,,,4,0.305,,,,,,,,,,,,,,0,13,13,107,1,,,,,,,,,,,,,space,0.185,,,,,,,,,,,,,,,,,,,,,,,,,,,,,,,,,,,,,,,,,,,,,,,,,,,,,,,,,,,,
,,,,602970,001,2024-02-07_21h02.24.123,fluency,2022.2.4,Win32,59.95203837,,,,,,,,,,,,,,,,,,,,,,,6,1,img/B01_06.jpg,MF,Press J if the face is MALE and K if the face is FEMALE, ,JK,,,,,,,,,,,,,,,,,,,,,,,,,,,,,,,,,,,,,,,,,,,,,,250.054,0,14,14,6,1,109,0,0,0,0,1,98,,,,,,,,,,,,,,,,,,,,,,,,,,,,,,,,,,,,,,,,,,,,,,,,,,,,,,,,,,,,,,,,,,,
,,,,602970,001,2024-02-07_21h02.24.123,fluency,2022.2.4,Win32,59.95203837,,,,,,,,,,,,,,,,,,,,,,,,,,,,,,,,,,,,,,,,,,,,,,,,,,,,,,,,,,,,,,,,,,,,,,,,,,,,,,,,,,0,0,0,0,1,,"[""k""]",[0.6960000000000264],0,"[""k""]",[0.6960000000000264],,,,,,,,,,,,,,,,,,,,,,,,,,,,,,,,,,,,,,,,,,,,,,,,,,,,,,,,,,,,,,
,,,,602970,001,2024-02-07_21h02.24.123,fluency,2022.2.4,Win32,59.95203837,,,,,,,,,,,,,,,,,,,,,,,6,1,img/B01_06.jpg,MF,Press J if the face is MALE and K if the face is FEMALE, ,JK,,,,,,,,,,,,,,,,,,,,,,,,,,,,,,,,3,0.327,,,,,,,,,,,,,,0,14,14,6,1,,,,,,,,,,,,,space,0.168,,,,,,,,,,,,,,,,,,,,,,,,,,,,,,,,,,,,,,,,,,,,,,,,,,,,,,,,,,,,
,,,,602970,001,2024-02-07_21h02.24.123,fluency,2022.2.4,Win32,59.95203837,,,,,,,,,,,,,,,,,,,,,,,6,9,img/B09_06.jpg,MF,Press J if the face is MALE and K if the face is FEMALE, ,JK,,,,,,,,,,,,,,,,,,,,,,,,,,,,,,,,,,,,,,,,,,,,,,254.61,0,15,15,94,1,109,0,0,0,0,1,98,,,,,,,,,,,,,,,,,,,,,,,,,,,,,,,,,,,,,,,,,,,,,,,,,,,,,,,,,,,,,,,,,,,
,,,,602970,001,2024-02-07_21h02.24.123,fluency,2022.2.4,Win32,59.95203837,,,,,,,,,,,,,,,,,,,,,,,,,,,,,,,,,,,,,,,,,,,,,,,,,,,,,,,,,,,,,,,,,,,,,,,,,,,,,,,,,,0,0,0,0,1,,"[""k""]",[0.7210000000000036],0,"[""k""]",[0.7210000000000036],,,,,,,,,,,,,,,,,,,,,,,,,,,,,,,,,,,,,,,,,,,,,,,,,,,,,,,,,,,,,,
,,,,602970,001,2024-02-07_21h02.24.123,fluency,2022.2.4,Win32,59.95203837,,,,,,,,,,,,,,,,,,,,,,,6,9,img/B09_06.jpg,MF,Press J if the face is MALE and K if the face is FEMALE, ,JK,,,,,,,,,,,,,,,,,,,,,,,,,,,,,,,,5,0.423,,,,,,,,,,,,,,0,15,15,94,1,,,,,,,,,,,,,space,0.127,,,,,,,,,,,,,,,,,,,,,,,,,,,,,,,,,,,,,,,,,,,,,,,,,,,,,,,,,,,,
,,,,602970,001,2024-02-07_21h02.24.123,fluency,2022.2.4,Win32,59.95203837,,,,,,,,,,,,,,,,,,,,,,,2,2,img/B02_02.jpg,MF,Press J if the face is MALE and K if the face is FEMALE, ,JK,,,,,,,,,,,,,,,,,,,,,,,,,,,,,,,,,,,,,,,,,,,,,,259.216,0,16,16,13,1,109,0,0,0,0,1,98,,,,,,,,,,,,,,,,,,,,,,,,,,,,,,,,,,,,,,,,,,,,,,,,,,,,,,,,,,,,,,,,,,,
,,,,602970,001,2024-02-07_21h02.24.123,fluency,2022.2.4,Win32,59.95203837,,,,,,,,,,,,,,,,,,,,,,,,,,,,,,,,,,,,,,,,,,,,,,,,,,,,,,,,,,,,,,,,,,,,,,,,,,,,,,,,,,0,0,0,0,1,,"[""j""]",[0.8380000000000223],0,"[""j""]",[0.8380000000000223],,,,,,,,,,,,,,,,,,,,,,,,,,,,,,,,,,,,,,,,,,,,,,,,,,,,,,,,,,,,,,
,,,,602970,001,2024-02-07_21h02.24.123,fluency,2022.2.4,Win32,59.95203837,,,,,,,,,,,,,,,,,,,,,,,2,2,img/B02_02.jpg,MF,Press J if the face is MALE and K if the face is FEMALE, ,JK,,,,,,,,,,,,,,,,,,,,,,,,,,,,,,,,3,0.31,,,,,,,,,,,,,,0,16,16,13,1,,,,,,,,,,,,,space,0.129,,,,,,,,,,,,,,,,,,,,,,,,,,,,,,,,,,,,,,,,,,,,,,,,,,,,,,,,,,,,
,,,,602970,001,2024-02-07_21h02.24.123,fluency,2022.2.4,Win32,59.95203837,,,,,,,,,,,,,,,,,,,,,,,3,10,img/B10_03.jpg,MF,Press J if the face is MALE and K if the face is FEMALE, ,JK,,,,,,,,,,,,,,,,,,,,,,,,,,,,,,,,,,,,,,,,,,,,,,263.72,0,17,17,102,1,109,0,0,0,0,1,98,,,,,,,,,,,,,,,,,,,,,,,,,,,,,,,,,,,,,,,,,,,,,,,,,,,,,,,,,,,,,,,,,,,
,,,,602970,001,2024-02-07_21h02.24.123,fluency,2022.2.4,Win32,59.95203837,,,,,,,,,,,,,,,,,,,,,,,,,,,,,,,,,,,,,,,,,,,,,,,,,,,,,,,,,,,,,,,,,,,,,,,,,,,,,,,,,,0,0,0,0,1,,"[""j""]",[0.5870000000000459],0,"[""j""]",[0.5880000000000223],,,,,,,,,,,,,,,,,,,,,,,,,,,,,,,,,,,,,,,,,,,,,,,,,,,,,,,,,,,,,,
,,,,602970,001,2024-02-07_21h02.24.123,fluency,2022.2.4,Win32,59.95203837,,,,,,,,,,,,,,,,,,,,,,,3,10,img/B10_03.jpg,MF,Press J if the face is MALE and K if the face is FEMALE, ,JK,,,,,,,,,,,,,,,,,,,,,,,,,,,,,,,,4,0.405,,,,,,,,,,,,,,0,17,17,102,1,,,,,,,,,,,,,space,0.102,,,,,,,,,,,,,,,,,,,,,,,,,,,,,,,,,,,,,,,,,,,,,,,,,,,,,,,,,,,,
,,,,602970,001,2024-02-07_21h02.24.123,fluency,2022.2.4,Win32,59.95203837,,,,,,,,,,,,,,,,,,,,,,,0,1,img/B01_00.jpg,MF,Press J if the face is MALE and K if the face is FEMALE, ,JK,,,,,,,,,,,,,,,,,,,,,,,,,,,,,,,,,,,,,,,,,,,,,,268.292,0,18,18,0,1,109,0,0,0,0,1,98,,,,,,,,,,,,,,,,,,,,,,,,,,,,,,,,,,,,,,,,,,,,,,,,,,,,,,,,,,,,,,,,,,,
,,,,602970,001,2024-02-07_21h02.24.123,fluency,2022.2.4,Win32,59.95203837,,,,,,,,,,,,,,,,,,,,,,,,,,,,,,,,,,,,,,,,,,,,,,,,,,,,,,,,,,,,,,,,,,,,,,,,,,,,,,,,,,0,0,0,0,1,,"[""j""]",[0.7040000000000077],0,"[""j""]",[0.7040000000000077],,,,,,,,,,,,,,,,,,,,,,,,,,,,,,,,,,,,,,,,,,,,,,,,,,,,,,,,,,,,,,
,,,,602970,001,2024-02-07_21h02.24.123,fluency,2022.2.4,Win32,59.95203837,,,,,,,,,,,,,,,,,,,,,,,0,1,img/B01_00.jpg,MF,Press J if the face is MALE and K if the face is FEMALE, ,JK,,,,,,,,,,,,,,,,,,,,,,,,,,,,,,,,1,0.346,,,,,,,,,,,,,,0,18,18,0,1,,,,,,,,,,,,,space,0.079,,,,,,,,,,,,,,,,,,,,,,,,,,,,,,,,,,,,,,,,,,,,,,,,,,,,,,,,,,,,
,,,,602970,001,2024-02-07_21h02.24.123,fluency,2022.2.4,Win32,59.95203837,,,,,,,,,,,,,,,,,,,,,,,7,1,img/B01_07.jpg,MF,Press J if the face is MALE and K if the face is FEMALE, ,JK,,,,,,,,,,,,,,,,,,,,,,,,,,,,,,,,,,,,,,,,,,,,,,272.764,0,19,19,7,1,109,0,0,0,0,1,98,,,,,,,,,,,,,,,,,,,,,,,,,,,,,,,,,,,,,,,,,,,,,,,,,,,,,,,,,,,,,,,,,,,
,,,,602970,001,2024-02-07_21h02.24.123,fluency,2022.2.4,Win32,59.95203837,,,,,,,,,,,,,,,,,,,,,,,,,,,,,,,,,,,,,,,,,,,,,,,,,,,,,,,,,,,,,,,,,,,,,,,,,,,,,,,,,,0,0,0,0,1,,"[""k""]",[0.6639999999999873],0,"[""k""]",[0.6639999999999873],,,,,,,,,,,,,,,,,,,,,,,,,,,,,,,,,,,,,,,,,,,,,,,,,,,,,,,,,,,,,,
,,,,602970,001,2024-02-07_21h02.24.123,fluency,2022.2.4,Win32,59.95203837,,,,,,,,,,,,,,,,,,,,,,,7,1,img/B01_07.jpg,MF,Press J if the face is MALE and K if the face is FEMALE, ,JK,,,,,,,,,,,,,,,,,,,,,,,,,,,,,,,,5,0.326,,,,,,,,,,,,,,0,19,19,7,1,,,,,,,,,,,,,space,0.151,,,,,,,,,,,,,,,,,,,,,,,,,,,,,,,,,,,,,,,,,,,,,,,,,,,,,,,,,,,,
,,,,602970,001,2024-02-07_21h02.24.123,fluency,2022.2.4,Win32,59.95203837,,,,,,,,,,,,,,,,,,,,,,,10,1,img/B01_10.jpg,MF,Press J if the face is MALE and K if the face is FEMALE, ,JK,,,,,,,,,,,,,,,,,,,,,,,,,,,,,,,,,,,,,,,,,,,,,,278.286,0,20,20,10,1,109,0,0,0,0,1,98,,,,,,,,,,,,,,,,,,,,,,,,,,,,,,,,,,,,,,,,,,,,,,,,,,,,,,,,,,,,,,,,,,,
,,,,602970,001,2024-02-07_21h02.24.123,fluency,2022.2.4,Win32,59.95203837,,,,,,,,,,,,,,,,,,,,,,,,,,,,,,,,,,,,,,,,,,,,,,,,,,,,,,,,,,,,,,,,,,,,,,,,,,,,,,,,,,0,0,0,0,1,,"[""k""]",[0.6429999999999723],0,"[""k"",""space""]","[0.6429999999999723,0.8580000000000041]",,,,,,,,,,,,,,,,,,,,,,,,,,,,,,,,,,,,,,,,,,,,,,,,,,,,,,,,,,,,,,
,,,,602970,001,2024-02-07_21h02.24.123,fluency,2022.2.4,Win32,59.95203837,,,,,,,,,,,,,,,,,,,,,,,10,1,img/B01_10.jpg,MF,Press J if the face is MALE and K if the face is FEMALE, ,JK,,,,,,,,,,,,,,,,,,,,,,,,,,,,,,,,5,0.346,,,,,,,,,,,,,,0,20,20,10,1,,,,,,,,,,,,,space,0.166,,,,,,,,,,,,,,,,,,,,,,,,,,,,,,,,,,,,,,,,,,,,,,,,,,,,,,,,,,,,
,,,,602970,001,2024-02-07_21h02.24.123,fluency,2022.2.4,Win32,59.95203837,,,,,,,,,,,,,,,,,,,,,,,9,4,img/B04_09.jpg,MF,Press J if the face is MALE and K if the face is FEMALE, ,JK,,,,,,,,,,,,,,,,,,,,,,,,,,,,,,,,,,,,,,,,,,,,,,282.857,0,21,21,42,1,109,0,0,0,0,1,98,,,,,,,,,,,,,,,,,,,,,,,,,,,,,,,,,,,,,,,,,,,,,,,,,,,,,,,,,,,,,,,,,,,
,,,,602970,001,2024-02-07_21h02.24.123,fluency,2022.2.4,Win32,59.95203837,,,,,,,,,,,,,,,,,,,,,,,,,,,,,,,,,,,,,,,,,,,,,,,,,,,,,,,,,,,,,,,,,,,,,,,,,,,,,,,,,,0,0,0,0,1,,"[""k""]",[0.7600000000000477],0,"[""k""]",[0.7600000000000477],,,,,,,,,,,,,,,,,,,,,,,,,,,,,,,,,,,,,,,,,,,,,,,,,,,,,,,,,,,,,,
,,,,602970,001,2024-02-07_21h02.24.123,fluency,2022.2.4,Win32,59.95203837,,,,,,,,,,,,,,,,,,,,,,,9,4,img/B04_09.jpg,MF,Press J if the face is MALE and K if the face is FEMALE, ,JK,,,,,,,,,,,,,,,,,,,,,,,,,,,,,,,,2,0.353,,,,,,,,,,,,,,0,21,21,42,1,,,,,,,,,,,,,space,0.125,,,,,,,,,,,,,,,,,,,,,,,,,,,,,,,,,,,,,,,,,,,,,,,,,,,,,,,,,,,,
,,,,602970,001,2024-02-07_21h02.24.123,fluency,2022.2.4,Win32,59.95203837,,,,,,,,,,,,,,,,,,,,,,,2,8,img/B08_02.jpg,MF,Press J if the face is MALE and K if the face is FEMALE, ,JK,,,,,,,,,,,,,,,,,,,,,,,,,,,,,,,,,,,,,,,,,,,,,,287.396,0,22,22,79,1,109,0,0,0,0,1,98,,,,,,,,,,,,,,,,,,,,,,,,,,,,,,,,,,,,,,,,,,,,,,,,,,,,,,,,,,,,,,,,,,,
,,,,602970,001,2024-02-07_21h02.24.123,fluency,2022.2.4,Win32,59.95203837,,,,,,,,,,,,,,,,,,,,,,,,,,,,,,,,,,,,,,,,,,,,,,,,,,,,,,,,,,,,,,,,,,,,,,,,,,,,,,,,,,0,0,0,0,1,,"[""k""]",[1.007000000000005],0,"[""k""]",[1.007000000000005],,,,,,,,,,,,,,,,,,,,,,,,,,,,,,,,,,,,,,,,,,,,,,,,,,,,,,,,,,,,,,
,,,,602970,001,2024-02-07_21h02.24.123,fluency,2022.2.4,Win32,59.95203837,,,,,,,,,,,,,,,,,,,,,,,2,8,img/B08_02.jpg,MF,Press J if the face is MALE and K if the face is FEMALE, ,JK,,,,,,,,,,,,,,,,,,,,,,,,,,,,,,,,4,0.381,,,,,,,,,,,,,,0,22,22,79,1,,,,,,,,,,,,,space,0.119,,,,,,,,,,,,,,,,,,,,,,,,,,,,,,,,,,,,,,,,,,,,,,,,,,,,,,,,,,,,
,,,,602970,001,2024-02-07_21h02.24.123,fluency,2022.2.4,Win32,59.95203837,,,,,,,,,,,,,,,,,,,,,,,4,3,img/B03_04.jpg,MF,Press J if the face is MALE and K if the face is FEMALE, ,JK,,,,,,,,,,,,,,,,,,,,,,,,,,,,,,,,,,,,,,,,,,,,,,291.967,0,23,23,26,1,109,0,0,0,0,1,98,,,,,,,,,,,,,,,,,,,,,,,,,,,,,,,,,,,,,,,,,,,,,,,,,,,,,,,,,,,,,,,,,,,
,,,,602970,001,2024-02-07_21h02.24.123,fluency,2022.2.4,Win32,59.95203837,,,,,,,,,,,,,,,,,,,,,,,,,,,,,,,,,,,,,,,,,,,,,,,,,,,,,,,,,,,,,,,,,,,,,,,,,,,,,,,,,,0,0,0,0,1,,"[""k""]",[0.7899999999999636],0,"[""k""]",[0.7899999999999636],,,,,,,,,,,,,,,,,,,,,,,,,,,,,,,,,,,,,,,,,,,,,,,,,,,,,,,,,,,,,,
,,,,602970,001,2024-02-07_21h02.24.123,fluency,2022.2.4,Win32,59.95203837,,,,,,,,,,,,,,,,,,,,,,,4,3,img/B03_04.jpg,MF,Press J if the face is MALE and K if the face is FEMALE, ,JK,,,,,,,,,,,,,,,,,,,,,,,,,,,,,,,,4,2.176,,,,,,,,,,,,,,0,23,23,26,1,,,,,,,,,,,,,space,0.639,,,,,,,,,,,,,,,,,,,,,,,,,,,,,,,,,,,,,,,,,,,,,,,,,,,,,,,,,,,,
,,,,602970,001,2024-02-07_21h02.24.123,fluency,2022.2.4,Win32,59.95203837,,,,,,,,,,,,,,,,,,,,,,,3,1,img/B01_03.jpg,MF,Press J if the face is MALE and K if the face is FEMALE, ,JK,,,,,,,,,,,,,,,,,,,,,,,,,,,,,,,,,,,,,,,,,,,,,,299.844,0,24,24,3,1,109,0,0,0,0,1,98,,,,,,,,,,,,,,,,,,,,,,,,,,,,,,,,,,,,,,,,,,,,,,,,,,,,,,,,,,,,,,,,,,,
,,,,602970,001,2024-02-07_21h02.24.123,fluency,2022.2.4,Win32,59.95203837,,,,,,,,,,,,,,,,,,,,,,,,,,,,,,,,,,,,,,,,,,,,,,,,,,,,,,,,,,,,,,,,,,,,,,,,,,,,,,,,,,0,0,0,0,1,,"[""j""]",[1.3759999999999764],0,"[""j""]",[1.3759999999999764],,,,,,,,,,,,,,,,,,,,,,,,,,,,,,,,,,,,,,,,,,,,,,,,,,,,,,,,,,,,,,
,,,,602970,001,2024-02-07_21h02.24.123,fluency,2022.2.4,Win32,59.95203837,,,,,,,,,,,,,,,,,,,,,,,3,1,img/B01_03.jpg,MF,Press J if the face is MALE and K if the face is FEMALE, ,JK,,,,,,,,,,,,,,,,,,,,,,,,,,,,,,,,1,0.822,,,,,,,,,,,,,,0,24,24,3,1,,,,,,,,,,,,,space,0.141,,,,,,,,,,,,,,,,,,,,,,,,,,,,,,,,,,,,,,,,,,,,,,,,,,,,,,,,,,,,
,,,,602970,001,2024-02-07_21h02.24.123,fluency,2022.2.4,Win32,59.95203837,,,,,,,,,,,,,,,,,,,,,,,8,9,img/B09_08.jpg,MF,Press J if the face is MALE and K if the face is FEMALE, ,JK,,,,,,,,,,,,,,,,,,,,,,,,,,,,,,,,,,,,,,,,,,,,,,304.865,0,25,25,96,1,109,0,0,0,0,1,98,,,,,,,,,,,,,,,,,,,,,,,,,,,,,,,,,,,,,,,,,,,,,,,,,,,,,,,,,,,,,,,,,,,
,,,,602970,001,2024-02-07_21h02.24.123,fluency,2022.2.4,Win32,59.95203837,,,,,,,,,,,,,,,,,,,,,,,,,,,,,,,,,,,,,,,,,,,,,,,,,,,,,,,,,,,,,,,,,,,,,,,,,,,,,,,,,,0,0,0,0,1,,"[""k""]",[0.757000000000005],0,"[""k""]",[0.7559999999999718],,,,,,,,,,,,,,,,,,,,,,,,,,,,,,,,,,,,,,,,,,,,,,,,,,,,,,,,,,,,,,
,,,,602970,001,2024-02-07_21h02.24.123,fluency,2022.2.4,Win32,59.95203837,,,,,,,,,,,,,,,,,,,,,,,8,9,img/B09_08.jpg,MF,Press J if the face is MALE and K if the face is FEMALE, ,JK,,,,,,,,,,,,,,,,,,,,,,,,,,,,,,,,5,0.394,,,,,,,,,,,,,,0,25,25,96,1,,,,,,,,,,,,,space,0.141,,,,,,,,,,,,,,,,,,,,,,,,,,,,,,,,,,,,,,,,,,,,,,,,,,,,,,,,,,,,
,,,,602970,001,2024-02-07_21h02.24.123,fluency,2022.2.4,Win32,59.95203837,,,,,,,,,,,,,,,,,,,,,,,6,6,img/B06_06.jpg,MF,Press J if the face is MALE and K if the face is FEMALE, ,JK,,,,,,,,,,,,,,,,,,,,,,,,,,,,,,,,,,,,,,,,,,,,,,309.454,0,26,26,61,1,109,0,0,0,0,1,98,,,,,,,,,,,,,,,,,,,,,,,,,,,,,,,,,,,,,,,,,,,,,,,,,,,,,,,,,,,,,,,,,,,
,,,,602970,001,2024-02-07_21h02.24.123,fluency,2022.2.4,Win32,59.95203837,,,,,,,,,,,,,,,,,,,,,,,,,,,,,,,,,,,,,,,,,,,,,,,,,,,,,,,,,,,,,,,,,,,,,,,,,,,,,,,,,,0,0,0,0,1,,"[""k""]",[0.6659999999999968],0,"[""k""]",[0.6659999999999968],,,,,,,,,,,,,,,,,,,,,,,,,,,,,,,,,,,,,,,,,,,,,,,,,,,,,,,,,,,,,,
,,,,602970,001,2024-02-07_21h02.24.123,fluency,2022.2.4,Win32,59.95203837,,,,,,,,,,,,,,,,,,,,,,,6,6,img/B06_06.jpg,MF,Press J if the face is MALE and K if the face is FEMALE, ,JK,,,,,,,,,,,,,,,,,,,,,,,,,,,,,,,,4,0.741,,,,,,,,,,,,,,0,26,26,61,1,,,,,,,,,,,,,space,0.092,,,,,,,,,,,,,,,,,,,,,,,,,,,,,,,,,,,,,,,,,,,,,,,,,,,,,,,,,,,,
,,,,602970,001,2024-02-07_21h02.24.123,fluency,2022.2.4,Win32,59.95203837,,,,,,,,,,,,,,,,,,,,,,,1,4,img/B04_01.jpg,MF,Press J if the face is MALE and K if the face is FEMALE, ,JK,,,,,,,,,,,,,,,,,,,,,,,,,,,,,,,,,,,,,,,,,,,,,,315.343,0,27,27,34,1,109,0,0,0,0,1,98,,,,,,,,,,,,,,,,,,,,,,,,,,,,,,,,,,,,,,,,,,,,,,,,,,,,,,,,,,,,,,,,,,,
,,,,602970,001,2024-02-07_21h02.24.123,fluency,2022.2.4,Win32,59.95203837,,,,,,,,,,,,,,,,,,,,,,,,,,,,,,,,,,,,,,,,,,,,,,,,,,,,,,,,,,,,,,,,,,,,,,,,,,,,,,,,,,0,0,0,0,1,,"[""j""]",[0.9699999999999704],0,"[""j""]",[0.9699999999999704],,,,,,,,,,,,,,,,,,,,,,,,,,,,,,,,,,,,,,,,,,,,,,,,,,,,,,,,,,,,,,
,,,,602970,001,2024-02-07_21h02.24.123,fluency,2022.2.4,Win32,59.95203837,,,,,,,,,,,,,,,,,,,,,,,1,4,img/B04_01.jpg,MF,Press J if the face is MALE and K if the face is FEMALE, ,JK,,,,,,,,,,,,,,,,,,,,,,,,,,,,,,,,2,0.33,,,,,,,,,,,,,,0,27,27,34,1,,,,,,,,,,,,,space,0.094,,,,,,,,,,,,,,,,,,,,,,,,,,,,,,,,,,,,,,,,,,,,,,,,,,,,,,,,,,,,
,,,,602970,001,2024-02-07_21h02.24.123,fluency,2022.2.4,Win32,59.95203837,,,,,,,,,,,,,,,,,,,,,,,5,3,img/B03_05.jpg,MF,Press J if the face is MALE and K if the face is FEMALE, ,JK,,,,,,,,,,,,,,,,,,,,,,,,,,,,,,,,,,,,,,,,,,,,,,320.818,0,28,28,27,1,109,0,0,0,0,1,98,,,,,,,,,,,,,,,,,,,,,,,,,,,,,,,,,,,,,,,,,,,,,,,,,,,,,,,,,,,,,,,,,,,
,,,,602970,001,2024-02-07_21h02.24.123,fluency,2022.2.4,Win32,59.95203837,,,,,,,,,,,,,,,,,,,,,,,,,,,,,,,,,,,,,,,,,,,,,,,,,,,,,,,,,,,,,,,,,,,,,,,,,,,,,,,,,,0,0,0,0,1,,"[""k""]",[1.0049999999999955],0,"[""k""]",[1.0049999999999955],,,,,,,,,,,,,,,,,,,,,,,,,,,,,,,,,,,,,,,,,,,,,,,,,,,,,,,,,,,,,,
,,,,602970,001,2024-02-07_21h02.24.123,fluency,2022.2.4,Win32,59.95203837,,,,,,,,,,,,,,,,,,,,,,,5,3,img/B03_05.jpg,MF,Press J if the face is MALE and K if the face is FEMALE, ,JK,,,,,,,,,,,,,,,,,,,,,,,,,,,,,,,,3,1.077,,,,,,,,,,,,,,0,28,28,27,1,,,,,,,,,,,,,space,0.117,,,,,,,,,,,,,,,,,,,,,,,,,,,,,,,,,,,,,,,,,,,,,,,,,,,,,,,,,,,,
,,,,602970,001,2024-02-07_21h02.24.123,fluency,2022.2.4,Win32,59.95203837,,,,,,,,,,,,,,,,,,,,,,,4,6,img/B06_04.jpg,MF,Press J if the face is MALE and K if the face is FEMALE, ,JK,,,,,,,,,,,,,,,,,,,,,,,,,,,,,,,,,,,,,,,,,,,,,,326.089,0,29,29,59,1,109,0,0,0,0,1,98,,,,,,,,,,,,,,,,,,,,,,,,,,,,,,,,,,,,,,,,,,,,,,,,,,,,,,,,,,,,,,,,,,,
,,,,602970,001,2024-02-07_21h02.24.123,fluency,2022.2.4,Win32,59.95203837,,,,,,,,,,,,,,,,,,,,,,,,,,,,,,,,,,,,,,,,,,,,,,,,,,,,,,,,,,,,,,,,,,,,,,,,,,,,,,,,,,0,0,0,0,1,,"[""j""]",[0.9590000000000032],0,"[""j""]",[0.9590000000000032],,,,,,,,,,,,,,,,,,,,,,,,,,,,,,,,,,,,,,,,,,,,,,,,,,,,,,,,,,,,,,
,,,,602970,001,2024-02-07_21h02.24.123,fluency,2022.2.4,Win32,59.95203837,,,,,,,,,,,,,,,,,,,,,,,4,6,img/B06_04.jpg,MF,Press J if the face is MALE and K if the face is FEMALE, ,JK,,,,,,,,,,,,,,,,,,,,,,,,,,,,,,,,3,0.385,,,,,,,,,,,,,,0,29,29,59,1,,,,,,,,,,,,,space,0.178,,,,,,,,,,,,,,,,,,,,,,,,,,,,,,,,,,,,,,,,,,,,,,,,,,,,,,,,,,,,
,,,,602970,001,2024-02-07_21h02.24.123,fluency,2022.2.4,Win32,59.95203837,,,,,,,,,,,,,,,,,,,,,,,3,4,img/B04_03.jpg,MF,Press J if the face is MALE and K if the face is FEMALE, ,JK,,,,,,,,,,,,,,,,,,,,,,,,,,,,,,,,,,,,,,,,,,,,,,330.71,0,30,30,36,1,109,0,0,0,0,1,98,,,,,,,,,,,,,,,,,,,,,,,,,,,,,,,,,,,,,,,,,,,,,,,,,,,,,,,,,,,,,,,,,,,
,,,,602970,001,2024-02-07_21h02.24.123,fluency,2022.2.4,Win32,59.95203837,,,,,,,,,,,,,,,,,,,,,,,,,,,,,,,,,,,,,,,,,,,,,,,,,,,,,,,,,,,,,,,,,,,,,,,,,,,,,,,,,,0,0,0,0,1,,"[""j""]",[0.7789999999999964],0,"[""j""]",[0.7789999999999964],,,,,,,,,,,,,,,,,,,,,,,,,,,,,,,,,,,,,,,,,,,,,,,,,,,,,,,,,,,,,,
,,,,602970,001,2024-02-07_21h02.24.123,fluency,2022.2.4,Win32,59.95203837,,,,,,,,,,,,,,,,,,,,,,,3,4,img/B04_03.jpg,MF,Press J if the face is MALE and K if the face is FEMALE, ,JK,,,,,,,,,,,,,,,,,,,,,,,,,,,,,,,,2,0.306,,,,,,,,,,,,,,0,30,30,36,1,,,,,,,,,,,,,space,0.101,,,,,,,,,,,,,,,,,,,,,,,,,,,,,,,,,,,,,,,,,,,,,,,,,,,,,,,,,,,,
,,,,602970,001,2024-02-07_21h02.24.123,fluency,2022.2.4,Win32,59.95203837,,,,,,,,,,,,,,,,,,,,,,,1,7,img/B07_01.jpg,MF,Press J if the face is MALE and K if the face is FEMALE, ,JK,,,,,,,,,,,,,,,,,,,,,,,,,,,,,,,,,,,,,,,,,,,,,,336.184,0,31,31,67,1,109,0,0,0,0,1,98,,,,,,,,,,,,,,,,,,,,,,,,,,,,,,,,,,,,,,,,,,,,,,,,,,,,,,,,,,,,,,,,,,,
,,,,602970,001,2024-02-07_21h02.24.123,fluency,2022.2.4,Win32,59.95203837,,,,,,,,,,,,,,,,,,,,,,,,,,,,,,,,,,,,,,,,,,,,,,,,,,,,,,,,,,,,,,,,,,,,,,,,,,,,,,,,,,0,0,0,0,1,,"[""j""]",[0.9550000000000409],0,"[""j""]",[0.9550000000000409],,,,,,,,,,,,,,,,,,,,,,,,,,,,,,,,,,,,,,,,,,,,,,,,,,,,,,,,,,,,,,
,,,,602970,001,2024-02-07_21h02.24.123,fluency,2022.2.4,Win32,59.95203837,,,,,,,,,,,,,,,,,,,,,,,1,7,img/B07_01.jpg,MF,Press J if the face is MALE and K if the face is FEMALE, ,JK,,,,,,,,,,,,,,,,,,,,,,,,,,,,,,,,4,0.374,,,,,,,,,,,,,,0,31,31,67,1,,,,,,,,,,,,,space,0.111,,,,,,,,,,,,,,,,,,,,,,,,,,,,,,,,,,,,,,,,,,,,,,,,,,,,,,,,,,,,
,,,,602970,001,2024-02-07_21h02.24.123,fluency,2022.2.4,Win32,59.95203837,,,,,,,,,,,,,,,,,,,,,,,7,8,img/B08_07.jpg,MF,Press J if the face is MALE and K if the face is FEMALE, ,JK,,,,,,,,,,,,,,,,,,,,,,,,,,,,,,,,,,,,,,,,,,,,,,340.721,0,32,32,84,1,109,0,0,0,0,1,98,,,,,,,,,,,,,,,,,,,,,,,,,,,,,,,,,,,,,,,,,,,,,,,,,,,,,,,,,,,,,,,,,,,
,,,,602970,001,2024-02-07_21h02.24.123,fluency,2022.2.4,Win32,59.95203837,,,,,,,,,,,,,,,,,,,,,,,,,,,,,,,,,,,,,,,,,,,,,,,,,,,,,,,,,,,,,,,,,,,,,,,,,,,,,,,,,,0,0,0,0,1,,"[""j""]",[0.8659999999999854],0,"[""j""]",[0.8659999999999854],,,,,,,,,,,,,,,,,,,,,,,,,,,,,,,,,,,,,,,,,,,,,,,,,,,,,,,,,,,,,,
,,,,602970,001,2024-02-07_21h02.24.123,fluency,2022.2.4,Win32,59.95203837,,,,,,,,,,,,,,,,,,,,,,,7,8,img/B08_07.jpg,MF,Press J if the face is MALE and K if the face is FEMALE, ,JK,,,,,,,,,,,,,,,,,,,,,,,,,,,,,,,,3,0.308,,,,,,,,,,,,,,0,32,32,84,1,,,,,,,,,,,,,space,0.117,,,,,,,,,,,,,,,,,,,,,,,,,,,,,,,,,,,,,,,,,,,,,,,,,,,,,,,,,,,,
,,,,602970,001,2024-02-07_21h02.24.123,fluency,2022.2.4,Win32,59.95203837,,,,,,,,,,,,,,,,,,,,,,,0,3,img/B03_00.jpg,MF,Press J if the face is MALE and K if the face is FEMALE, ,JK,,,,,,,,,,,,,,,,,,,,,,,,,,,,,,,,,,,,,,,,,,,,,,346.21,0,33,33,22,1,109,0,0,0,0,1,98,,,,,,,,,,,,,,,,,,,,,,,,,,,,,,,,,,,,,,,,,,,,,,,,,,,,,,,,,,,,,,,,,,,
,,,,602970,001,2024-02-07_21h02.24.123,fluency,2022.2.4,Win32,59.95203837,,,,,,,,,,,,,,,,,,,,,,,,,,,,,,,,,,,,,,,,,,,,,,,,,,,,,,,,,,,,,,,,,,,,,,,,,,,,,,,,,,0,0,0,0,1,,"[""j"",""j""]","[0.7950000000000159,0.8779999999999859]",0,"[""j"",""j""]","[0.7950000000000159,0.8779999999999859]",,,,,,,,,,,,,,,,,,,,,,,,,,,,,,,,,,,,,,,,,,,,,,,,,,,,,,,,,,,,,,
,,,,602970,001,2024-02-07_21h02.24.123,fluency,2022.2.4,Win32,59.95203837,,,,,,,,,,,,,,,,,,,,,,,0,3,img/B03_00.jpg,MF,Press J if the face is MALE and K if the face is FEMALE, ,JK,,,,,,,,,,,,,,,,,,,,,,,,,,,,,,,,2,0.329,,,,,,,,,,,,,,0,33,33,22,1,,,,,,,,,,,,,space,0.133,,,,,,,,,,,,,,,,,,,,,,,,,,,,,,,,,,,,,,,,,,,,,,,,,,,,,,,,,,,,
,,,,602970,001,2024-02-07_21h02.24.123,fluency,2022.2.4,Win32,59.95203837,,,,,,,,,,,,,,,,,,,,,,,9,8,img/B08_09.jpg,MF,Press J if the face is MALE and K if the face is FEMALE, ,JK,,,,,,,,,,,,,,,,,,,,,,,,,,,,,,,,,,,,,,,,,,,,,,350.733,0,34,34,86,1,109,0,0,0,0,1,98,,,,,,,,,,,,,,,,,,,,,,,,,,,,,,,,,,,,,,,,,,,,,,,,,,,,,,,,,,,,,,,,,,,
,,,,602970,001,2024-02-07_21h02.24.123,fluency,2022.2.4,Win32,59.95203837,,,,,,,,,,,,,,,,,,,,,,,,,,,,,,,,,,,,,,,,,,,,,,,,,,,,,,,,,,,,,,,,,,,,,,,,,,,,,,,,,,0,0,0,0,1,,"[""j""]",[0.6439999999999486],0,"[""j""]",[0.6439999999999486],,,,,,,,,,,,,,,,,,,,,,,,,,,,,,,,,,,,,,,,,,,,,,,,,,,,,,,,,,,,,,
,,,,602970,001,2024-02-07_21h02.24.123,fluency,2022.2.4,Win32,59.95203837,,,,,,,,,,,,,,,,,,,,,,,9,8,img/B08_09.jpg,MF,Press J if the face is MALE and K if the face is FEMALE, ,JK,,,,,,,,,,,,,,,,,,,,,,,,,,,,,,,,2,0.347,,,,,,,,,,,,,,0,34,34,86,1,,,,,,,,,,,,,space,0.054,,,,,,,,,,,,,,,,,,,,,,,,,,,,,,,,,,,,,,,,,,,,,,,,,,,,,,,,,,,,
,,,,602970,001,2024-02-07_21h02.24.123,fluency,2022.2.4,Win32,59.95203837,,,,,,,,,,,,,,,,,,,,,,,3,3,img/B03_03.jpg,MF,Press J if the face is MALE and K if the face is FEMALE, ,JK,,,,,,,,,,,,,,,,,,,,,,,,,,,,,,,,,,,,,,,,,,,,,,356.189,0,35,35,25,1,109,0,0,0,0,1,98,,,,,,,,,,,,,,,,,,,,,,,,,,,,,,,,,,,,,,,,,,,,,,,,,,,,,,,,,,,,,,,,,,,
,,,,602970,001,2024-02-07_21h02.24.123,fluency,2022.2.4,Win32,59.95203837,,,,,,,,,,,,,,,,,,,,,,,,,,,,,,,,,,,,,,,,,,,,,,,,,,,,,,,,,,,,,,,,,,,,,,,,,,,,,,,,,,0,0,0,0,1,,"[""j""]",[0.5520000000000209],0,"[""j""]",[0.5520000000000209],,,,,,,,,,,,,,,,,,,,,,,,,,,,,,,,,,,,,,,,,,,,,,,,,,,,,,,,,,,,,,
,,,,602970,001,2024-02-07_21h02.24.123,fluency,2022.2.4,Win32,59.95203837,,,,,,,,,,,,,,,,,,,,,,,3,3,img/B03_03.jpg,MF,Press J if the face is MALE and K if the face is FEMALE, ,JK,,,,,,,,,,,,,,,,,,,,,,,,,,,,,,,,4,0.337,,,,,,,,,,,,,,0,35,35,25,1,,,,,,,,,,,,,space,0.116,,,,,,,,,,,,,,,,,,,,,,,,,,,,,,,,,,,,,,,,,,,,,,,,,,,,,,,,,,,,
,,,,602970,001,2024-02-07_21h02.24.123,fluency,2022.2.4,Win32,59.95203837,,,,,,,,,,,,,,,,,,,,,,,9,9,img/B09_09.jpg,MF,Press J if the face is MALE and K if the face is FEMALE, ,JK,,,,,,,,,,,,,,,,,,,,,,,,,,,,,,,,,,,,,,,,,,,,,,360.71,0,36,36,97,1,109,0,0,0,0,1,98,,,,,,,,,,,,,,,,,,,,,,,,,,,,,,,,,,,,,,,,,,,,,,,,,,,,,,,,,,,,,,,,,,,
,,,,602970,001,2024-02-07_21h02.24.123,fluency,2022.2.4,Win32,59.95203837,,,,,,,,,,,,,,,,,,,,,,,,,,,,,,,,,,,,,,,,,,,,,,,,,,,,,,,,,,,,,,,,,,,,,,,,,,,,,,,,,,0,0,0,0,1,,"[""k""]",[0.5749999999999886],0,"[""k""]",[0.5749999999999886],,,,,,,,,,,,,,,,,,,,,,,,,,,,,,,,,,,,,,,,,,,,,,,,,,,,,,,,,,,,,,
,,,,602970,001,2024-02-07_21h02.24.123,fluency,2022.2.4,Win32,59.95203837,,,,,,,,,,,,,,,,,,,,,,,9,9,img/B09_09.jpg,MF,Press J if the face is MALE and K if the face is FEMALE, ,JK,,,,,,,,,,,,,,,,,,,,,,,,,,,,,,,,5,0.304,,,,,,,,,,,,,,0,36,36,97,1,,,,,,,,,,,,,space,0.095,,,,,,,,,,,,,,,,,,,,,,,,,,,,,,,,,,,,,,,,,,,,,,,,,,,,,,,,,,,,
,,,,602970,001,2024-02-07_21h02.24.123,fluency,2022.2.4,Win32,59.95203837,,,,,,,,,,,,,,,,,,,,,,,9,1,img/B01_09.jpg,MF,Press J if the face is MALE and K if the face is FEMALE, ,JK,,,,,,,,,,,,,,,,,,,,,,,,,,,,,,,,,,,,,,,,,,,,,,366.167,0,37,37,9,1,109,0,0,0,0,1,98,,,,,,,,,,,,,,,,,,,,,,,,,,,,,,,,,,,,,,,,,,,,,,,,,,,,,,,,,,,,,,,,,,,
,,,,602970,001,2024-02-07_21h02.24.123,fluency,2022.2.4,Win32,59.95203837,,,,,,,,,,,,,,,,,,,,,,,,,,,,,,,,,,,,,,,,,,,,,,,,,,,,,,,,,,,,,,,,,,,,,,,,,,,,,,,,,,0,0,0,0,1,,"[""k""]",[0.7910000000000537],0,"[""k""]",[0.7910000000000537],,,,,,,,,,,,,,,,,,,,,,,,,,,,,,,,,,,,,,,,,,,,,,,,,,,,,,,,,,,,,,
,,,,602970,001,2024-02-07_21h02.24.123,fluency,2022.2.4,Win32,59.95203837,,,,,,,,,,,,,,,,,,,,,,,9,1,img/B01_09.jpg,MF,Press J if the face is MALE and K if the face is FEMALE, ,JK,,,,,,,,,,,,,,,,,,,,,,,,,,,,,,,,5,0.319,,,,,,,,,,,,,,0,37,37,9,1,,,,,,,,,,,,,space,0.136,,,,,,,,,,,,,,,,,,,,,,,,,,,,,,,,,,,,,,,,,,,,,,,,,,,,,,,,,,,,
,,,,602970,001,2024-02-07_21h02.24.123,fluency,2022.2.4,Win32,59.95203837,,,,,,,,,,,,,,,,,,,,,,,4,2,img/B02_04.jpg,MF,Press J if the face is MALE and K if the face is FEMALE, ,JK,,,,,,,,,,,,,,,,,,,,,,,,,,,,,,,,,,,,,,,,,,,,,,371.689,0,38,38,15,1,109,0,0,0,0,1,98,,,,,,,,,,,,,,,,,,,,,,,,,,,,,,,,,,,,,,,,,,,,,,,,,,,,,,,,,,,,,,,,,,,
,,,,602970,001,2024-02-07_21h02.24.123,fluency,2022.2.4,Win32,59.95203837,,,,,,,,,,,,,,,,,,,,,,,,,,,,,,,,,,,,,,,,,,,,,,,,,,,,,,,,,,,,,,,,,,,,,,,,,,,,,,,,,,0,0,0,0,1,,"[""k""]",[1.3319999999999936],0,"[""k""]",[1.3319999999999936],,,,,,,,,,,,,,,,,,,,,,,,,,,,,,,,,,,,,,,,,,,,,,,,,,,,,,,,,,,,,,
,,,,602970,001,2024-02-07_21h02.24.123,fluency,2022.2.4,Win32,59.95203837,,,,,,,,,,,,,,,,,,,,,,,4,2,img/B02_04.jpg,MF,Press J if the face is MALE and K if the face is FEMALE, ,JK,,,,,,,,,,,,,,,,,,,,,,,,,,,,,,,,4,0.592,,,,,,,,,,,,,,0,38,38,15,1,,,,,,,,,,,,,space,0.205,,,,,,,,,,,,,,,,,,,,,,,,,,,,,,,,,,,,,,,,,,,,,,,,,,,,,,,,,,,,
,,,,602970,001,2024-02-07_21h02.24.123,fluency,2022.2.4,Win32,59.95203837,,,,,,,,,,,,,,,,,,,,,,,0,5,img/B05_00.jpg,MF,Press J if the face is MALE and K if the face is FEMALE, ,JK,,,,,,,,,,,,,,,,,,,,,,,,,,,,,,,,,,,,,,,,,,,,,,376.544,0,39,39,44,1,109,0,0,0,0,1,98,,,,,,,,,,,,,,,,,,,,,,,,,,,,,,,,,,,,,,,,,,,,,,,,,,,,,,,,,,,,,,,,,,,
,,,,602970,001,2024-02-07_21h02.24.123,fluency,2022.2.4,Win32,59.95203837,,,,,,,,,,,,,,,,,,,,,,,,,,,,,,,,,,,,,,,,,,,,,,,,,,,,,,,,,,,,,,,,,,,,,,,,,,,,,,,,,,0,0,0,0,1,,"[""j""]",[0.9139999999999873],0,"[""j""]",[0.9139999999999873],,,,,,,,,,,,,,,,,,,,,,,,,,,,,,,,,,,,,,,,,,,,,,,,,,,,,,,,,,,,,,
,,,,602970,001,2024-02-07_21h02.24.123,fluency,2022.2.4,Win32,59.95203837,,,,,,,,,,,,,,,,,,,,,,,0,5,img/B05_00.jpg,MF,Press J if the face is MALE and K if the face is FEMALE, ,JK,,,,,,,,,,,,,,,,,,,,,,,,,,,,,,,,3,0.296,,,,,,,,,,,,,,0,39,39,44,1,,,,,,,,,,,,,space,0.122,,,,,,,,,,,,,,,,,,,,,,,,,,,,,,,,,,,,,,,,,,,,,,,,,,,,,,,,,,,,
,,,,602970,001,2024-02-07_21h02.24.123,fluency,2022.2.4,Win32,59.95203837,,,,,,,,,,,,,,,,,,,,,,,8,5,img/B05_08.jpg,MF,Press J if the face is MALE and K if the face is FEMALE, ,JK,,,,,,,,,,,,,,,,,,,,,,,,,,,,,,,,,,,,,,,,,,,,,,381.016,0,40,40,52,1,109,0,0,0,0,1,98,,,,,,,,,,,,,,,,,,,,,,,,,,,,,,,,,,,,,,,,,,,,,,,,,,,,,,,,,,,,,,,,,,,
,,,,602970,001,2024-02-07_21h02.24.123,fluency,2022.2.4,Win32,59.95203837,,,,,,,,,,,,,,,,,,,,,,,,,,,,,,,,,,,,,,,,,,,,,,,,,,,,,,,,,,,,,,,,,,,,,,,,,,,,,,,,,,0,0,0,0,1,,"[""k""]",[0.6229999999999905],0,"[""k""]",[0.6229999999999905],,,,,,,,,,,,,,,,,,,,,,,,,,,,,,,,,,,,,,,,,,,,,,,,,,,,,,,,,,,,,,
,,,,602970,001,2024-02-07_21h02.24.123,fluency,2022.2.4,Win32,59.95203837,,,,,,,,,,,,,,,,,,,,,,,8,5,img/B05_08.jpg,MF,Press J if the face is MALE and K if the face is FEMALE, ,JK,,,,,,,,,,,,,,,,,,,,,,,,,,,,,,,,4,0.327,,,,,,,,,,,,,,0,40,40,52,1,,,,,,,,,,,,,space,0.141,,,,,,,,,,,,,,,,,,,,,,,,,,,,,,,,,,,,,,,,,,,,,,,,,,,,,,,,,,,,
,,,,602970,001,2024-02-07_21h02.24.123,fluency,2022.2.4,Win32,59.95203837,,,,,,,,,,,,,,,,,,,,,,,8,1,img/B01_08.jpg,MF,Press J if the face is MALE and K if the face is FEMALE, ,JK,,,,,,,,,,,,,,,,,,,,,,,,,,,,,,,,,,,,,,,,,,,,,,386.538,0,41,41,8,1,109,0,0,0,0,1,98,,,,,,,,,,,,,,,,,,,,,,,,,,,,,,,,,,,,,,,,,,,,,,,,,,,,,,,,,,,,,,,,,,,
,,,,602970,001,2024-02-07_21h02.24.123,fluency,2022.2.4,Win32,59.95203837,,,,,,,,,,,,,,,,,,,,,,,,,,,,,,,,,,,,,,,,,,,,,,,,,,,,,,,,,,,,,,,,,,,,,,,,,,,,,,,,,,0,0,0,0,1,,"[""k""]",[0.6059999999999945],0,"[""k""]",[0.6059999999999945],,,,,,,,,,,,,,,,,,,,,,,,,,,,,,,,,,,,,,,,,,,,,,,,,,,,,,,,,,,,,,
,,,,602970,001,2024-02-07_21h02.24.123,fluency,2022.2.4,Win32,59.95203837,,,,,,,,,,,,,,,,,,,,,,,8,1,img/B01_08.jpg,MF,Press J if the face is MALE and K if the face is FEMALE, ,JK,,,,,,,,,,,,,,,,,,,,,,,,,,,,,,,,5,0.312,,,,,,,,,,,,,,0,41,41,8,1,,,,,,,,,,,,,space,0.074,,,,,,,,,,,,,,,,,,,,,,,,,,,,,,,,,,,,,,,,,,,,,,,,,,,,,,,,,,,,
,,,,602970,001,2024-02-07_21h02.24.123,fluency,2022.2.4,Win32,59.95203837,,,,,,,,,,,,,,,,,,,,,,,4,9,img/B09_04.jpg,MF,Press J if the face is MALE and K if the face is FEMALE, ,JK,,,,,,,,,,,,,,,,,,,,,,,,,,,,,,,,,,,,,,,,,,,,,,390.993,0,42,42,92,1,109,0,0,0,0,1,98,,,,,,,,,,,,,,,,,,,,,,,,,,,,,,,,,,,,,,,,,,,,,,,,,,,,,,,,,,,,,,,,,,,
,,,,602970,001,2024-02-07_21h02.24.123,fluency,2022.2.4,Win32,59.95203837,,,,,,,,,,,,,,,,,,,,,,,,,,,,,,,,,,,,,,,,,,,,,,,,,,,,,,,,,,,,,,,,,,,,,,,,,,,,,,,,,,0,0,0,0,1,,"[""k""]",[1.981999999999971],0,"[""k""]",[1.981999999999971],,,,,,,,,,,,,,,,,,,,,,,,,,,,,,,,,,,,,,,,,,,,,,,,,,,,,,,,,,,,,,
,,,,602970,001,2024-02-07_21h02.24.123,fluency,2022.2.4,Win32,59.95203837,,,,,,,,,,,,,,,,,,,,,,,4,9,img/B09_04.jpg,MF,Press J if the face is MALE and K if the face is FEMALE, ,JK,,,,,,,,,,,,,,,,,,,,,,,,,,,,,,,,3,0.862,,,,,,,,,,,,,,0,42,42,92,1,,,,,,,,,,,,,space,0.111,,,,,,,,,,,,,,,,,,,,,,,,,,,,,,,,,,,,,,,,,,,,,,,,,,,,,,,,,,,,
,,,,602970,001,2024-02-07_21h02.24.123,fluency,2022.2.4,Win32,59.95203837,,,,,,,,,,,,,,,,,,,,,,,3,2,img/B02_03.jpg,MF,Press J if the face is MALE and K if the face is FEMALE, ,JK,,,,,,,,,,,,,,,,,,,,,,,,,,,,,,,,,,,,,,,,,,,,,,397.017,0,43,43,14,1,109,0,0,0,0,1,98,,,,,,,,,,,,,,,,,,,,,,,,,,,,,,,,,,,,,,,,,,,,,,,,,,,,,,,,,,,,,,,,,,,
,,,,602970,001,2024-02-07_21h02.24.123,fluency,2022.2.4,Win32,59.95203837,,,,,,,,,,,,,,,,,,,,,,,,,,,,,,,,,,,,,,,,,,,,,,,,,,,,,,,,,,,,,,,,,,,,,,,,,,,,,,,,,,0,0,0,0,1,,"[""k""]",[2.9420000000000073],0,"[""k""]",[2.9420000000000073],,,,,,,,,,,,,,,,,,,,,,,,,,,,,,,,,,,,,,,,,,,,,,,,,,,,,,,,,,,,,,
,,,,602970,001,2024-02-07_21h02.24.123,fluency,2022.2.4,Win32,59.95203837,,,,,,,,,,,,,,,,,,,,,,,3,2,img/B02_03.jpg,MF,Press J if the face is MALE and K if the face is FEMALE, ,JK,,,,,,,,,,,,,,,,,,,,,,,,,,,,,,,,4,1.23,,,,,,,,,,,,,,0,43,43,14,1,,,,,,,,,,,,,space,0.102,,,,,,,,,,,,,,,,,,,,,,,,,,,,,,,,,,,,,,,,,,,,,,,,,,,,,,,,,,,,
,,,,602970,001,2024-02-07_21h02.24.123,fluency,2022.2.4,Win32,59.95203837,,,,,,,,,,,,,,,,,,,,,,,0,6,img/B06_00.jpg,MF,Press J if the face is MALE and K if the face is FEMALE, ,JK,,,,,,,,,,,,,,,,,,,,,,,,,,,,,,,,,,,,,,,,,,,,,,402.407,0,44,44,55,1,109,0,0,0,0,1,98,,,,,,,,,,,,,,,,,,,,,,,,,,,,,,,,,,,,,,,,,,,,,,,,,,,,,,,,,,,,,,,,,,,
,,,,602970,001,2024-02-07_21h02.24.123,fluency,2022.2.4,Win32,59.95203837,,,,,,,,,,,,,,,,,,,,,,,,,,,,,,,,,,,,,,,,,,,,,,,,,,,,,,,,,,,,,,,,,,,,,,,,,,,,,,,,,,0,0,0,0,1,,"[""j""]",[0.8269999999999982],0,"[""j""]",[0.8269999999999982],,,,,,,,,,,,,,,,,,,,,,,,,,,,,,,,,,,,,,,,,,,,,,,,,,,,,,,,,,,,,,
,,,,602970,001,2024-02-07_21h02.24.123,fluency,2022.2.4,Win32,59.95203837,,,,,,,,,,,,,,,,,,,,,,,0,6,img/B06_00.jpg,MF,Press J if the face is MALE and K if the face is FEMALE, ,JK,,,,,,,,,,,,,,,,,,,,,,,,,,,,,,,,1,0.54,,,,,,,,,,,,,,0,44,44,55,1,,,,,,,,,,,,,space,0.191,,,,,,,,,,,,,,,,,,,,,,,,,,,,,,,,,,,,,,,,,,,,,,,,,,,,,,,,,,,,
,,,,602970,001,2024-02-07_21h02.24.123,fluency,2022.2.4,Win32,59.95203837,,,,,,,,,,,,,,,,,,,,,,,1,3,img/B03_01.jpg,MF,Press J if the face is MALE and K if the face is FEMALE, ,JK,,,,,,,,,,,,,,,,,,,,,,,,,,,,,,,,,,,,,,,,,,,,,,407.195,0,45,45,23,1,109,0,0,0,0,1,98,,,,,,,,,,,,,,,,,,,,,,,,,,,,,,,,,,,,,,,,,,,,,,,,,,,,,,,,,,,,,,,,,,,
,,,,602970,001,2024-02-07_21h02.24.123,fluency,2022.2.4,Win32,59.95203837,,,,,,,,,,,,,,,,,,,,,,,,,,,,,,,,,,,,,,,,,,,,,,,,,,,,,,,,,,,,,,,,,,,,,,,,,,,,,,,,,,0,0,0,0,1,,"[""j""]",[0.9049999999999727],0,"[""j""]",[0.9049999999999727],,,,,,,,,,,,,,,,,,,,,,,,,,,,,,,,,,,,,,,,,,,,,,,,,,,,,,,,,,,,,,
,,,,602970,001,2024-02-07_21h02.24.123,fluency,2022.2.4,Win32,59.95203837,,,,,,,,,,,,,,,,,,,,,,,1,3,img/B03_01.jpg,MF,Press J if the face is MALE and K if the face is FEMALE, ,JK,,,,,,,,,,,,,,,,,,,,,,,,,,,,,,,,4,0.309,,,,,,,,,,,,,,0,45,45,23,1,,,,,,,,,,,,,space,0.117,,,,,,,,,,,,,,,,,,,,,,,,,,,,,,,,,,,,,,,,,,,,,,,,,,,,,,,,,,,,
,,,,602970,001,2024-02-07_21h02.24.123,fluency,2022.2.4,Win32,59.95203837,,,,,,,,,,,,,,,,,,,,,,,2,10,img/B10_02.jpg,MF,Press J if the face is MALE and K if the face is FEMALE, ,JK,,,,,,,,,,,,,,,,,,,,,,,,,,,,,,,,,,,,,,,,,,,,,,412.684,0,46,46,101,1,109,0,0,0,0,1,98,,,,,,,,,,,,,,,,,,,,,,,,,,,,,,,,,,,,,,,,,,,,,,,,,,,,,,,,,,,,,,,,,,,
,,,,602970,001,2024-02-07_21h02.24.123,fluency,2022.2.4,Win32,59.95203837,,,,,,,,,,,,,,,,,,,,,,,,,,,,,,,,,,,,,,,,,,,,,,,,,,,,,,,,,,,,,,,,,,,,,,,,,,,,,,,,,,0,0,0,0,1,,"[""j""]",[1.4230000000000018],0,"[""j""]",[1.4230000000000018],,,,,,,,,,,,,,,,,,,,,,,,,,,,,,,,,,,,,,,,,,,,,,,,,,,,,,,,,,,,,,
,,,,602970,001,2024-02-07_21h02.24.123,fluency,2022.2.4,Win32,59.95203837,,,,,,,,,,,,,,,,,,,,,,,2,10,img/B10_02.jpg,MF,Press J if the face is MALE and K if the face is FEMALE, ,JK,,,,,,,,,,,,,,,,,,,,,,,,,,,,,,,,4,0.319,,,,,,,,,,,,,,0,46,46,101,1,,,,,,,,,,,,,space,0.106,,,,,,,,,,,,,,,,,,,,,,,,,,,,,,,,,,,,,,,,,,,,,,,,,,,,,,,,,,,,
,,,,602970,001,2024-02-07_21h02.24.123,fluency,2022.2.4,Win32,59.95203837,,,,,,,,,,,,,,,,,,,,,,,7,4,img/B04_07.jpg,MF,Press J if the face is MALE and K if the face is FEMALE, ,JK,,,,,,,,,,,,,,,,,,,,,,,,,,,,,,,,,,,,,,,,,,,,,,417.172,0,47,47,40,1,109,0,0,0,0,1,98,,,,,,,,,,,,,,,,,,,,,,,,,,,,,,,,,,,,,,,,,,,,,,,,,,,,,,,,,,,,,,,,,,,
,,,,602970,001,2024-02-07_21h02.24.123,fluency,2022.2.4,Win32,59.95203837,,,,,,,,,,,,,,,,,,,,,,,,,,,,,,,,,,,,,,,,,,,,,,,,,,,,,,,,,,,,,,,,,,,,,,,,,,,,,,,,,,0,0,0,0,1,,"[""k""]",[0.7290000000000418],0,"[""k""]",[0.7290000000000418],,,,,,,,,,,,,,,,,,,,,,,,,,,,,,,,,,,,,,,,,,,,,,,,,,,,,,,,,,,,,,
,,,,602970,001,2024-02-07_21h02.24.123,fluency,2022.2.4,Win32,59.95203837,,,,,,,,,,,,,,,,,,,,,,,7,4,img/B04_07.jpg,MF,Press J if the face is MALE and K if the face is FEMALE, ,JK,,,,,,,,,,,,,,,,,,,,,,,,,,,,,,,,1,0.286,,,,,,,,,,,,,,0,47,47,40,1,,,,,,,,,,,,,space,0.121,,,,,,,,,,,,,,,,,,,,,,,,,,,,,,,,,,,,,,,,,,,,,,,,,,,,,,,,,,,,
,,,,602970,001,2024-02-07_21h02.24.123,fluency,2022.2.4,Win32,59.95203837,,,,,,,,,,,,,,,,,,,,,,,8,4,img/B04_08.jpg,MF,Press J if the face is MALE and K if the face is FEMALE, ,JK,,,,,,,,,,,,,,,,,,,,,,,,,,,,,,,,,,,,,,,,,,,,,,421.644,0,48,48,41,1,109,0,0,0,0,1,98,,,,,,,,,,,,,,,,,,,,,,,,,,,,,,,,,,,,,,,,,,,,,,,,,,,,,,,,,,,,,,,,,,,
,,,,602970,001,2024-02-07_21h02.24.123,fluency,2022.2.4,Win32,59.95203837,,,,,,,,,,,,,,,,,,,,,,,,,,,,,,,,,,,,,,,,,,,,,,,,,,,,,,,,,,,,,,,,,,,,,,,,,,,,,,,,,,0,0,0,0,1,,"[""k""]",[0.5720000000000027],0,"[""k""]",[0.5720000000000027],,,,,,,,,,,,,,,,,,,,,,,,,,,,,,,,,,,,,,,,,,,,,,,,,,,,,,,,,,,,,,
,,,,602970,001,2024-02-07_21h02.24.123,fluency,2022.2.4,Win32,59.95203837,,,,,,,,,,,,,,,,,,,,,,,8,4,img/B04_08.jpg,MF,Press J if the face is MALE and K if the face is FEMALE, ,JK,,,,,,,,,,,,,,,,,,,,,,,,,,,,,,,,1,0.323,,,,,,,,,,,,,,0,48,48,41,1,,,,,,,,,,,,,space,0.152,,,,,,,,,,,,,,,,,,,,,,,,,,,,,,,,,,,,,,,,,,,,,,,,,,,,,,,,,,,,
,,,,602970,001,2024-02-07_21h02.24.123,fluency,2022.2.4,Win32,59.95203837,,,,,,,,,,,,,,,,,,,,,,,10,10,img/B10_10.jpg,MF,Press J if the face is MALE and K if the face is FEMALE, ,JK,,,,,,,,,,,,,,,,,,,,,,,,,,,,,,,,,,,,,,,,,,,,,,427.183,0,49,49,109,1,109,0,0,0,0,1,98,,,,,,,,,,,,,,,,,,,,,,,,,,,,,,,,,,,,,,,,,,,,,,,,,,,,,,,,,,,,,,,,,,,
,,,,602970,001,2024-02-07_21h02.24.123,fluency,2022.2.4,Win32,59.95203837,,,,,,,,,,,,,,,,,,,,,,,,,,,,,,,,,,,,,,,,,,,,,,,,,,,,,,,,,,,,,,,,,,,,,,,,,,,,,,,,,,0,0,0,0,1,,"[""k""]",[0.6399999999999864],0,"[""k""]",[0.6399999999999864],,,,,,,,,,,,,,,,,,,,,,,,,,,,,,,,,,,,,,,,,,,,,,,,,,,,,,,,,,,,,,
,,,,602970,001,2024-02-07_21h02.24.123,fluency,2022.2.4,Win32,59.95203837,,,,,,,,,,,,,,,,,,,,,,,10,10,img/B10_10.jpg,MF,Press J if the face is MALE and K if the face is FEMALE, ,JK,,,,,,,,,,,,,,,,,,,,,,,,,,,,,,,,3,0.317,,,,,,,,,,,,,,0,49,49,109,1,,,,,,,,,,,,,space,0.06,,,,,,,,,,,,,,,,,,,,,,,,,,,,,,,,,,,,,,,,,,,,,,,,,,,,,,,,,,,,
,,,,602970,001,2024-02-07_21h02.24.123,fluency,2022.2.4,Win32,59.95203837,,,,,,,,,,,,,,,,,,,,,,,0,4,img/B04_00.jpg,MF,Press J if the face is MALE and K if the face is FEMALE, ,JK,,,,,,,,,,,,,,,,,,,,,,,,,,,,,,,,,,,,,,,,,,,,,,432.622,0,50,50,33,1,109,0,0,0,0,1,98,,,,,,,,,,,,,,,,,,,,,,,,,,,,,,,,,,,,,,,,,,,,,,,,,,,,,,,,,,,,,,,,,,,
,,,,602970,001,2024-02-07_21h02.24.123,fluency,2022.2.4,Win32,59.95203837,,,,,,,,,,,,,,,,,,,,,,,,,,,,,,,,,,,,,,,,,,,,,,,,,,,,,,,,,,,,,,,,,,,,,,,,,,,,,,,,,,0,0,0,0,1,,"[""j""]",[0.6219999999999573],0,"[""j""]",[0.6219999999999573],,,,,,,,,,,,,,,,,,,,,,,,,,,,,,,,,,,,,,,,,,,,,,,,,,,,,,,,,,,,,,
,,,,602970,001,2024-02-07_21h02.24.123,fluency,2022.2.4,Win32,59.95203837,,,,,,,,,,,,,,,,,,,,,,,0,4,img/B04_00.jpg,MF,Press J if the face is MALE and K if the face is FEMALE, ,JK,,,,,,,,,,,,,,,,,,,,,,,,,,,,,,,,2,0.332,,,,,,,,,,,,,,0,50,50,33,1,,,,,,,,,,,,,space,0.207,,,,,,,,,,,,,,,,,,,,,,,,,,,,,,,,,,,,,,,,,,,,,,,,,,,,,,,,,,,,
,,,,602970,001,2024-02-07_21h02.24.123,fluency,2022.2.4,Win32,59.95203837,,,,,,,,,,,,,,,,,,,,,,,9,5,img/B05_09.jpg,MF,Press J if the face is MALE and K if the face is FEMALE, ,JK,,,,,,,,,,,,,,,,,,,,,,,,,,,,,,,,,,,,,,,,,,,,,,437.195,0,51,51,53,1,109,0,0,0,0,1,98,,,,,,,,,,,,,,,,,,,,,,,,,,,,,,,,,,,,,,,,,,,,,,,,,,,,,,,,,,,,,,,,,,,
,,,,602970,001,2024-02-07_21h02.24.123,fluency,2022.2.4,Win32,59.95203837,,,,,,,,,,,,,,,,,,,,,,,,,,,,,,,,,,,,,,,,,,,,,,,,,,,,,,,,,,,,,,,,,,,,,,,,,,,,,,,,,,0,0,0,0,1,,"[""k""]",[0.6379999999999768],0,"[""k""]",[0.6379999999999768],,,,,,,,,,,,,,,,,,,,,,,,,,,,,,,,,,,,,,,,,,,,,,,,,,,,,,,,,,,,,,
,,,,602970,001,2024-02-07_21h02.24.123,fluency,2022.2.4,Win32,59.95203837,,,,,,,,,,,,,,,,,,,,,,,9,5,img/B05_09.jpg,MF,Press J if the face is MALE and K if the face is FEMALE, ,JK,,,,,,,,,,,,,,,,,,,,,,,,,,,,,,,,5,0.398,,,,,,,,,,,,,,0,51,51,53,1,,,,,,,,,,,,,space,0.194,,,,,,,,,,,,,,,,,,,,,,,,,,,,,,,,,,,,,,,,,,,,,,,,,,,,,,,,,,,,
,,,,602970,001,2024-02-07_21h02.24.123,fluency,2022.2.4,Win32,59.95203837,,,,,,,,,,,,,,,,,,,,,,,0,7,img/B07_00.jpg,MF,Press J if the face is MALE and K if the face is FEMALE, ,JK,,,,,,,,,,,,,,,,,,,,,,,,,,,,,,,,,,,,,,,,,,,,,,442.834,0,52,52,66,1,109,0,0,0,0,1,98,,,,,,,,,,,,,,,,,,,,,,,,,,,,,,,,,,,,,,,,,,,,,,,,,,,,,,,,,,,,,,,,,,,
,,,,602970,001,2024-02-07_21h02.24.123,fluency,2022.2.4,Win32,59.95203837,,,,,,,,,,,,,,,,,,,,,,,,,,,,,,,,,,,,,,,,,,,,,,,,,,,,,,,,,,,,,,,,,,,,,,,,,,,,,,,,,,0,0,0,0,1,,"[""j""]",[0.6229999999999905],0,"[""j""]",[0.6229999999999905],,,,,,,,,,,,,,,,,,,,,,,,,,,,,,,,,,,,,,,,,,,,,,,,,,,,,,,,,,,,,,
,,,,602970,001,2024-02-07_21h02.24.123,fluency,2022.2.4,Win32,59.95203837,,,,,,,,,,,,,,,,,,,,,,,0,7,img/B07_00.jpg,MF,Press J if the face is MALE and K if the face is FEMALE, ,JK,,,,,,,,,,,,,,,,,,,,,,,,,,,,,,,,4,0.268,,,,,,,,,,,,,,0,52,52,66,1,,,,,,,,,,,,,space,0.166,,,,,,,,,,,,,,,,,,,,,,,,,,,,,,,,,,,,,,,,,,,,,,,,,,,,,,,,,,,,
,,,,602970,001,2024-02-07_21h02.24.123,fluency,2022.2.4,Win32,59.95203837,,,,,,,,,,,,,,,,,,,,,,,8,2,img/B02_08.jpg,MF,Press J if the face is MALE and K if the face is FEMALE, ,JK,,,,,,,,,,,,,,,,,,,,,,,,,,,,,,,,,,,,,,,,,,,,,,448.34,0,53,53,19,1,109,0,0,0,0,1,98,,,,,,,,,,,,,,,,,,,,,,,,,,,,,,,,,,,,,,,,,,,,,,,,,,,,,,,,,,,,,,,,,,,
,,,,602970,001,2024-02-07_21h02.24.123,fluency,2022.2.4,Win32,59.95203837,,,,,,,,,,,,,,,,,,,,,,,,,,,,,,,,,,,,,,,,,,,,,,,,,,,,,,,,,,,,,,,,,,,,,,,,,,,,,,,,,,0,0,0,0,1,,"[""k""]",[0.6610000000000014],0,"[""k""]",[0.6610000000000014],,,,,,,,,,,,,,,,,,,,,,,,,,,,,,,,,,,,,,,,,,,,,,,,,,,,,,,,,,,,,,
,,,,602970,001,2024-02-07_21h02.24.123,fluency,2022.2.4,Win32,59.95203837,,,,,,,,,,,,,,,,,,,,,,,8,2,img/B02_08.jpg,MF,Press J if the face is MALE and K if the face is FEMALE, ,JK,,,,,,,,,,,,,,,,,,,,,,,,,,,,,,,,4,0.243,,,,,,,,,,,,,,0,53,53,19,1,,,,,,,,,,,,,space,0.103,,,,,,,,,,,,,,,,,,,,,,,,,,,,,,,,,,,,,,,,,,,,,,,,,,,,,,,,,,,,
,,,,602970,001,2024-02-07_21h02.24.123,fluency,2022.2.4,Win32,59.95203837,,,,,,,,,,,,,,,,,,,,,,,8,6,img/B06_08.jpg,MF,Press J if the face is MALE and K if the face is FEMALE, ,JK,,,,,,,,,,,,,,,,,,,,,,,,,,,,,,,,,,,,,,,,,,,,,,452.746,0,54,54,63,1,109,0,0,0,0,1,98,,,,,,,,,,,,,,,,,,,,,,,,,,,,,,,,,,,,,,,,,,,,,,,,,,,,,,,,,,,,,,,,,,,
,,,,602970,001,2024-02-07_21h02.24.123,fluency,2022.2.4,Win32,59.95203837,,,,,,,,,,,,,,,,,,,,,,,,,,,,,,,,,,,,,,,,,,,,,,,,,,,,,,,,,,,,,,,,,,,,,,,,,,,,,,,,,,0,0,0,0,1,,"[""k""]",[0.9590000000000032],0,"[""k""]",[0.9590000000000032],,,,,,,,,,,,,,,,,,,,,,,,,,,,,,,,,,,,,,,,,,,,,,,,,,,,,,,,,,,,,,
,,,,602970,001,2024-02-07_21h02.24.123,fluency,2022.2.4,Win32,59.95203837,,,,,,,,,,,,,,,,,,,,,,,8,6,img/B06_08.jpg,MF,Press J if the face is MALE and K if the face is FEMALE, ,JK,,,,,,,,,,,,,,,,,,,,,,,,,,,,,,,,4,0.567,,,,,,,,,,,,,,0,54,54,63,1,,,,,,,,,,,,,space,0.109,,,,,,,,,,,,,,,,,,,,,,,,,,,,,,,,,,,,,,,,,,,,,,,,,,,,,,,,,,,,
,,,,602970,001,2024-02-07_21h02.24.123,fluency,2022.2.4,Win32,59.95203837,,,,,,,,,,,,,,,,,,,,,,,5,1,img/B01_05.jpg,MF,Press J if the face is MALE and K if the face is FEMALE, ,JK,,,,,,,,,,,,,,,,,,,,,,,,,,,,,,,,,,,,,,,,,,,,,,457.484,0,55,55,5,1,109,0,0,0,0,1,98,,,,,,,,,,,,,,,,,,,,,,,,,,,,,,,,,,,,,,,,,,,,,,,,,,,,,,,,,,,,,,,,,,,
,,,,602970,001,2024-02-07_21h02.24.123,fluency,2022.2.4,Win32,59.95203837,,,,,,,,,,,,,,,,,,,,,,,,,,,,,,,,,,,,,,,,,,,,,,,,,,,,,,,,,,,,,,,,,,,,,,,,,,,,,,,,,,0,0,0,0,1,,"[""k""]",[1.2029999999999745],0,"[""k""]",[1.2029999999999745],,,,,,,,,,,,,,,,,,,,,,,,,,,,,,,,,,,,,,,,,,,,,,,,,,,,,,,,,,,,,,
,,,,602970,001,2024-02-07_21h02.24.123,fluency,2022.2.4,Win32,59.95203837,,,,,,,,,,,,,,,,,,,,,,,5,1,img/B01_05.jpg,MF,Press J if the face is MALE and K if the face is FEMALE, ,JK,,,,,,,,,,,,,,,,,,,,,,,,,,,,,,,,3,0.308,,,,,,,,,,,,,,0,55,55,5,1,,,,,,,,,,,,,space,0.117,,,,,,,,,,,,,,,,,,,,,,,,,,,,,,,,,,,,,,,,,,,,,,,,,,,,,,,,,,,,
,,,,602970,001,2024-02-07_21h02.24.123,fluency,2022.2.4,Win32,59.95203837,,,,,,,,,,,,,,,,,,,,,,,7,10,img/B10_07.jpg,MF,Press J if the face is MALE and K if the face is FEMALE, ,JK,,,,,,,,,,,,,,,,,,,,,,,,,,,,,,,,,,,,,,,,,,,,,,462.973,0,56,56,106,1,109,0,0,0,0,1,98,,,,,,,,,,,,,,,,,,,,,,,,,,,,,,,,,,,,,,,,,,,,,,,,,,,,,,,,,,,,,,,,,,,
,,,,602970,001,2024-02-07_21h02.24.123,fluency,2022.2.4,Win32,59.95203837,,,,,,,,,,,,,,,,,,,,,,,,,,,,,,,,,,,,,,,,,,,,,,,,,,,,,,,,,,,,,,,,,,,,,,,,,,,,,,,,,,0,0,0,0,1,,"[""k""]",[1.0120000000000005],0,"[""k""]",[1.0120000000000005],,,,,,,,,,,,,,,,,,,,,,,,,,,,,,,,,,,,,,,,,,,,,,,,,,,,,,,,,,,,,,
,,,,602970,001,2024-02-07_21h02.24.123,fluency,2022.2.4,Win32,59.95203837,,,,,,,,,,,,,,,,,,,,,,,7,10,img/B10_07.jpg,MF,Press J if the face is MALE and K if the face is FEMALE, ,JK,,,,,,,,,,,,,,,,,,,,,,,,,,,,,,,,3,0.887,,,,,,,,,,,,,,0,56,56,106,1,,,,,,,,,,,,,space,0.118,,,,,,,,,,,,,,,,,,,,,,,,,,,,,,,,,,,,,,,,,,,,,,,,,,,,,,,,,,,,
,,,,602970,001,2024-02-07_21h02.24.123,fluency,2022.2.4,Win32,59.95203837,,,,,,,,,,,,,,,,,,,,,,,5,6,img/B06_05.jpg,MF,Press J if the face is MALE and K if the face is FEMALE, ,JK,,,,,,,,,,,,,,,,,,,,,,,,,,,,,,,,,,,,,,,,,,,,,,468.046,0,57,57,60,1,109,0,0,0,0,1,98,,,,,,,,,,,,,,,,,,,,,,,,,,,,,,,,,,,,,,,,,,,,,,,,,,,,,,,,,,,,,,,,,,,
,,,,602970,001,2024-02-07_21h02.24.123,fluency,2022.2.4,Win32,59.95203837,,,,,,,,,,,,,,,,,,,,,,,,,,,,,,,,,,,,,,,,,,,,,,,,,,,,,,,,,,,,,,,,,,,,,,,,,,,,,,,,,,0,0,0,0,1,,"[""j""]",[0.8340000000000032],0,"[""j""]",[0.8340000000000032],,,,,,,,,,,,,,,,,,,,,,,,,,,,,,,,,,,,,,,,,,,,,,,,,,,,,,,,,,,,,,
,,,,602970,001,2024-02-07_21h02.24.123,fluency,2022.2.4,Win32,59.95203837,,,,,,,,,,,,,,,,,,,,,,,5,6,img/B06_05.jpg,MF,Press J if the face is MALE and K if the face is FEMALE, ,JK,,,,,,,,,,,,,,,,,,,,,,,,,,,,,,,,2,0.545,,,,,,,,,,,,,,0,57,57,60,1,,,,,,,,,,,,,space,0.1,,,,,,,,,,,,,,,,,,,,,,,,,,,,,,,,,,,,,,,,,,,,,,,,,,,,,,,,,,,,
,,,,602970,001,2024-02-07_21h02.24.123,fluency,2022.2.4,Win32,59.95203837,,,,,,,,,,,,,,,,,,,,,,,4,4,img/B04_04.jpg,MF,Press J if the face is MALE and K if the face is FEMALE, ,JK,,,,,,,,,,,,,,,,,,,,,,,,,,,,,,,,,,,,,,,,,,,,,,473.753,0,58,58,37,1,109,0,0,0,0,1,98,,,,,,,,,,,,,,,,,,,,,,,,,,,,,,,,,,,,,,,,,,,,,,,,,,,,,,,,,,,,,,,,,,,
,,,,602970,001,2024-02-07_21h02.24.123,fluency,2022.2.4,Win32,59.95203837,,,,,,,,,,,,,,,,,,,,,,,,,,,,,,,,,,,,,,,,,,,,,,,,,,,,,,,,,,,,,,,,,,,,,,,,,,,,,,,,,,0,0,0,0,1,,"[""j""]",[0.7400000000000091],0,"[""j""]",[0.7400000000000091],,,,,,,,,,,,,,,,,,,,,,,,,,,,,,,,,,,,,,,,,,,,,,,,,,,,,,,,,,,,,,
,,,,602970,001,2024-02-07_21h02.24.123,fluency,2022.2.4,Win32,59.95203837,,,,,,,,,,,,,,,,,,,,,,,4,4,img/B04_04.jpg,MF,Press J if the face is MALE and K if the face is FEMALE, ,JK,,,,,,,,,,,,,,,,,,,,,,,,,,,,,,,,2,0.246,,,,,,,,,,,,,,0,58,58,37,1,,,,,,,,,,,,,space,0.086,,,,,,,,,,,,,,,,,,,,,,,,,,,,,,,,,,,,,,,,,,,,,,,,,,,,,,,,,,,,
,,,,602970,001,2024-02-07_21h02.24.123,fluency,2022.2.4,Win32,59.95203837,,,,,,,,,,,,,,,,,,,,,,,3,6,img/B06_03.jpg,MF,Press J if the face is MALE and K if the face is FEMALE, ,JK,,,,,,,,,,,,,,,,,,,,,,,,,,,,,,,,,,,,,,,,,,,,,,478.14,0,59,59,58,1,109,0,0,0,0,1,98,,,,,,,,,,,,,,,,,,,,,,,,,,,,,,,,,,,,,,,,,,,,,,,,,,,,,,,,,,,,,,,,,,,
,,,,602970,001,2024-02-07_21h02.24.123,fluency,2022.2.4,Win32,59.95203837,,,,,,,,,,,,,,,,,,,,,,,,,,,,,,,,,,,,,,,,,,,,,,,,,,,,,,,,,,,,,,,,,,,,,,,,,,,,,,,,,,0,0,0,0,1,,"[""j""]",[0.7250000000000227],0,"[""j""]",[0.7250000000000227],,,,,,,,,,,,,,,,,,,,,,,,,,,,,,,,,,,,,,,,,,,,,,,,,,,,,,,,,,,,,,
,,,,602970,001,2024-02-07_21h02.24.123,fluency,2022.2.4,Win32,59.95203837,,,,,,,,,,,,,,,,,,,,,,,3,6,img/B06_03.jpg,MF,Press J if the face is MALE and K if the face is FEMALE, ,JK,,,,,,,,,,,,,,,,,,,,,,,,,,,,,,,,1,0.339,,,,,,,,,,,,,,0,59,59,58,1,,,,,,,,,,,,,space,0.1,,,,,,,,,,,,,,,,,,,,,,,,,,,,,,,,,,,,,,,,,,,,,,,,,,,,,,,,,,,,
,,,,602970,001,2024-02-07_21h02.24.123,fluency,2022.2.4,Win32,59.95203837,,,,,,,,,,,,,,,,,,,,,,,4,7,img/B07_04.jpg,MF,Press J if the face is MALE and K if the face is FEMALE, ,JK,,,,,,,,,,,,,,,,,,,,,,,,,,,,,,,,,,,,,,,,,,,,,,483.645,0,60,60,70,1,109,0,0,0,0,1,98,,,,,,,,,,,,,,,,,,,,,,,,,,,,,,,,,,,,,,,,,,,,,,,,,,,,,,,,,,,,,,,,,,,
,,,,602970,001,2024-02-07_21h02.24.123,fluency,2022.2.4,Win32,59.95203837,,,,,,,,,,,,,,,,,,,,,,,,,,,,,,,,,,,,,,,,,,,,,,,,,,,,,,,,,,,,,,,,,,,,,,,,,,,,,,,,,,0,0,0,0,1,,"[""j""]",[0.9560000000000173],0,"[""j""]",[0.9560000000000173],,,,,,,,,,,,,,,,,,,,,,,,,,,,,,,,,,,,,,,,,,,,,,,,,,,,,,,,,,,,,,
,,,,602970,001,2024-02-07_21h02.24.123,fluency,2022.2.4,Win32,59.95203837,,,,,,,,,,,,,,,,,,,,,,,4,7,img/B07_04.jpg,MF,Press J if the face is MALE and K if the face is FEMALE, ,JK,,,,,,,,,,,,,,,,,,,,,,,,,,,,,,,,3,0.342,,,,,,,,,,,,,,0,60,60,70,1,,,,,,,,,,,,,space,0.034,,,,,,,,,,,,,,,,,,,,,,,,,,,,,,,,,,,,,,,,,,,,,,,,,,,,,,,,,,,,
,,,,602970,001,2024-02-07_21h02.24.123,fluency,2022.2.4,Win32,59.95203837,,,,,,,,,,,,,,,,,,,,,,,6,4,img/B04_06.jpg,MF,Press J if the face is MALE and K if the face is FEMALE, ,JK,,,,,,,,,,,,,,,,,,,,,,,,,,,,,,,,,,,,,,,,,,,,,,488.101,0,61,61,39,1,109,0,0,0,0,1,98,,,,,,,,,,,,,,,,,,,,,,,,,,,,,,,,,,,,,,,,,,,,,,,,,,,,,,,,,,,,,,,,,,,
,,,,602970,001,2024-02-07_21h02.24.123,fluency,2022.2.4,Win32,59.95203837,,,,,,,,,,,,,,,,,,,,,,,,,,,,,,,,,,,,,,,,,,,,,,,,,,,,,,,,,,,,,,,,,,,,,,,,,,,,,,,,,,0,0,0,0,1,,"[""k""]",[1.1040000000000418],0,"[""k""]",[1.1040000000000418],,,,,,,,,,,,,,,,,,,,,,,,,,,,,,,,,,,,,,,,,,,,,,,,,,,,,,,,,,,,,,
,,,,602970,001,2024-02-07_21h02.24.123,fluency,2022.2.4,Win32,59.95203837,,,,,,,,,,,,,,,,,,,,,,,6,4,img/B04_06.jpg,MF,Press J if the face is MALE and K if the face is FEMALE, ,JK,,,,,,,,,,,,,,,,,,,,,,,,,,,,,,,,1,0.121,,,,,,,,,,,,,,0,61,61,39,1,,,,,,,,,,,,,space,0.308,,,,,,,,,,,,,,,,,,,,,,,,,,,,,,,,,,,,,,,,,,,,,,,,,,,,,,,,,,,,
,,,,602970,001,2024-02-07_21h02.24.123,fluency,2022.2.4,Win32,59.95203837,,,,,,,,,,,,,,,,,,,,,,,2,3,img/B03_02.jpg,MF,Press J if the face is MALE and K if the face is FEMALE, ,JK,,,,,,,,,,,,,,,,,,,,,,,,,,,,,,,,,,,,,,,,,,,,,,493.59,0,62,62,24,1,109,0,0,0,0,1,98,,,,,,,,,,,,,,,,,,,,,,,,,,,,,,,,,,,,,,,,,,,,,,,,,,,,,,,,,,,,,,,,,,,
,,,,602970,001,2024-02-07_21h02.24.123,fluency,2022.2.4,Win32,59.95203837,,,,,,,,,,,,,,,,,,,,,,,,,,,,,,,,,,,,,,,,,,,,,,,,,,,,,,,,,,,,,,,,,,,,,,,,,,,,,,,,,,0,0,0,0,1,,"[""j""]",[1.0220000000000482],0,"[""j""]",[1.0220000000000482],,,,,,,,,,,,,,,,,,,,,,,,,,,,,,,,,,,,,,,,,,,,,,,,,,,,,,,,,,,,,,
,,,,602970,001,2024-02-07_21h02.24.123,fluency,2022.2.4,Win32,59.95203837,,,,,,,,,,,,,,,,,,,,,,,2,3,img/B03_02.jpg,MF,Press J if the face is MALE and K if the face is FEMALE, ,JK,,,,,,,,,,,,,,,,,,,,,,,,,,,,,,,,4,0.338,,,,,,,,,,,,,,0,62,62,24,1,,,,,,,,,,,,,space,0.113,,,,,,,,,,,,,,,,,,,,,,,,,,,,,,,,,,,,,,,,,,,,,,,,,,,,,,,,,,,,
,,,,602970,001,2024-02-07_21h02.24.123,fluency,2022.2.4,Win32,59.95203837,,,,,,,,,,,,,,,,,,,,,,,5,5,img/B05_05.jpg,MF,Press J if the face is MALE and K if the face is FEMALE, ,JK,,,,,,,,,,,,,,,,,,,,,,,,,,,,,,,,,,,,,,,,,,,,,,499.096,0,63,63,49,1,109,0,0,0,0,1,98,,,,,,,,,,,,,,,,,,,,,,,,,,,,,,,,,,,,,,,,,,,,,,,,,,,,,,,,,,,,,,,,,,,
,,,,602970,001,2024-02-07_21h02.24.123,fluency,2022.2.4,Win32,59.95203837,,,,,,,,,,,,,,,,,,,,,,,,,,,,,,,,,,,,,,,,,,,,,,,,,,,,,,,,,,,,,,,,,,,,,,,,,,,,,,,,,,0,0,0,0,1,,"[""k""]",[0.9060000000000628],0,"[""k""]",[0.9060000000000628],,,,,,,,,,,,,,,,,,,,,,,,,,,,,,,,,,,,,,,,,,,,,,,,,,,,,,,,,,,,,,
,,,,602970,001,2024-02-07_21h02.24.123,fluency,2022.2.4,Win32,59.95203837,,,,,,,,,,,,,,,,,,,,,,,5,5,img/B05_05.jpg,MF,Press J if the face is MALE and K if the face is FEMALE, ,JK,,,,,,,,,,,,,,,,,,,,,,,,,,,,,,,,4,0.688,,,,,,,,,,,,,,0,63,63,49,1,,,,,,,,,,,,,space,0.085,,,,,,,,,,,,,,,,,,,,,,,,,,,,,,,,,,,,,,,,,,,,,,,,,,,,,,,,,,,,
,,,,602970,001,2024-02-07_21h02.24.123,fluency,2022.2.4,Win32,59.95203837,,,,,,,,,,,,,,,,,,,,,,,10,6,img/B06_10.jpg,MF,Press J if the face is MALE and K if the face is FEMALE, ,JK,,,,,,,,,,,,,,,,,,,,,,,,,,,,,,,,,,,,,,,,,,,,,,503.935,0,64,64,65,1,109,0,0,0,0,1,98,,,,,,,,,,,,,,,,,,,,,,,,,,,,,,,,,,,,,,,,,,,,,,,,,,,,,,,,,,,,,,,,,,,
,,,,602970,001,2024-02-07_21h02.24.123,fluency,2022.2.4,Win32,59.95203837,,,,,,,,,,,,,,,,,,,,,,,,,,,,,,,,,,,,,,,,,,,,,,,,,,,,,,,,,,,,,,,,,,,,,,,,,,,,,,,,,,0,0,0,0,1,,"[""k""]",[0.8640000000000327],0,"[""k""]",[0.8640000000000327],,,,,,,,,,,,,,,,,,,,,,,,,,,,,,,,,,,,,,,,,,,,,,,,,,,,,,,,,,,,,,
,,,,602970,001,2024-02-07_21h02.24.123,fluency,2022.2.4,Win32,59.95203837,,,,,,,,,,,,,,,,,,,,,,,10,6,img/B06_10.jpg,MF,Press J if the face is MALE and K if the face is FEMALE, ,JK,,,,,,,,,,,,,,,,,,,,,,,,,,,,,,,,4,0.472,,,,,,,,,,,,,,0,64,64,65,1,,,,,,,,,,,,,space,0.143,,,,,,,,,,,,,,,,,,,,,,,,,,,,,,,,,,,,,,,,,,,,,,,,,,,,,,,,,,,,
,,,,602970,001,2024-02-07_21h02.24.123,fluency,2022.2.4,Win32,59.95203837,,,,,,,,,,,,,,,,,,,,,,,3,7,img/B07_03.jpg,MF,Press J if the face is MALE and K if the face is FEMALE, ,JK,,,,,,,,,,,,,,,,,,,,,,,,,,,,,,,,,,,,,,,,,,,,,,509.608,0,65,65,69,1,109,0,0,0,0,1,98,,,,,,,,,,,,,,,,,,,,,,,,,,,,,,,,,,,,,,,,,,,,,,,,,,,,,,,,,,,,,,,,,,,
,,,,602970,001,2024-02-07_21h02.24.123,fluency,2022.2.4,Win32,59.95203837,,,,,,,,,,,,,,,,,,,,,,,,,,,,,,,,,,,,,,,,,,,,,,,,,,,,,,,,,,,,,,,,,,,,,,,,,,,,,,,,,,0,0,0,0,1,,"[""j""]",[0.7089999999999463],0,"[""j""]",[0.7089999999999463],,,,,,,,,,,,,,,,,,,,,,,,,,,,,,,,,,,,,,,,,,,,,,,,,,,,,,,,,,,,,,
,,,,602970,001,2024-02-07_21h02.24.123,fluency,2022.2.4,Win32,59.95203837,,,,,,,,,,,,,,,,,,,,,,,3,7,img/B07_03.jpg,MF,Press J if the face is MALE and K if the face is FEMALE, ,JK,,,,,,,,,,,,,,,,,,,,,,,,,,,,,,,,3,0.305,,,,,,,,,,,,,,0,65,65,69,1,,,,,,,,,,,,,space,0.141,,,,,,,,,,,,,,,,,,,,,,,,,,,,,,,,,,,,,,,,,,,,,,,,,,,,,,,,,,,,
,,,,602970,001,2024-02-07_21h02.24.123,fluency,2022.2.4,Win32,59.95203837,,,,,,,,,,,,,,,,,,,,,,,8,7,img/B07_08.jpg,MF,Press J if the face is MALE and K if the face is FEMALE, ,JK,,,,,,,,,,,,,,,,,,,,,,,,,,,,,,,,,,,,,,,,,,,,,,515.113,0,66,66,74,1,109,0,0,0,0,1,98,,,,,,,,,,,,,,,,,,,,,,,,,,,,,,,,,,,,,,,,,,,,,,,,,,,,,,,,,,,,,,,,,,,
,,,,602970,001,2024-02-07_21h02.24.123,fluency,2022.2.4,Win32,59.95203837,,,,,,,,,,,,,,,,,,,,,,,,,,,,,,,,,,,,,,,,,,,,,,,,,,,,,,,,,,,,,,,,,,,,,,,,,,,,,,,,,,0,0,0,0,1,,"[""k""]",[0.8319999999999936],0,"[""k""]",[0.8319999999999936],,,,,,,,,,,,,,,,,,,,,,,,,,,,,,,,,,,,,,,,,,,,,,,,,,,,,,,,,,,,,,
,,,,602970,001,2024-02-07_21h02.24.123,fluency,2022.2.4,Win32,59.95203837,,,,,,,,,,,,,,,,,,,,,,,8,7,img/B07_08.jpg,MF,Press J if the face is MALE and K if the face is FEMALE, ,JK,,,,,,,,,,,,,,,,,,,,,,,,,,,,,,,,5,1.026,,,,,,,,,,,,,,0,66,66,74,1,,,,,,,,,,,,,space,0.09,,,,,,,,,,,,,,,,,,,,,,,,,,,,,,,,,,,,,,,,,,,,,,,,,,,,,,,,,,,,
,,,,602970,001,2024-02-07_21h02.24.123,fluency,2022.2.4,Win32,59.95203837,,,,,,,,,,,,,,,,,,,,,,,6,8,img/B08_06.jpg,MF,Press J if the face is MALE and K if the face is FEMALE, ,JK,,,,,,,,,,,,,,,,,,,,,,,,,,,,,,,,,,,,,,,,,,,,,,521.291,0,67,67,83,1,109,0,0,0,0,1,98,,,,,,,,,,,,,,,,,,,,,,,,,,,,,,,,,,,,,,,,,,,,,,,,,,,,,,,,,,,,,,,,,,,
,,,,602970,001,2024-02-07_21h02.24.123,fluency,2022.2.4,Win32,59.95203837,,,,,,,,,,,,,,,,,,,,,,,,,,,,,,,,,,,,,,,,,,,,,,,,,,,,,,,,,,,,,,,,,,,,,,,,,,,,,,,,,,0,0,0,0,1,,"[""j""]",[1.0030000000000427],0,"[""j""]",[1.0030000000000427],,,,,,,,,,,,,,,,,,,,,,,,,,,,,,,,,,,,,,,,,,,,,,,,,,,,,,,,,,,,,,
,,,,602970,001,2024-02-07_21h02.24.123,fluency,2022.2.4,Win32,59.95203837,,,,,,,,,,,,,,,,,,,,,,,6,8,img/B08_06.jpg,MF,Press J if the face is MALE and K if the face is FEMALE, ,JK,,,,,,,,,,,,,,,,,,,,,,,,,,,,,,,,2,0.555,,,,,,,,,,,,,,0,67,67,83,1,,,,,,,,,,,,,space,0.218,,,,,,,,,,,,,,,,,,,,,,,,,,,,,,,,,,,,,,,,,,,,,,,,,,,,,,,,,,,,
,,,,602970,001,2024-02-07_21h02.24.123,fluency,2022.2.4,Win32,59.95203837,,,,,,,,,,,,,,,,,,,,,,,6,2,img/B02_06.jpg,MF,Press J if the face is MALE and K if the face is FEMALE, ,JK,,,,,,,,,,,,,,,,,,,,,,,,,,,,,,,,,,,,,,,,,,,,,,526.126,0,68,68,17,1,109,0,0,0,0,1,98,,,,,,,,,,,,,,,,,,,,,,,,,,,,,,,,,,,,,,,,,,,,,,,,,,,,,,,,,,,,,,,,,,,
,,,,602970,001,2024-02-07_21h02.24.123,fluency,2022.2.4,Win32,59.95203837,,,,,,,,,,,,,,,,,,,,,,,,,,,,,,,,,,,,,,,,,,,,,,,,,,,,,,,,,,,,,,,,,,,,,,,,,,,,,,,,,,0,0,0,0,1,,"[""k""]",[1.4449999999999363],0,"[""k""]",[1.4449999999999363],,,,,,,,,,,,,,,,,,,,,,,,,,,,,,,,,,,,,,,,,,,,,,,,,,,,,,,,,,,,,,
,,,,602970,001,2024-02-07_21h02.24.123,fluency,2022.2.4,Win32,59.95203837,,,,,,,,,,,,,,,,,,,,,,,6,2,img/B02_06.jpg,MF,Press J if the face is MALE and K if the face is FEMALE, ,JK,,,,,,,,,,,,,,,,,,,,,,,,,,,,,,,,3,0.373,,,,,,,,,,,,,,0,68,68,17,1,,,,,,,,,,,,,space,0.035,,,,,,,,,,,,,,,,,,,,,,,,,,,,,,,,,,,,,,,,,,,,,,,,,,,,,,,,,,,,
,,,,602970,001,2024-02-07_21h02.24.123,fluency,2022.2.4,Win32,59.95203837,,,,,,,,,,,,,,,,,,,,,,,5,4,img/B04_05.jpg,MF,Press J if the face is MALE and K if the face is FEMALE, ,JK,,,,,,,,,,,,,,,,,,,,,,,,,,,,,,,,,,,,,,,,,,,,,,530.597,0,69,69,38,1,109,0,0,0,0,1,98,,,,,,,,,,,,,,,,,,,,,,,,,,,,,,,,,,,,,,,,,,,,,,,,,,,,,,,,,,,,,,,,,,,
,,,,602970,001,2024-02-07_21h02.24.123,fluency,2022.2.4,Win32,59.95203837,,,,,,,,,,,,,,,,,,,,,,,,,,,,,,,,,,,,,,,,,,,,,,,,,,,,,,,,,,,,,,,,,,,,,,,,,,,,,,,,,,0,0,0,0,1,,"[""k""]",[1.5160000000000764],0,"[""space"",""k""]","[0.6890000000000782,1.5160000000000764]",,,,,,,,,,,,,,,,,,,,,,,,,,,,,,,,,,,,,,,,,,,,,,,,,,,,,,,,,,,,,,
,,,,602970,001,2024-02-07_21h02.24.123,fluency,2022.2.4,Win32,59.95203837,,,,,,,,,,,,,,,,,,,,,,,5,4,img/B04_05.jpg,MF,Press J if the face is MALE and K if the face is FEMALE, ,JK,,,,,,,,,,,,,,,,,,,,,,,,,,,,,,,,1,0.43,,,,,,,,,,,,,,0,69,69,38,1,,,,,,,,,,,,,space,0.094,,,,,,,,,,,,,,,,,,,,,,,,,,,,,,,,,,,,,,,,,,,,,,,,,,,,,,,,,,,,
,,,,602970,001,2024-02-07_21h02.24.123,fluency,2022.2.4,Win32,59.95203837,,,,,,,,,,,,,,,,,,,,,,,1,8,img/B08_01.jpg,MF,Press J if the face is MALE and K if the face is FEMALE, ,JK,,,,,,,,,,,,,,,,,,,,,,,,,,,,,,,,,,,,,,,,,,,,,,535.169,0,70,70,78,1,109,0,0,0,0,1,98,,,,,,,,,,,,,,,,,,,,,,,,,,,,,,,,,,,,,,,,,,,,,,,,,,,,,,,,,,,,,,,,,,,
,,,,602970,001,2024-02-07_21h02.24.123,fluency,2022.2.4,Win32,59.95203837,,,,,,,,,,,,,,,,,,,,,,,,,,,,,,,,,,,,,,,,,,,,,,,,,,,,,,,,,,,,,,,,,,,,,,,,,,,,,,,,,,0,0,0,0,1,,"[""k""]",[0.6639999999999873],0,"[""k""]",[0.6639999999999873],,,,,,,,,,,,,,,,,,,,,,,,,,,,,,,,,,,,,,,,,,,,,,,,,,,,,,,,,,,,,,
,,,,602970,001,2024-02-07_21h02.24.123,fluency,2022.2.4,Win32,59.95203837,,,,,,,,,,,,,,,,,,,,,,,1,8,img/B08_01.jpg,MF,Press J if the face is MALE and K if the face is FEMALE, ,JK,,,,,,,,,,,,,,,,,,,,,,,,,,,,,,,,4,0.322,,,,,,,,,,,,,,0,70,70,78,1,,,,,,,,,,,,,space,0.072,,,,,,,,,,,,,,,,,,,,,,,,,,,,,,,,,,,,,,,,,,,,,,,,,,,,,,,,,,,,
,,,,602970,001,2024-02-07_21h02.24.123,fluency,2022.2.4,Win32,59.95203837,,,,,,,,,,,,,,,,,,,,,,,1,2,img/B02_01.jpg,MF,Press J if the face is MALE and K if the face is FEMALE, ,JK,,,,,,,,,,,,,,,,,,,,,,,,,,,,,,,,,,,,,,,,,,,,,,539.624,0,71,71,12,1,109,0,0,0,0,1,98,,,,,,,,,,,,,,,,,,,,,,,,,,,,,,,,,,,,,,,,,,,,,,,,,,,,,,,,,,,,,,,,,,,
,,,,602970,001,2024-02-07_21h02.24.123,fluency,2022.2.4,Win32,59.95203837,,,,,,,,,,,,,,,,,,,,,,,,,,,,,,,,,,,,,,,,,,,,,,,,,,,,,,,,,,,,,,,,,,,,,,,,,,,,,,,,,,0,0,0,0,1,,"[""j""]",[0.9710000000000036],0,"[""j""]",[0.9710000000000036],,,,,,,,,,,,,,,,,,,,,,,,,,,,,,,,,,,,,,,,,,,,,,,,,,,,,,,,,,,,,,
,,,,602970,001,2024-02-07_21h02.24.123,fluency,2022.2.4,Win32,59.95203837,,,,,,,,,,,,,,,,,,,,,,,1,2,img/B02_01.jpg,MF,Press J if the face is MALE and K if the face is FEMALE, ,JK,,,,,,,,,,,,,,,,,,,,,,,,,,,,,,,,3,0.294,,,,,,,,,,,,,,0,71,71,12,1,,,,,,,,,,,,,space,0.118,,,,,,,,,,,,,,,,,,,,,,,,,,,,,,,,,,,,,,,,,,,,,,,,,,,,,,,,,,,,
,,,,602970,001,2024-02-07_21h02.24.123,fluency,2022.2.4,Win32,59.95203837,,,,,,,,,,,,,,,,,,,,,,,8,3,img/B03_08.jpg,MF,Press J if the face is MALE and K if the face is FEMALE, ,JK,,,,,,,,,,,,,,,,,,,,,,,,,,,,,,,,,,,,,,,,,,,,,,544.095,0,72,72,30,1,109,0,0,0,0,1,98,,,,,,,,,,,,,,,,,,,,,,,,,,,,,,,,,,,,,,,,,,,,,,,,,,,,,,,,,,,,,,,,,,,
,,,,602970,001,2024-02-07_21h02.24.123,fluency,2022.2.4,Win32,59.95203837,,,,,,,,,,,,,,,,,,,,,,,,,,,,,,,,,,,,,,,,,,,,,,,,,,,,,,,,,,,,,,,,,,,,,,,,,,,,,,,,,,0,0,0,0,1,,"[""k""]",[0.7740000000000009],0,"[""k""]",[0.7740000000000009],,,,,,,,,,,,,,,,,,,,,,,,,,,,,,,,,,,,,,,,,,,,,,,,,,,,,,,,,,,,,,
,,,,602970,001,2024-02-07_21h02.24.123,fluency,2022.2.4,Win32,59.95203837,,,,,,,,,,,,,,,,,,,,,,,8,3,img/B03_08.jpg,MF,Press J if the face is MALE and K if the face is FEMALE, ,JK,,,,,,,,,,,,,,,,,,,,,,,,,,,,,,,,4,0.289,,,,,,,,,,,,,,0,72,72,30,1,,,,,,,,,,,,,space,0.119,,,,,,,,,,,,,,,,,,,,,,,,,,,,,,,,,,,,,,,,,,,,,,,,,,,,,,,,,,,,
,,,,602970,001,2024-02-07_21h02.24.123,fluency,2022.2.4,Win32,59.95203837,,,,,,,,,,,,,,,,,,,,,,,5,7,img/B07_05.jpg,MF,Press J if the face is MALE and K if the face is FEMALE, ,JK,,,,,,,,,,,,,,,,,,,,,,,,,,,,,,,,,,,,,,,,,,,,,,548.567,0,73,73,71,1,109,0,0,0,0,1,98,,,,,,,,,,,,,,,,,,,,,,,,,,,,,,,,,,,,,,,,,,,,,,,,,,,,,,,,,,,,,,,,,,,
,,,,602970,001,2024-02-07_21h02.24.123,fluency,2022.2.4,Win32,59.95203837,,,,,,,,,,,,,,,,,,,,,,,,,,,,,,,,,,,,,,,,,,,,,,,,,,,,,,,,,,,,,,,,,,,,,,,,,,,,,,,,,,0,0,0,0,1,,"[""j""]",[0.6730000000000018],0,"[""j""]",[0.6730000000000018],,,,,,,,,,,,,,,,,,,,,,,,,,,,,,,,,,,,,,,,,,,,,,,,,,,,,,,,,,,,,,
,,,,602970,001,2024-02-07_21h02.24.123,fluency,2022.2.4,Win32,59.95203837,,,,,,,,,,,,,,,,,,,,,,,5,7,img/B07_05.jpg,MF,Press J if the face is MALE and K if the face is FEMALE, ,JK,,,,,,,,,,,,,,,,,,,,,,,,,,,,,,,,3,0.294,,,,,,,,,,,,,,0,73,73,71,1,,,,,,,,,,,,,space,0.221,,,,,,,,,,,,,,,,,,,,,,,,,,,,,,,,,,,,,,,,,,,,,,,,,,,,,,,,,,,,
,,,,602970,001,2024-02-07_21h02.24.123,fluency,2022.2.4,Win32,59.95203837,,,,,,,,,,,,,,,,,,,,,,,10,4,img/B04_10.jpg,MF,Press J if the face is MALE and K if the face is FEMALE, ,JK,,,,,,,,,,,,,,,,,,,,,,,,,,,,,,,,,,,,,,,,,,,,,,554.159,0,74,74,43,1,109,0,0,0,0,1,98,,,,,,,,,,,,,,,,,,,,,,,,,,,,,,,,,,,,,,,,,,,,,,,,,,,,,,,,,,,,,,,,,,,
,,,,602970,001,2024-02-07_21h02.24.123,fluency,2022.2.4,Win32,59.95203837,,,,,,,,,,,,,,,,,,,,,,,,,,,,,,,,,,,,,,,,,,,,,,,,,,,,,,,,,,,,,,,,,,,,,,,,,,,,,,,,,,0,0,0,0,1,,"[""k""]",[0.8250000000000455],0,"[""k""]",[0.8250000000000455],,,,,,,,,,,,,,,,,,,,,,,,,,,,,,,,,,,,,,,,,,,,,,,,,,,,,,,,,,,,,,
,,,,602970,001,2024-02-07_21h02.24.123,fluency,2022.2.4,Win32,59.95203837,,,,,,,,,,,,,,,,,,,,,,,10,4,img/B04_10.jpg,MF,Press J if the face is MALE and K if the face is FEMALE, ,JK,,,,,,,,,,,,,,,,,,,,,,,,,,,,,,,,1,0.323,,,,,,,,,,,,,,0,74,74,43,1,,,,,,,,,,,,,space,0.074,,,,,,,,,,,,,,,,,,,,,,,,,,,,,,,,,,,,,,,,,,,,,,,,,,,,,,,,,,,,
,,,,602970,001,2024-02-07_21h02.24.123,fluency,2022.2.4,Win32,59.95203837,,,,,,,,,,,,,,,,,,,,,,,7,5,img/B05_07.jpg,MF,Press J if the face is MALE and K if the face is FEMALE, ,JK,,,,,,,,,,,,,,,,,,,,,,,,,,,,,,,,,,,,,,,,,,,,,,559.613,0,75,75,51,1,109,0,0,0,0,1,98,,,,,,,,,,,,,,,,,,,,,,,,,,,,,,,,,,,,,,,,,,,,,,,,,,,,,,,,,,,,,,,,,,,
,,,,602970,001,2024-02-07_21h02.24.123,fluency,2022.2.4,Win32,59.95203837,,,,,,,,,,,,,,,,,,,,,,,,,,,,,,,,,,,,,,,,,,,,,,,,,,,,,,,,,,,,,,,,,,,,,,,,,,,,,,,,,,0,0,0,0,1,,"[""k""]",[2.04099999999994],0,"[""k""]",[2.04099999999994],,,,,,,,,,,,,,,,,,,,,,,,,,,,,,,,,,,,,,,,,,,,,,,,,,,,,,,,,,,,,,
,,,,602970,001,2024-02-07_21h02.24.123,fluency,2022.2.4,Win32,59.95203837,,,,,,,,,,,,,,,,,,,,,,,7,5,img/B05_07.jpg,MF,Press J if the face is MALE and K if the face is FEMALE, ,JK,,,,,,,,,,,,,,,,,,,,,,,,,,,,,,,,5,0.44,,,,,,,,,,,,,,0,75,75,51,1,,,,,,,,,,,,,space,0.224,,,,,,,,,,,,,,,,,,,,,,,,,,,,,,,,,,,,,,,,,,,,,,,,,,,,,,,,,,,,
,,,,602970,001,2024-02-07_21h02.24.123,fluency,2022.2.4,Win32,59.95203837,,,,,,,,,,,,,,,,,,,,,,,0,9,img/B09_00.jpg,MF,Press J if the face is MALE and K if the face is FEMALE, ,JK,,,,,,,,,,,,,,,,,,,,,,,,,,,,,,,,,,,,,,,,,,,,,,564.334,0,76,76,88,1,109,0,0,0,0,1,98,,,,,,,,,,,,,,,,,,,,,,,,,,,,,,,,,,,,,,,,,,,,,,,,,,,,,,,,,,,,,,,,,,,
,,,,602970,001,2024-02-07_21h02.24.123,fluency,2022.2.4,Win32,59.95203837,,,,,,,,,,,,,,,,,,,,,,,,,,,,,,,,,,,,,,,,,,,,,,,,,,,,,,,,,,,,,,,,,,,,,,,,,,,,,,,,,,0,0,0,0,1,,"[""j""]",[0.8630000000000564],0,"[""j""]",[0.8630000000000564],,,,,,,,,,,,,,,,,,,,,,,,,,,,,,,,,,,,,,,,,,,,,,,,,,,,,,,,,,,,,,
,,,,602970,001,2024-02-07_21h02.24.123,fluency,2022.2.4,Win32,59.95203837,,,,,,,,,,,,,,,,,,,,,,,0,9,img/B09_00.jpg,MF,Press J if the face is MALE and K if the face is FEMALE, ,JK,,,,,,,,,,,,,,,,,,,,,,,,,,,,,,,,2,0.31,,,,,,,,,,,,,,0,76,76,88,1,,,,,,,,,,,,,space,0.111,,,,,,,,,,,,,,,,,,,,,,,,,,,,,,,,,,,,,,,,,,,,,,,,,,,,,,,,,,,,
,,,,602970,001,2024-02-07_21h02.24.123,fluency,2022.2.4,Win32,59.95203837,,,,,,,,,,,,,,,,,,,,,,,10,5,img/B05_10.jpg,MF,Press J if the face is MALE and K if the face is FEMALE, ,JK,,,,,,,,,,,,,,,,,,,,,,,,,,,,,,,,,,,,,,,,,,,,,,568.806,0,77,77,54,1,109,0,0,0,0,1,98,,,,,,,,,,,,,,,,,,,,,,,,,,,,,,,,,,,,,,,,,,,,,,,,,,,,,,,,,,,,,,,,,,,
,,,,602970,001,2024-02-07_21h02.24.123,fluency,2022.2.4,Win32,59.95203837,,,,,,,,,,,,,,,,,,,,,,,,,,,,,,,,,,,,,,,,,,,,,,,,,,,,,,,,,,,,,,,,,,,,,,,,,,,,,,,,,,0,0,0,0,1,,"[""k""]",[0.6800000000000637],0,"[""k""]",[0.6800000000000637],,,,,,,,,,,,,,,,,,,,,,,,,,,,,,,,,,,,,,,,,,,,,,,,,,,,,,,,,,,,,,
,,,,602970,001,2024-02-07_21h02.24.123,fluency,2022.2.4,Win32,59.95203837,,,,,,,,,,,,,,,,,,,,,,,10,5,img/B05_10.jpg,MF,Press J if the face is MALE and K if the face is FEMALE, ,JK,,,,,,,,,,,,,,,,,,,,,,,,,,,,,,,,5,0.37,,,,,,,,,,,,,,0,77,77,54,1,,,,,,,,,,,,,space,0.125,,,,,,,,,,,,,,,,,,,,,,,,,,,,,,,,,,,,,,,,,,,,,,,,,,,,,,,,,,,,
,,,,602970,001,2024-02-07_21h02.24.123,fluency,2022.2.4,Win32,59.95203837,,,,,,,,,,,,,,,,,,,,,,,1,5,img/B05_01.jpg,MF,Press J if the face is MALE and K if the face is FEMALE, ,JK,,,,,,,,,,,,,,,,,,,,,,,,,,,,,,,,,,,,,,,,,,,,,,573.361,0,78,78,45,1,109,0,0,0,0,1,98,,,,,,,,,,,,,,,,,,,,,,,,,,,,,,,,,,,,,,,,,,,,,,,,,,,,,,,,,,,,,,,,,,,
,,,,602970,001,2024-02-07_21h02.24.123,fluency,2022.2.4,Win32,59.95203837,,,,,,,,,,,,,,,,,,,,,,,,,,,,,,,,,,,,,,,,,,,,,,,,,,,,,,,,,,,,,,,,,,,,,,,,,,,,,,,,,,0,0,0,0,1,,"[""j""]",[0.7320000000000846],0,"[""j""]",[0.7320000000000846],,,,,,,,,,,,,,,,,,,,,,,,,,,,,,,,,,,,,,,,,,,,,,,,,,,,,,,,,,,,,,
,,,,602970,001,2024-02-07_21h02.24.123,fluency,2022.2.4,Win32,59.95203837,,,,,,,,,,,,,,,,,,,,,,,1,5,img/B05_01.jpg,MF,Press J if the face is MALE and K if the face is FEMALE, ,JK,,,,,,,,,,,,,,,,,,,,,,,,,,,,,,,,3,0.3,,,,,,,,,,,,,,0,78,78,45,1,,,,,,,,,,,,,space,0.167,,,,,,,,,,,,,,,,,,,,,,,,,,,,,,,,,,,,,,,,,,,,,,,,,,,,,,,,,,,,
,,,,602970,001,2024-02-07_21h02.24.123,fluency,2022.2.4,Win32,59.95203837,,,,,,,,,,,,,,,,,,,,,,,5,9,img/B09_05.jpg,MF,Press J if the face is MALE and K if the face is FEMALE, ,JK,,,,,,,,,,,,,,,,,,,,,,,,,,,,,,,,,,,,,,,,,,,,,,577.899,0,79,79,93,1,109,0,0,0,0,1,98,,,,,,,,,,,,,,,,,,,,,,,,,,,,,,,,,,,,,,,,,,,,,,,,,,,,,,,,,,,,,,,,,,,
,,,,602970,001,2024-02-07_21h02.24.123,fluency,2022.2.4,Win32,59.95203837,,,,,,,,,,,,,,,,,,,,,,,,,,,,,,,,,,,,,,,,,,,,,,,,,,,,,,,,,,,,,,,,,,,,,,,,,,,,,,,,,,0,0,0,0,1,,"[""k""]",[0.9940000000000282],0,"[""k""]",[0.9940000000000282],,,,,,,,,,,,,,,,,,,,,,,,,,,,,,,,,,,,,,,,,,,,,,,,,,,,,,,,,,,,,,
,,,,602970,001,2024-02-07_21h02.24.123,fluency,2022.2.4,Win32,59.95203837,,,,,,,,,,,,,,,,,,,,,,,5,9,img/B09_05.jpg,MF,Press J if the face is MALE and K if the face is FEMALE, ,JK,,,,,,,,,,,,,,,,,,,,,,,,,,,,,,,,4,0.331,,,,,,,,,,,,,,0,79,79,93,1,,,,,,,,,,,,,space,0.11,,,,,,,,,,,,,,,,,,,,,,,,,,,,,,,,,,,,,,,,,,,,,,,,,,,,,,,,,,,,
,,,,602970,001,2024-02-07_21h02.24.123,fluency,2022.2.4,Win32,59.95203837,,,,,,,,,,,,,,,,,,,,,,,6,5,img/B05_06.jpg,MF,Press J if the face is MALE and K if the face is FEMALE, ,JK,,,,,,,,,,,,,,,,,,,,,,,,,,,,,,,,,,,,,,,,,,,,,,583.405,0,80,80,50,1,109,0,0,0,0,1,98,,,,,,,,,,,,,,,,,,,,,,,,,,,,,,,,,,,,,,,,,,,,,,,,,,,,,,,,,,,,,,,,,,,
,,,,602970,001,2024-02-07_21h02.24.123,fluency,2022.2.4,Win32,59.95203837,,,,,,,,,,,,,,,,,,,,,,,,,,,,,,,,,,,,,,,,,,,,,,,,,,,,,,,,,,,,,,,,,,,,,,,,,,,,,,,,,,0,0,0,0,1,,"[""k""]",[0.6630000000000109],0,"[""k""]",[0.6630000000000109],,,,,,,,,,,,,,,,,,,,,,,,,,,,,,,,,,,,,,,,,,,,,,,,,,,,,,,,,,,,,,
,,,,602970,001,2024-02-07_21h02.24.123,fluency,2022.2.4,Win32,59.95203837,,,,,,,,,,,,,,,,,,,,,,,6,5,img/B05_06.jpg,MF,Press J if the face is MALE and K if the face is FEMALE, ,JK,,,,,,,,,,,,,,,,,,,,,,,,,,,,,,,,5,0.476,,,,,,,,,,,,,,0,80,80,50,1,,,,,,,,,,,,,space,0.145,,,,,,,,,,,,,,,,,,,,,,,,,,,,,,,,,,,,,,,,,,,,,,,,,,,,,,,,,,,,
,,,,602970,001,2024-02-07_21h02.24.123,fluency,2022.2.4,Win32,59.95203837,,,,,,,,,,,,,,,,,,,,,,,3,9,img/B09_03.jpg,MF,Press J if the face is MALE and K if the face is FEMALE, ,JK,,,,,,,,,,,,,,,,,,,,,,,,,,,,,,,,,,,,,,,,,,,,,,589.079,0,81,81,91,1,109,0,0,0,0,1,98,,,,,,,,,,,,,,,,,,,,,,,,,,,,,,,,,,,,,,,,,,,,,,,,,,,,,,,,,,,,,,,,,,,
,,,,602970,001,2024-02-07_21h02.24.123,fluency,2022.2.4,Win32,59.95203837,,,,,,,,,,,,,,,,,,,,,,,,,,,,,,,,,,,,,,,,,,,,,,,,,,,,,,,,,,,,,,,,,,,,,,,,,,,,,,,,,,0,0,0,0,1,,"[""k""]",[1.0009999999999764],0,"[""k""]",[1.0020000000000664],,,,,,,,,,,,,,,,,,,,,,,,,,,,,,,,,,,,,,,,,,,,,,,,,,,,,,,,,,,,,,
,,,,602970,001,2024-02-07_21h02.24.123,fluency,2022.2.4,Win32,59.95203837,,,,,,,,,,,,,,,,,,,,,,,3,9,img/B09_03.jpg,MF,Press J if the face is MALE and K if the face is FEMALE, ,JK,,,,,,,,,,,,,,,,,,,,,,,,,,,,,,,,3,0.359,,,,,,,,,,,,,,0,81,81,91,1,,,,,,,,,,,,,space,0.14,,,,,,,,,,,,,,,,,,,,,,,,,,,,,,,,,,,,,,,,,,,,,,,,,,,,,,,,,,,,
,,,,602970,001,2024-02-07_21h02.24.123,fluency,2022.2.4,Win32,59.95203837,,,,,,,,,,,,,,,,,,,,,,,6,3,img/B03_06.jpg,MF,Press J if the face is MALE and K if the face is FEMALE, ,JK,,,,,,,,,,,,,,,,,,,,,,,,,,,,,,,,,,,,,,,,,,,,,,594.636,0,82,82,28,1,109,0,0,0,0,1,98,,,,,,,,,,,,,,,,,,,,,,,,,,,,,,,,,,,,,,,,,,,,,,,,,,,,,,,,,,,,,,,,,,,
,,,,602970,001,2024-02-07_21h02.24.123,fluency,2022.2.4,Win32,59.95203837,,,,,,,,,,,,,,,,,,,,,,,,,,,,,,,,,,,,,,,,,,,,,,,,,,,,,,,,,,,,,,,,,,,,,,,,,,,,,,,,,,0,0,0,0,1,,"[""k""]",[0.72199999999998],0,"[""k""]",[0.72199999999998],,,,,,,,,,,,,,,,,,,,,,,,,,,,,,,,,,,,,,,,,,,,,,,,,,,,,,,,,,,,,,
,,,,602970,001,2024-02-07_21h02.24.123,fluency,2022.2.4,Win32,59.95203837,,,,,,,,,,,,,,,,,,,,,,,6,3,img/B03_06.jpg,MF,Press J if the face is MALE and K if the face is FEMALE, ,JK,,,,,,,,,,,,,,,,,,,,,,,,,,,,,,,,4,0.727,,,,,,,,,,,,,,0,82,82,28,1,,,,,,,,,,,,,space,0.118,,,,,,,,,,,,,,,,,,,,,,,,,,,,,,,,,,,,,,,,,,,,,,,,,,,,,,,,,,,,
,,,,602970,001,2024-02-07_21h02.24.123,fluency,2022.2.4,Win32,59.95203837,,,,,,,,,,,,,,,,,,,,,,,8,8,img/B08_08.jpg,MF,Press J if the face is MALE and K if the face is FEMALE, ,JK,,,,,,,,,,,,,,,,,,,,,,,,,,,,,,,,,,,,,,,,,,,,,,600.54,0,83,83,85,1,109,0,0,0,0,1,98,,,,,,,,,,,,,,,,,,,,,,,,,,,,,,,,,,,,,,,,,,,,,,,,,,,,,,,,,,,,,,,,,,,
,,,,602970,001,2024-02-07_21h02.24.123,fluency,2022.2.4,Win32,59.95203837,,,,,,,,,,,,,,,,,,,,,,,,,,,,,,,,,,,,,,,,,,,,,,,,,,,,,,,,,,,,,,,,,,,,,,,,,,,,,,,,,,0,0,0,0,1,,"[""j""]",[0.6219999999999573],0,"[""j""]",[0.6219999999999573],,,,,,,,,,,,,,,,,,,,,,,,,,,,,,,,,,,,,,,,,,,,,,,,,,,,,,,,,,,,,,
,,,,602970,001,2024-02-07_21h02.24.123,fluency,2022.2.4,Win32,59.95203837,,,,,,,,,,,,,,,,,,,,,,,8,8,img/B08_08.jpg,MF,Press J if the face is MALE and K if the face is FEMALE, ,JK,,,,,,,,,,,,,,,,,,,,,,,,,,,,,,,,2,0.358,,,,,,,,,,,,,,0,83,83,85,1,,,,,,,,,,,,,space,0.133,,,,,,,,,,,,,,,,,,,,,,,,,,,,,,,,,,,,,,,,,,,,,,,,,,,,,,,,,,,,
,,,,602970,001,2024-02-07_21h02.24.123,fluency,2022.2.4,Win32,59.95203837,,,,,,,,,,,,,,,,,,,,,,,4,8,img/B08_04.jpg,MF,Press J if the face is MALE and K if the face is FEMALE, ,JK,,,,,,,,,,,,,,,,,,,,,,,,,,,,,,,,,,,,,,,,,,,,,,605.096,0,84,84,81,1,109,0,0,0,0,1,98,,,,,,,,,,,,,,,,,,,,,,,,,,,,,,,,,,,,,,,,,,,,,,,,,,,,,,,,,,,,,,,,,,,
,,,,602970,001,2024-02-07_21h02.24.123,fluency,2022.2.4,Win32,59.95203837,,,,,,,,,,,,,,,,,,,,,,,,,,,,,,,,,,,,,,,,,,,,,,,,,,,,,,,,,,,,,,,,,,,,,,,,,,,,,,,,,,0,0,0,0,1,,"[""k""]",[0.6779999999999973],0,"[""k""]",[0.6779999999999973],,,,,,,,,,,,,,,,,,,,,,,,,,,,,,,,,,,,,,,,,,,,,,,,,,,,,,,,,,,,,,
,,,,602970,001,2024-02-07_21h02.24.123,fluency,2022.2.4,Win32,59.95203837,,,,,,,,,,,,,,,,,,,,,,,4,8,img/B08_04.jpg,MF,Press J if the face is MALE and K if the face is FEMALE, ,JK,,,,,,,,,,,,,,,,,,,,,,,,,,,,,,,,4,0.336,,,,,,,,,,,,,,0,84,84,81,1,,,,,,,,,,,,,space,0.051,,,,,,,,,,,,,,,,,,,,,,,,,,,,,,,,,,,,,,,,,,,,,,,,,,,,,,,,,,,,
,,,,602970,001,2024-02-07_21h02.24.123,fluency,2022.2.4,Win32,59.95203837,,,,,,,,,,,,,,,,,,,,,,,6,7,img/B07_06.jpg,MF,Press J if the face is MALE and K if the face is FEMALE, ,JK,,,,,,,,,,,,,,,,,,,,,,,,,,,,,,,,,,,,,,,,,,,,,,609.551,0,85,85,72,1,109,0,0,0,0,1,98,,,,,,,,,,,,,,,,,,,,,,,,,,,,,,,,,,,,,,,,,,,,,,,,,,,,,,,,,,,,,,,,,,,
,,,,602970,001,2024-02-07_21h02.24.123,fluency,2022.2.4,Win32,59.95203837,,,,,,,,,,,,,,,,,,,,,,,,,,,,,,,,,,,,,,,,,,,,,,,,,,,,,,,,,,,,,,,,,,,,,,,,,,,,,,,,,,0,0,0,0,1,,"[""k""]",[0.5610000000000355],0,"[""k""]",[0.5610000000000355],,,,,,,,,,,,,,,,,,,,,,,,,,,,,,,,,,,,,,,,,,,,,,,,,,,,,,,,,,,,,,
,,,,602970,001,2024-02-07_21h02.24.123,fluency,2022.2.4,Win32,59.95203837,,,,,,,,,,,,,,,,,,,,,,,6,7,img/B07_06.jpg,MF,Press J if the face is MALE and K if the face is FEMALE, ,JK,,,,,,,,,,,,,,,,,,,,,,,,,,,,,,,,3,2.319,,,,,,,,,,,,,,0,85,85,72,1,,,,,,,,,,,,,space,0.494,,,,,,,,,,,,,,,,,,,,,,,,,,,,,,,,,,,,,,,,,,,,,,,,,,,,,,,,,,,,
,,,,602970,001,2024-02-07_21h02.24.123,fluency,2022.2.4,Win32,59.95203837,,,,,,,,,,,,,,,,,,,,,,,1,10,img/B10_01.jpg,MF,Press J if the face is MALE and K if the face is FEMALE, ,JK,,,,,,,,,,,,,,,,,,,,,,,,,,,,,,,,,,,,,,,,,,,,,,616.41,0,86,86,100,1,109,0,0,0,0,1,98,,,,,,,,,,,,,,,,,,,,,,,,,,,,,,,,,,,,,,,,,,,,,,,,,,,,,,,,,,,,,,,,,,,
,,,,602970,001,2024-02-07_21h02.24.123,fluency,2022.2.4,Win32,59.95203837,,,,,,,,,,,,,,,,,,,,,,,,,,,,,,,,,,,,,,,,,,,,,,,,,,,,,,,,,,,,,,,,,,,,,,,,,,,,,,,,,,0,0,0,0,1,,"[""j""]",[0.6419999999999391],0,"[""j""]",[0.6419999999999391],,,,,,,,,,,,,,,,,,,,,,,,,,,,,,,,,,,,,,,,,,,,,,,,,,,,,,,,,,,,,,
,,,,602970,001,2024-02-07_21h02.24.123,fluency,2022.2.4,Win32,59.95203837,,,,,,,,,,,,,,,,,,,,,,,1,10,img/B10_01.jpg,MF,Press J if the face is MALE and K if the face is FEMALE, ,JK,,,,,,,,,,,,,,,,,,,,,,,,,,,,,,,,3,0.284,,,,,,,,,,,,,,0,86,86,100,1,,,,,,,,,,,,,space,0.107,,,,,,,,,,,,,,,,,,,,,,,,,,,,,,,,,,,,,,,,,,,,,,,,,,,,,,,,,,,,
,,,,602970,001,2024-02-07_21h02.24.123,fluency,2022.2.4,Win32,59.95203837,,,,,,,,,,,,,,,,,,,,,,,4,5,img/B05_04.jpg,MF,Press J if the face is MALE and K if the face is FEMALE, ,JK,,,,,,,,,,,,,,,,,,,,,,,,,,,,,,,,,,,,,,,,,,,,,,621.864,0,87,87,48,1,109,0,0,0,0,1,98,,,,,,,,,,,,,,,,,,,,,,,,,,,,,,,,,,,,,,,,,,,,,,,,,,,,,,,,,,,,,,,,,,,
,,,,602970,001,2024-02-07_21h02.24.123,fluency,2022.2.4,Win32,59.95203837,,,,,,,,,,,,,,,,,,,,,,,,,,,,,,,,,,,,,,,,,,,,,,,,,,,,,,,,,,,,,,,,,,,,,,,,,,,,,,,,,,0,0,0,0,1,,"[""k""]",[0.8310000000000173],0,"[""k""]",[0.8310000000000173],,,,,,,,,,,,,,,,,,,,,,,,,,,,,,,,,,,,,,,,,,,,,,,,,,,,,,,,,,,,,,
,,,,602970,001,2024-02-07_21h02.24.123,fluency,2022.2.4,Win32,59.95203837,,,,,,,,,,,,,,,,,,,,,,,4,5,img/B05_04.jpg,MF,Press J if the face is MALE and K if the face is FEMALE, ,JK,,,,,,,,,,,,,,,,,,,,,,,,,,,,,,,,3,0.329,,,,,,,,,,,,,,0,87,87,48,1,,,,,,,,,,,,,space,0.143,,,,,,,,,,,,,,,,,,,,,,,,,,,,,,,,,,,,,,,,,,,,,,,,,,,,,,,,,,,,
,,,,602970,001,2024-02-07_21h02.24.123,fluency,2022.2.4,Win32,59.95203837,,,,,,,,,,,,,,,,,,,,,,,3,8,img/B08_03.jpg,MF,Press J if the face is MALE and K if the face is FEMALE, ,JK,,,,,,,,,,,,,,,,,,,,,,,,,,,,,,,,,,,,,,,,,,,,,,627.387,0,88,88,80,1,109,0,0,0,0,1,98,,,,,,,,,,,,,,,,,,,,,,,,,,,,,,,,,,,,,,,,,,,,,,,,,,,,,,,,,,,,,,,,,,,
,,,,602970,001,2024-02-07_21h02.24.123,fluency,2022.2.4,Win32,59.95203837,,,,,,,,,,,,,,,,,,,,,,,,,,,,,,,,,,,,,,,,,,,,,,,,,,,,,,,,,,,,,,,,,,,,,,,,,,,,,,,,,,0,0,0,0,1,,"[""k""]",[0.5889999999999418],0,"[""k""]",[0.5879999999999654],,,,,,,,,,,,,,,,,,,,,,,,,,,,,,,,,,,,,,,,,,,,,,,,,,,,,,,,,,,,,,
,,,,602970,001,2024-02-07_21h02.24.123,fluency,2022.2.4,Win32,59.95203837,,,,,,,,,,,,,,,,,,,,,,,3,8,img/B08_03.jpg,MF,Press J if the face is MALE and K if the face is FEMALE, ,JK,,,,,,,,,,,,,,,,,,,,,,,,,,,,,,,,4,0.328,,,,,,,,,,,,,,0,88,88,80,1,,,,,,,,,,,,,space,0.685,,,,,,,,,,,,,,,,,,,,,,,,,,,,,,,,,,,,,,,,,,,,,,,,,,,,,,,,,,,,
,,,,602970,001,2024-02-07_21h02.24.123,fluency,2022.2.4,Win32,59.95203837,,,,,,,,,,,,,,,,,,,,,,,10,2,img/B02_10.jpg,MF,Press J if the face is MALE and K if the face is FEMALE, ,JK,,,,,,,,,,,,,,,,,,,,,,,,,,,,,,,,,,,,,,,,,,,,,,633.461,0,89,89,21,1,109,0,0,0,0,1,98,,,,,,,,,,,,,,,,,,,,,,,,,,,,,,,,,,,,,,,,,,,,,,,,,,,,,,,,,,,,,,,,,,,
,,,,602970,001,2024-02-07_21h02.24.123,fluency,2022.2.4,Win32,59.95203837,,,,,,,,,,,,,,,,,,,,,,,,,,,,,,,,,,,,,,,,,,,,,,,,,,,,,,,,,,,,,,,,,,,,,,,,,,,,,,,,,,0,0,0,0,1,,"[""k""]",[0.5930000000000746],0,"[""k""]",[0.5930000000000746],,,,,,,,,,,,,,,,,,,,,,,,,,,,,,,,,,,,,,,,,,,,,,,,,,,,,,,,,,,,,,
,,,,602970,001,2024-02-07_21h02.24.123,fluency,2022.2.4,Win32,59.95203837,,,,,,,,,,,,,,,,,,,,,,,10,2,img/B02_10.jpg,MF,Press J if the face is MALE and K if the face is FEMALE, ,JK,,,,,,,,,,,,,,,,,,,,,,,,,,,,,,,,5,0.298,,,,,,,,,,,,,,0,89,89,21,1,,,,,,,,,,,,,space,0.102,,,,,,,,,,,,,,,,,,,,,,,,,,,,,,,,,,,,,,,,,,,,,,,,,,,,,,,,,,,,
,,,,602970,001,2024-02-07_21h02.24.123,fluency,2022.2.4,Win32,59.95203837,,,,,,,,,,,,,,,,,,,,,,,10,3,img/B03_10.jpg,MF,Press J if the face is MALE and K if the face is FEMALE, ,JK,,,,,,,,,,,,,,,,,,,,,,,,,,,,,,,,,,,,,,,,,,,,,,637.915,0,90,90,32,1,109,0,0,0,0,1,98,,,,,,,,,,,,,,,,,,,,,,,,,,,,,,,,,,,,,,,,,,,,,,,,,,,,,,,,,,,,,,,,,,,
,,,,602970,001,2024-02-07_21h02.24.123,fluency,2022.2.4,Win32,59.95203837,,,,,,,,,,,,,,,,,,,,,,,,,,,,,,,,,,,,,,,,,,,,,,,,,,,,,,,,,,,,,,,,,,,,,,,,,,,,,,,,,,0,0,0,0,1,,"[""k""]",[0.7049999999999272],0,"[""k""]",[0.7049999999999272],,,,,,,,,,,,,,,,,,,,,,,,,,,,,,,,,,,,,,,,,,,,,,,,,,,,,,,,,,,,,,
,,,,602970,001,2024-02-07_21h02.24.123,fluency,2022.2.4,Win32,59.95203837,,,,,,,,,,,,,,,,,,,,,,,10,3,img/B03_10.jpg,MF,Press J if the face is MALE and K if the face is FEMALE, ,JK,,,,,,,,,,,,,,,,,,,,,,,,,,,,,,,,4,0.323,,,,,,,,,,,,,,0,90,90,32,1,,,,,,,,,,,,,space,0.223,,,,,,,,,,,,,,,,,,,,,,,,,,,,,,,,,,,,,,,,,,,,,,,,,,,,,,,,,,,,
,,,,602970,001,2024-02-07_21h02.24.123,fluency,2022.2.4,Win32,59.95203837,,,,,,,,,,,,,,,,,,,,,,,4,1,img/B01_04.jpg,MF,Press J if the face is MALE and K if the face is FEMALE, ,JK,,,,,,,,,,,,,,,,,,,,,,,,,,,,,,,,,,,,,,,,,,,,,,642.521,0,91,91,4,1,109,0,0,0,0,1,98,,,,,,,,,,,,,,,,,,,,,,,,,,,,,,,,,,,,,,,,,,,,,,,,,,,,,,,,,,,,,,,,,,,
,,,,602970,001,2024-02-07_21h02.24.123,fluency,2022.2.4,Win32,59.95203837,,,,,,,,,,,,,,,,,,,,,,,,,,,,,,,,,,,,,,,,,,,,,,,,,,,,,,,,,,,,,,,,,,,,,,,,,,,,,,,,,,0,0,0,0,1,,"[""j""]",[0.8389999999999418],0,"[""j""]",[0.8389999999999418],,,,,,,,,,,,,,,,,,,,,,,,,,,,,,,,,,,,,,,,,,,,,,,,,,,,,,,,,,,,,,
,,,,602970,001,2024-02-07_21h02.24.123,fluency,2022.2.4,Win32,59.95203837,,,,,,,,,,,,,,,,,,,,,,,4,1,img/B01_04.jpg,MF,Press J if the face is MALE and K if the face is FEMALE, ,JK,,,,,,,,,,,,,,,,,,,,,,,,,,,,,,,,2,0.711,,,,,,,,,,,,,,0,91,91,4,1,,,,,,,,,,,,,space,0.561,,,,,,,,,,,,,,,,,,,,,,,,,,,,,,,,,,,,,,,,,,,,,,,,,,,,,,,,,,,,
,,,,602970,001,2024-02-07_21h02.24.123,fluency,2022.2.4,Win32,59.95203837,,,,,,,,,,,,,,,,,,,,,,,4,10,img/B10_04.jpg,MF,Press J if the face is MALE and K if the face is FEMALE, ,JK,,,,,,,,,,,,,,,,,,,,,,,,,,,,,,,,,,,,,,,,,,,,,,647.86,0,92,92,103,1,109,0,0,0,0,1,98,,,,,,,,,,,,,,,,,,,,,,,,,,,,,,,,,,,,,,,,,,,,,,,,,,,,,,,,,,,,,,,,,,,
,,,,602970,001,2024-02-07_21h02.24.123,fluency,2022.2.4,Win32,59.95203837,,,,,,,,,,,,,,,,,,,,,,,,,,,,,,,,,,,,,,,,,,,,,,,,,,,,,,,,,,,,,,,,,,,,,,,,,,,,,,,,,,0,0,0,0,1,,"[""j""]",[0.7069999999999936],0,"[""j""]",[0.7069999999999936],,,,,,,,,,,,,,,,,,,,,,,,,,,,,,,,,,,,,,,,,,,,,,,,,,,,,,,,,,,,,,
,,,,602970,001,2024-02-07_21h02.24.123,fluency,2022.2.4,Win32,59.95203837,,,,,,,,,,,,,,,,,,,,,,,4,10,img/B10_04.jpg,MF,Press J if the face is MALE and K if the face is FEMALE, ,JK,,,,,,,,,,,,,,,,,,,,,,,,,,,,,,,,2,1.808,,,,,,,,,,,,,,0,92,92,103,1,,,,,,,,,,,,,space,0.052,,,,,,,,,,,,,,,,,,,,,,,,,,,,,,,,,,,,,,,,,,,,,,,,,,,,,,,,,,,,
,,,,602970,001,2024-02-07_21h02.24.123,fluency,2022.2.4,Win32,59.95203837,,,,,,,,,,,,,,,,,,,,,,,9,6,img/B06_09.jpg,MF,Press J if the face is MALE and K if the face is FEMALE, ,JK,,,,,,,,,,,,,,,,,,,,,,,,,,,,,,,,,,,,,,,,,,,,,,654.784,0,93,93,64,1,109,0,0,0,0,1,98,,,,,,,,,,,,,,,,,,,,,,,,,,,,,,,,,,,,,,,,,,,,,,,,,,,,,,,,,,,,,,,,,,,
,,,,602970,001,2024-02-07_21h02.24.123,fluency,2022.2.4,Win32,59.95203837,,,,,,,,,,,,,,,,,,,,,,,,,,,,,,,,,,,,,,,,,,,,,,,,,,,,,,,,,,,,,,,,,,,,,,,,,,,,,,,,,,0,0,0,0,1,,"[""k""]",[0.8600000000000136],0,"[""k""]",[0.8600000000000136],,,,,,,,,,,,,,,,,,,,,,,,,,,,,,,,,,,,,,,,,,,,,,,,,,,,,,,,,,,,,,
,,,,602970,001,2024-02-07_21h02.24.123,fluency,2022.2.4,Win32,59.95203837,,,,,,,,,,,,,,,,,,,,,,,9,6,img/B06_09.jpg,MF,Press J if the face is MALE and K if the face is FEMALE, ,JK,,,,,,,,,,,,,,,,,,,,,,,,,,,,,,,,4,4.631,,,,,,,,,,,,,,0,93,93,64,1,,,,,,,,,,,,,space,0.536,,,,,,,,,,,,,,,,,,,,,,,,,,,,,,,,,,,,,,,,,,,,,,,,,,,,,,,,,,,,
,,,,602970,001,2024-02-07_21h02.24.123,fluency,2022.2.4,Win32,59.95203837,,,,,,,,,,,,,,,,,,,,,,,2,4,img/B04_02.jpg,MF,Press J if the face is MALE and K if the face is FEMALE, ,JK,,,,,,,,,,,,,,,,,,,,,,,,,,,,,,,,,,,,,,,,,,,,,,665.013,0,94,94,35,1,109,0,0,0,0,1,98,,,,,,,,,,,,,,,,,,,,,,,,,,,,,,,,,,,,,,,,,,,,,,,,,,,,,,,,,,,,,,,,,,,
,,,,602970,001,2024-02-07_21h02.24.123,fluency,2022.2.4,Win32,59.95203837,,,,,,,,,,,,,,,,,,,,,,,,,,,,,,,,,,,,,,,,,,,,,,,,,,,,,,,,,,,,,,,,,,,,,,,,,,,,,,,,,,0,0,0,0,1,,"[""j""]",[1.5950000000000273],0,"[""j""]",[1.5939999999999372],,,,,,,,,,,,,,,,,,,,,,,,,,,,,,,,,,,,,,,,,,,,,,,,,,,,,,,,,,,,,,
,,,,602970,001,2024-02-07_21h02.24.123,fluency,2022.2.4,Win32,59.95203837,,,,,,,,,,,,,,,,,,,,,,,2,4,img/B04_02.jpg,MF,Press J if the face is MALE and K if the face is FEMALE, ,JK,,,,,,,,,,,,,,,,,,,,,,,,,,,,,,,,1,1.053,,,,,,,,,,,,,,0,94,94,35,1,,,,,,,,,,,,,space,0.519,,,,,,,,,,,,,,,,,,,,,,,,,,,,,,,,,,,,,,,,,,,,,,,,,,,,,,,,,,,,
,,,,602970,001,2024-02-07_21h02.24.123,fluency,2022.2.4,Win32,59.95203837,,,,,,,,,,,,,,,,,,,,,,,0,2,img/B02_00.jpg,MF,Press J if the face is MALE and K if the face is FEMALE, ,JK,,,,,,,,,,,,,,,,,,,,,,,,,,,,,,,,,,,,,,,,,,,,,,670.651,0,95,95,11,1,109,0,0,0,0,1,98,,,,,,,,,,,,,,,,,,,,,,,,,,,,,,,,,,,,,,,,,,,,,,,,,,,,,,,,,,,,,,,,,,,
,,,,602970,001,2024-02-07_21h02.24.123,fluency,2022.2.4,Win32,59.95203837,,,,,,,,,,,,,,,,,,,,,,,,,,,,,,,,,,,,,,,,,,,,,,,,,,,,,,,,,,,,,,,,,,,,,,,,,,,,,,,,,,0,0,0,0,1,,"[""j""]",[1.0289999999999964],0,"[""space"",""j""]","[0.23900000000003274,1.0289999999999964]",,,,,,,,,,,,,,,,,,,,,,,,,,,,,,,,,,,,,,,,,,,,,,,,,,,,,,,,,,,,,,
,,,,602970,001,2024-02-07_21h02.24.123,fluency,2022.2.4,Win32,59.95203837,,,,,,,,,,,,,,,,,,,,,,,0,2,img/B02_00.jpg,MF,Press J if the face is MALE and K if the face is FEMALE, ,JK,,,,,,,,,,,,,,,,,,,,,,,,,,,,,,,,2,0.867,,,,,,,,,,,,,,0,95,95,11,1,,,,,,,,,,,,,space,0.244,,,,,,,,,,,,,,,,,,,,,,,,,,,,,,,,,,,,,,,,,,,,,,,,,,,,,,,,,,,,
,,,,602970,001,2024-02-07_21h02.24.123,fluency,2022.2.4,Win32,59.95203837,,,,,,,,,,,,,,,,,,,,,,,7,6,img/B06_07.jpg,MF,Press J if the face is MALE and K if the face is FEMALE, ,JK,,,,,,,,,,,,,,,,,,,,,,,,,,,,,,,,,,,,,,,,,,,,,,676.809,0,96,96,62,1,109,0,0,0,0,1,98,,,,,,,,,,,,,,,,,,,,,,,,,,,,,,,,,,,,,,,,,,,,,,,,,,,,,,,,,,,,,,,,,,,
,,,,602970,001,2024-02-07_21h02.24.123,fluency,2022.2.4,Win32,59.95203837,,,,,,,,,,,,,,,,,,,,,,,,,,,,,,,,,,,,,,,,,,,,,,,,,,,,,,,,,,,,,,,,,,,,,,,,,,,,,,,,,,0,0,0,0,1,,"[""k""]",[1.0090000000000146],0,"[""k""]",[1.0090000000000146],,,,,,,,,,,,,,,,,,,,,,,,,,,,,,,,,,,,,,,,,,,,,,,,,,,,,,,,,,,,,,
,,,,602970,001,2024-02-07_21h02.24.123,fluency,2022.2.4,Win32,59.95203837,,,,,,,,,,,,,,,,,,,,,,,7,6,img/B06_07.jpg,MF,Press J if the face is MALE and K if the face is FEMALE, ,JK,,,,,,,,,,,,,,,,,,,,,,,,,,,,,,,,4,0.462,,,,,,,,,,,,,,0,96,96,62,1,,,,,,,,,,,,,space,0.134,,,,,,,,,,,,,,,,,,,,,,,,,,,,,,,,,,,,,,,,,,,,,,,,,,,,,,,,,,,,
,,,,602970,001,2024-02-07_21h02.24.123,fluency,2022.2.4,Win32,59.95203837,,,,,,,,,,,,,,,,,,,,,,,0,8,img/B08_00.jpg,MF,Press J if the face is MALE and K if the face is FEMALE, ,JK,,,,,,,,,,,,,,,,,,,,,,,,,,,,,,,,,,,,,,,,,,,,,,682.482,0,97,97,77,1,109,0,0,0,0,1,98,,,,,,,,,,,,,,,,,,,,,,,,,,,,,,,,,,,,,,,,,,,,,,,,,,,,,,,,,,,,,,,,,,,
,,,,602970,001,2024-02-07_21h02.24.123,fluency,2022.2.4,Win32,59.95203837,,,,,,,,,,,,,,,,,,,,,,,,,,,,,,,,,,,,,,,,,,,,,,,,,,,,,,,,,,,,,,,,,,,,,,,,,,,,,,,,,,0,0,0,0,1,,"[""k""]",[0.6040000000000418],0,"[""k""]",[0.6040000000000418],,,,,,,,,,,,,,,,,,,,,,,,,,,,,,,,,,,,,,,,,,,,,,,,,,,,,,,,,,,,,,
,,,,602970,001,2024-02-07_21h02.24.123,fluency,2022.2.4,Win32,59.95203837,,,,,,,,,,,,,,,,,,,,,,,0,8,img/B08_00.jpg,MF,Press J if the face is MALE and K if the face is FEMALE, ,JK,,,,,,,,,,,,,,,,,,,,,,,,,,,,,,,,5,0.392,,,,,,,,,,,,,,0,97,97,77,1,,,,,,,,,,,,,space,0.139,,,,,,,,,,,,,,,,,,,,,,,,,,,,,,,,,,,,,,,,,,,,,,,,,,,,,,,,,,,,
,,,,602970,001,2024-02-07_21h02.24.123,fluency,2022.2.4,Win32,59.95203837,,,,,,,,,,,,,,,,,,,,,,,5,2,img/B02_05.jpg,MF,Press J if the face is MALE and K if the face is FEMALE, ,JK,,,,,,,,,,,,,,,,,,,,,,,,,,,,,,,,,,,,,,,,,,,,,,688.072,0,98,98,16,1,109,0,0,0,0,1,98,,,,,,,,,,,,,,,,,,,,,,,,,,,,,,,,,,,,,,,,,,,,,,,,,,,,,,,,,,,,,,,,,,,
,,,,602970,001,2024-02-07_21h02.24.123,fluency,2022.2.4,Win32,59.95203837,,,,,,,,,,,,,,,,,,,,,,,,,,,,,,,,,,,,,,,,,,,,,,,,,,,,,,,,,,,,,,,,,,,,,,,,,,,,,,,,,,0,0,0,0,1,,"[""k""]",[0.6549999999999727],0,"[""k""]",[0.6549999999999727],,,,,,,,,,,,,,,,,,,,,,,,,,,,,,,,,,,,,,,,,,,,,,,,,,,,,,,,,,,,,,
