idTextbox.text,welcomeDone.numClicks,welcomeDone.timesOn,welcomeDone.timesOff,participant,session,date,expName,psychopyVersion,OS,frameRate,consent_advance.keys,consent_advance.rt,consent_advance_2.keys,consent_advance_2.rt,consentClick.x,consentClick.y,consentClick.leftButton,consentClick.midButton,consentClick.rightButton,consentClick.time,consentClick.clicked_name,instr_advance_3.keys,instr_advance_3.rt,spec_instr_adv.keys,spec_instr_adv.rt,spec_instr_adv2.keys,spec_instr_adv2.rt,instrLoop.thisRepN,instrLoop.thisTrialN,instrLoop.thisN,instrLoop.thisIndex,instrLoop.ran,steps,fams,face_file,cond,instr,term,key_map,attnKeyResp1.keys,attnKeyResp1.rt,q1.thisRepN,q1.thisTrialN,q1.thisN,q1.thisIndex,q1.ran,attnKeyResp2.keys,attnKeyResp2.rt,q2.thisRepN,q2.thisTrialN,q2.thisN,q2.thisIndex,q2.ran,attnKeyResp3.keys,attnKeyResp3.rt,q3.thisRepN,q3.thisTrialN,q3.thisN,q3.thisIndex,q3.ran,practiceStart.keys,practiceStart.rt,practiceResp.keys,practiceResp.rt,timesRedone,practiceRepeat.thisRepN,practiceRepeat.thisTrialN,practiceRepeat.thisN,practiceRepeat.thisIndex,practiceRepeat.ran,attrRating.keys,attrRating.rt,practiceTrial.thisRepN,practiceTrial.thisTrialN,practiceTrial.thisN,practiceTrial.thisIndex,practiceTrial.ran,key_resp_3.keys,key_resp_3.rt,attnChecker.thisRepN,attnChecker.thisTrialN,attnChecker.thisN,attnChecker.thisIndex,attnChecker.ran,faceOnsetTime,trials.thisRepN,trials.thisTrialN,trials.thisN,trials.thisIndex,trials.ran,trials.order,repeat_loop.thisRepN,repeat_loop.thisTrialN,repeat_loop.thisN,repeat_loop.thisIndex,repeat_loop.ran,repeat_loop.order,catResp.keys,catResp.rt,globalTimesRedone,catAllKeys.keys,catAllKeys.rt,contResp.keys,contResp.rt,redo_keypress.keys,redo_keypress.rt,redo_feedback_loop.thisRepN,redo_feedback_loop.thisTrialN,redo_feedback_loop.thisN,redo_feedback_loop.thisIndex,redo_feedback_loop.ran,contResp_2.keys,contResp_2.rt,respQ1.response,respQ1.rt,respQ2.response,respQ2.rt,respQ3.response,respQ3.rt,respQ4.response,respQ4.rt,surveyContinue1.numClicks,surveyContinue1.timesOn,surveyContinue1.timesOff,respQ5.response,respQ5.rt,respQ6.response,respQ6.rt,respQ7.response,respQ7.rt,respQ8.response,respQ8.rt,surveyContinue2.numClicks,surveyContinue2.timesOn,surveyContinue2.timesOff,respQ9.response,respQ9.rt,respQ10.response,respQ10.rt,respQ11.response,respQ11.rt,respQ12.response,respQ12.rt,surveyContinue3.numClicks,surveyContinue3.timesOn,surveyContinue3.timesOff,respQ13.response,respQ13.rt,respQ14.response,respQ14.rt,respQ15.response,respQ15.rt,surveyContinue4.numClicks,surveyContinue4.timesOn,surveyContinue4.timesOff,respAge.response,respAge.rt,genderResp1.response,genderResp1.rt,genderResp2.text,demogexitClick.numClicks,demogexitClick.timesOn,demogexitClick.timesOff,textbox.text,openAnswerClick.numClicks,openAnswerClick.timesOn,openAnswerClick.timesOff,debriefEnd.keys,debriefEnd.rt,exitKey.keys,exitKey.rt
5f900008e536b802b29f7130,1,[16.26619999998808],[16.26630000001192],163836,001,2024-02-07_20h01.49.687,fluency,2022.2.4,MacIntel,59.88023952,,,,,,,,,,,,,,,,,,,,,,,,,,,,,,,,,,,,,,,,,,,,,,,,,,,,,,,,,,,,,,,,,,,,,,,,,,,,,,,,,,,,,,,,,,,,,,,,,,,,,,,,,,,,,,,,,,,,,,,,,,,,,,,,,,,,,,,,,,,,,,,,,,,,,,,,,,,,,,,,,
,,,,163836,001,2024-02-07_20h01.49.687,fluency,2022.2.4,MacIntel,59.88023952,space,21.9219,,,,,,,,,,,,,,,,,,,,,,,,,,,,,,,,,,,,,,,,,,,,,,,,,,,,,,,,,,,,,,,,,,,,,,,,,,,,,,,,,,,,,,,,,,,,,,,,,,,,,,,,,,,,,,,,,,,,,,,,,,,,,,,,,,,,,,,,,,,,,,,,,,,,,,,,,,,,,,,
,,,,163836,001,2024-02-07_20h01.49.687,fluency,2022.2.4,MacIntel,59.88023952,,,space,3.6617,,,,,,,,,,,,,,,,,,,,,,,,,,,,,,,,,,,,,,,,,,,,,,,,,,,,,,,,,,,,,,,,,,,,,,,,,,,,,,,,,,,,,,,,,,,,,,,,,,,,,,,,,,,,,,,,,,,,,,,,,,,,,,,,,,,,,,,,,,,,,,,,,,,,,,,,,,,,,
,,,,163836,001,2024-02-07_20h01.49.687,fluency,2022.2.4,MacIntel,59.88023952,,,,,0.282982337,-0.38147928,1,0,0,8.8516,iAgree,,,,,,,,,,,,,,,,,,,,,,,,,,,,,,,,,,,,,,,,,,,,,,,,,,,,,,,,,,,,,,,,,,,,,,,,,,,,,,,,,,,,,,,,,,,,,,,,,,,,,,,,,,,,,,,,,,,,,,,,,,,,,,,,,,,,,,,,,,,,,,,,,,,,,,
,,,,163836,001,2024-02-07_20h01.49.687,fluency,2022.2.4,MacIntel,59.88023952,,,,,,,,,,,,space,5.7279,,,,,,,,,,,,,,,,,,,,,,,,,,,,,,,,,,,,,,,,,,,,,,,,,,,,,,,,,,,,,,,,,,,,,,,,,,,,,,,,,,,,,,,,,,,,,,,,,,,,,,,,,,,,,,,,,,,,,,,,,,,,,,,,,,,,,,,,,,,,,,,,,,,,
,,,,163836,001,2024-02-07_20h01.49.687,fluency,2022.2.4,MacIntel,59.88023952,,,,,,,,,,,,,,space,10.1018,space,9.4963,0,0,0,94,1,6,9,img/B09_06.jpg,MF,Press J if the face is MALE and K if the face is FEMALE, ,JK,,,,,,,,,,,,,,,,,,,,,,,,,,,,,,,,,,,,,,,,,,,,,,,,,,,,,,,,,,,,,,,,,,,,,,,,,,,,,,,,,,,,,,,,,,,,,,,,,,,,,,,,,,,,,,,,,,,,,,,,,,,,,,,,,,,,
,,,,163836,001,2024-02-07_20h01.49.687,fluency,2022.2.4,MacIntel,59.88023952,,,,,,,,,,,,,,,,,,,,,,,,,,,,,,c,5.5582,0,0,0,0,1,,,,,,,,,,,,,,,,,,,,,,,,,,,,,,,,,,,,,,,,,,,,,,,,,,,,,,,,,,,,,,,,,,,,,,,,,,,,,,,,,,,,,,,,,,,,,,,,,,,,,,,,,,,,,,,,,,,,,,,,,,,,,
,,,,163836,001,2024-02-07_20h01.49.687,fluency,2022.2.4,MacIntel,59.88023952,,,,,,,,,,,,,,,,,,,,,,,,,,,,,,,,,,,,,a,4.838,0,0,0,0,1,,,,,,,,,,,,,,,,,,,,,,,,,,,,,,,,,,,,,,,,,,,,,,,,,,,,,,,,,,,,,,,,,,,,,,,,,,,,,,,,,,,,,,,,,,,,,,,,,,,,,,,,,,,,,,,,,,,,,,
,,,,163836,001,2024-02-07_20h01.49.687,fluency,2022.2.4,MacIntel,59.88023952,,,,,,,,,,,,,,,,,,,,,,,,,,,,,,,,,,,,,,,,,,,,c,6.6328,0,0,0,0,1,,,,,,,,,,,,,,,,,,,,,,,,,,,,,,,,,,,,,,,,,,,,,,,,,,,,,,,,,,,,,,,,,,,,,,,,,,,,,,,,,,,,,,,,,,,,,,,,,,,,,,,,,,,,,,,
,,,,163836,001,2024-02-07_20h01.49.687,fluency,2022.2.4,MacIntel,59.88023952,,,,,,,,,,,,,,,,,,,,,,,,,,,,,,,,,,,,,,,,,,,,,,,,,,,space,1.1519,j,1.2263,0,0,0,0,0,1,,,,,,,,,,,,,,,,,,,,,,,,,,,,,,,,,,,,,,,,,,,,,,,,,,,,,,,,,,,,,,,,,,,,,,,,,,,,,,,,,,,,,,,,,,,,,,,,,,,,,
,,,,163836,001,2024-02-07_20h01.49.687,fluency,2022.2.4,MacIntel,59.88023952,,,,,,,,,,,,,,,,,,,,,,,,,,,,,,,,,,,,,,,,,,,,,,,,,,,,,,,,,,,,,2,4.1075,0,0,0,0,1,,,,,,,,,,,,,,,,,,,,,,,,,,,,,,,,,,,,,,,,,,,,,,,,,,,,,,,,,,,,,,,,,,,,,,,,,,,,,,,,,,,,,,,,,,,,,,
,,,,163836,001,2024-02-07_20h01.49.687,fluency,2022.2.4,MacIntel,59.88023952,,,,,,,,,,,,,,,,,,,,,,,,,,,,,,,,,,,,,,,,,,,,,,,,,,,,,,,,,,,,,,,,,,,,space,2.7891,0,0,0,0,1,,,,,,,,,,,,,,,,,,,,,,,,,,,,,,,,,,,,,,,,,,,,,,,,,,,,,,,,,,,,,,,,,,,,,,,,,,,,,,,,,,,,,,,
,,,,163836,001,2024-02-07_20h01.49.687,fluency,2022.2.4,MacIntel,59.88023952,,,,,,,,,,,,,,,,,,,,,,,6,5,img/B05_06.jpg,MF,Press J if the face is MALE and K if the face is FEMALE, ,JK,,,,,,,,,,,,,,,,,,,,,,,,,,,,,,,,,,,,,,,,,,,,,,124.589,0,0,0,50,1,109,0,0,0,0,1,98,,,,,,,,,,,,,,,,,,,,,,,,,,,,,,,,,,,,,,,,,,,,,,,,,,,,,,,,,,,,,,,,,,,,,,,,,,
,,,,163836,001,2024-02-07_20h01.49.687,fluency,2022.2.4,MacIntel,59.88023952,,,,,,,,,,,,,,,,,,,,,,,,,,,,,,,,,,,,,,,,,,,,,,,,,,,,,,,,,,,,,,,,,,,,,,,,,,,,,,,,,,0,0,0,0,1,,"[""k""]",[1.0736999999880936],0,"[""k""]",[1.0735999999642445],,,,,,,,,,,,,,,,,,,,,,,,,,,,,,,,,,,,,,,,,,,,,,,,,,,,,,,,,,,,,,,,,,,,,
,,,,163836,001,2024-02-07_20h01.49.687,fluency,2022.2.4,MacIntel,59.88023952,,,,,,,,,,,,,,,,,,,,,,,6,5,img/B05_06.jpg,MF,Press J if the face is MALE and K if the face is FEMALE, ,JK,,,,,,,,,,,,,,,,,,,,,,,,,,,,,,,,2,2.1431,,,,,,,,,,,,,,0,0,0,50,1,,,,,,,,,,,,,space,6.1544,,,,,,,,,,,,,,,,,,,,,,,,,,,,,,,,,,,,,,,,,,,,,,,,,,,,,,,,,,,,,,,,,,,
,,,,163836,001,2024-02-07_20h01.49.687,fluency,2022.2.4,MacIntel,59.88023952,,,,,,,,,,,,,,,,,,,,,,,8,10,img/B10_08.jpg,MF,Press J if the face is MALE and K if the face is FEMALE, ,JK,,,,,,,,,,,,,,,,,,,,,,,,,,,,,,,,,,,,,,,,,,,,,,137.988,0,1,1,107,1,109,0,0,0,0,1,98,,,,,,,,,,,,,,,,,,,,,,,,,,,,,,,,,,,,,,,,,,,,,,,,,,,,,,,,,,,,,,,,,,,,,,,,,,
,,,,163836,001,2024-02-07_20h01.49.687,fluency,2022.2.4,MacIntel,59.88023952,,,,,,,,,,,,,,,,,,,,,,,,,,,,,,,,,,,,,,,,,,,,,,,,,,,,,,,,,,,,,,,,,,,,,,,,,,,,,,,,,,0,0,0,0,1,,"[""k""]",[1.1716999999880784],0,"[""k""]",[1.1716999999880784],,,,,,,,,,,,,,,,,,,,,,,,,,,,,,,,,,,,,,,,,,,,,,,,,,,,,,,,,,,,,,,,,,,,,
,,,,163836,001,2024-02-07_20h01.49.687,fluency,2022.2.4,MacIntel,59.88023952,,,,,,,,,,,,,,,,,,,,,,,8,10,img/B10_08.jpg,MF,Press J if the face is MALE and K if the face is FEMALE, ,JK,,,,,,,,,,,,,,,,,,,,,,,,,,,,,,,,4,0.6664,,,,,,,,,,,,,,0,1,1,107,1,,,,,,,,,,,,,space,6.4011,,,,,,,,,,,,,,,,,,,,,,,,,,,,,,,,,,,,,,,,,,,,,,,,,,,,,,,,,,,,,,,,,,,
,,,,163836,001,2024-02-07_20h01.49.687,fluency,2022.2.4,MacIntel,59.88023952,,,,,,,,,,,,,,,,,,,,,,,1,5,img/B05_01.jpg,MF,Press J if the face is MALE and K if the face is FEMALE, ,JK,,,,,,,,,,,,,,,,,,,,,,,,,,,,,,,,,,,,,,,,,,,,,,149.1212,0,2,2,45,1,109,0,0,0,0,1,98,,,,,,,,,,,,,,,,,,,,,,,,,,,,,,,,,,,,,,,,,,,,,,,,,,,,,,,,,,,,,,,,,,,,,,,,,,
,,,,163836,001,2024-02-07_20h01.49.687,fluency,2022.2.4,MacIntel,59.88023952,,,,,,,,,,,,,,,,,,,,,,,,,,,,,,,,,,,,,,,,,,,,,,,,,,,,,,,,,,,,,,,,,,,,,,,,,,,,,,,,,,0,0,0,0,1,,"[""j""]",[1.138400000035773],0,"[""j""]",[1.1385000000000218],,,,,,,,,,,,,,,,,,,,,,,,,,,,,,,,,,,,,,,,,,,,,,,,,,,,,,,,,,,,,,,,,,,,,
,,,,163836,001,2024-02-07_20h01.49.687,fluency,2022.2.4,MacIntel,59.88023952,,,,,,,,,,,,,,,,,,,,,,,1,5,img/B05_01.jpg,MF,Press J if the face is MALE and K if the face is FEMALE, ,JK,,,,,,,,,,,,,,,,,,,,,,,,,,,,,,,,2,1.5781,,,,,,,,,,,,,,0,2,2,45,1,,,,,,,,,,,,,space,2.9746,,,,,,,,,,,,,,,,,,,,,,,,,,,,,,,,,,,,,,,,,,,,,,,,,,,,,,,,,,,,,,,,,,,
,,,,163836,001,2024-02-07_20h01.49.687,fluency,2022.2.4,MacIntel,59.88023952,,,,,,,,,,,,,,,,,,,,,,,6,7,img/B07_06.jpg,MF,Press J if the face is MALE and K if the face is FEMALE, ,JK,,,,,,,,,,,,,,,,,,,,,,,,,,,,,,,,,,,,,,,,,,,,,,157.7379,0,3,3,72,1,109,0,0,0,0,1,98,,,,,,,,,,,,,,,,,,,,,,,,,,,,,,,,,,,,,,,,,,,,,,,,,,,,,,,,,,,,,,,,,,,,,,,,,,
,,,,163836,001,2024-02-07_20h01.49.687,fluency,2022.2.4,MacIntel,59.88023952,,,,,,,,,,,,,,,,,,,,,,,,,,,,,,,,,,,,,,,,,,,,,,,,,,,,,,,,,,,,,,,,,,,,,,,,,,,,,,,,,,,,,,,,,,1,,,,,space,3.0049,0,0,0,0,1,,,,,,,,,,,,,,,,,,,,,,,,,,,,,,,,,,,,,,,,,,,,,,,,,,,,,,,,,,,,
,,,,163836,001,2024-02-07_20h01.49.687,fluency,2022.2.4,MacIntel,59.88023952,,,,,,,,,,,,,,,,,,,,,,,,,,,,,,,,,,,,,,,,,,,,,,,,,,,,,,,,,,,,,,,,,,,,,,,,,,,,,,,,,,0,0,0,0,1,,,,,,,,,,,,,,,,,,,,,,,,,,,,,,,,,,,,,,,,,,,,,,,,,,,,,,,,,,,,,,,,,,,,,,,,,,,
,,,,163836,001,2024-02-07_20h01.49.687,fluency,2022.2.4,MacIntel,59.88023952,,,,,,,,,,,,,,,,,,,,,,,6,7,img/B07_06.jpg,MF,Press J if the face is MALE and K if the face is FEMALE, ,JK,,,,,,,,,,,,,,,,,,,,,,,,,,,,,,,,,,,,,,,,,,,,,,165.7879,0,3,3,72,1,109,1,0,1,0,1,98,,,,,,,,,,,,,,,,,,,,,,,,,,,,,,,,,,,,,,,,,,,,,,,,,,,,,,,,,,,,,,,,,,,,,,,,,,
,,,,163836,001,2024-02-07_20h01.49.687,fluency,2022.2.4,MacIntel,59.88023952,,,,,,,,,,,,,,,,,,,,,,,,,,,,,,,,,,,,,,,,,,,,,,,,,,,,,,,,,,,,,,,,,,,,,,,,,,,,,,,,,,1,0,1,0,1,,"[""k""]",[0.6339000000357657],1,"[""k""]",[0.6339000000357657],,,,,,,,,,,,,,,,,,,,,,,,,,,,,,,,,,,,,,,,,,,,,,,,,,,,,,,,,,,,,,,,,,,,,
,,,,163836,001,2024-02-07_20h01.49.687,fluency,2022.2.4,MacIntel,59.88023952,,,,,,,,,,,,,,,,,,,,,,,6,7,img/B07_06.jpg,MF,Press J if the face is MALE and K if the face is FEMALE, ,JK,,,,,,,,,,,,,,,,,,,,,,,,,,,,,,,,2,0.6763,,,,,,,,,,,,,,0,3,3,72,1,,,,,,,,,,,,,space,1.6345,,,,,,,,,,,,,,,,,,,,,,,,,,,,,,,,,,,,,,,,,,,,,,,,,,,,,,,,,,,,,,,,,,,
,,,,163836,001,2024-02-07_20h01.49.687,fluency,2022.2.4,MacIntel,59.88023952,,,,,,,,,,,,,,,,,,,,,,,3,6,img/B06_03.jpg,MF,Press J if the face is MALE and K if the face is FEMALE, ,JK,,,,,,,,,,,,,,,,,,,,,,,,,,,,,,,,,,,,,,,,,,,,,,173.1545,0,4,4,58,1,109,0,0,0,0,1,98,,,,,,,,,,,,,,,,,,,,,,,,,,,,,,,,,,,,,,,,,,,,,,,,,,,,,,,,,,,,,,,,,,,,,,,,,,
,,,,163836,001,2024-02-07_20h01.49.687,fluency,2022.2.4,MacIntel,59.88023952,,,,,,,,,,,,,,,,,,,,,,,,,,,,,,,,,,,,,,,,,,,,,,,,,,,,,,,,,,,,,,,,,,,,,,,,,,,,,,,,,,0,0,0,0,1,,"[""j""]",[0.875900000035756],1,"[""j""]",[0.875900000035756],,,,,,,,,,,,,,,,,,,,,,,,,,,,,,,,,,,,,,,,,,,,,,,,,,,,,,,,,,,,,,,,,,,,,
,,,,163836,001,2024-02-07_20h01.49.687,fluency,2022.2.4,MacIntel,59.88023952,,,,,,,,,,,,,,,,,,,,,,,3,6,img/B06_03.jpg,MF,Press J if the face is MALE and K if the face is FEMALE, ,JK,,,,,,,,,,,,,,,,,,,,,,,,,,,,,,,,4,0.6126,,,,,,,,,,,,,,0,4,4,58,1,,,,,,,,,,,,,space,1.8602,,,,,,,,,,,,,,,,,,,,,,,,,,,,,,,,,,,,,,,,,,,,,,,,,,,,,,,,,,,,,,,,,,,
,,,,163836,001,2024-02-07_20h01.49.687,fluency,2022.2.4,MacIntel,59.88023952,,,,,,,,,,,,,,,,,,,,,,,8,6,img/B06_08.jpg,MF,Press J if the face is MALE and K if the face is FEMALE, ,JK,,,,,,,,,,,,,,,,,,,,,,,,,,,,,,,,,,,,,,,,,,,,,,180.6867,0,5,5,63,1,109,0,0,0,0,1,98,,,,,,,,,,,,,,,,,,,,,,,,,,,,,,,,,,,,,,,,,,,,,,,,,,,,,,,,,,,,,,,,,,,,,,,,,,
,,,,163836,001,2024-02-07_20h01.49.687,fluency,2022.2.4,MacIntel,59.88023952,,,,,,,,,,,,,,,,,,,,,,,,,,,,,,,,,,,,,,,,,,,,,,,,,,,,,,,,,,,,,,,,,,,,,,,,,,,,,,,,,,0,0,0,0,1,,"[""k""]",[1.9568000000119241],1,"[""k""]",[1.9568000000119241],,,,,,,,,,,,,,,,,,,,,,,,,,,,,,,,,,,,,,,,,,,,,,,,,,,,,,,,,,,,,,,,,,,,,
,,,,163836,001,2024-02-07_20h01.49.687,fluency,2022.2.4,MacIntel,59.88023952,,,,,,,,,,,,,,,,,,,,,,,8,6,img/B06_08.jpg,MF,Press J if the face is MALE and K if the face is FEMALE, ,JK,,,,,,,,,,,,,,,,,,,,,,,,,,,,,,,,2,2.4807,,,,,,,,,,,,,,0,5,5,63,1,,,,,,,,,,,,,space,0.9553,,,,,,,,,,,,,,,,,,,,,,,,,,,,,,,,,,,,,,,,,,,,,,,,,,,,,,,,,,,,,,,,,,,
,,,,163836,001,2024-02-07_20h01.49.687,fluency,2022.2.4,MacIntel,59.88023952,,,,,,,,,,,,,,,,,,,,,,,2,9,img/B09_02.jpg,MF,Press J if the face is MALE and K if the face is FEMALE, ,JK,,,,,,,,,,,,,,,,,,,,,,,,,,,,,,,,,,,,,,,,,,,,,,189.1876,0,6,6,90,1,109,0,0,0,0,1,98,,,,,,,,,,,,,,,,,,,,,,,,,,,,,,,,,,,,,,,,,,,,,,,,,,,,,,,,,,,,,,,,,,,,,,,,,,
,,,,163836,001,2024-02-07_20h01.49.687,fluency,2022.2.4,MacIntel,59.88023952,,,,,,,,,,,,,,,,,,,,,,,,,,,,,,,,,,,,,,,,,,,,,,,,,,,,,,,,,,,,,,,,,,,,,,,,,,,,,,,,,,0,0,0,0,1,,"[""j""]",[2.0553000000119255],1,"[""j""]",[2.0553000000119255],,,,,,,,,,,,,,,,,,,,,,,,,,,,,,,,,,,,,,,,,,,,,,,,,,,,,,,,,,,,,,,,,,,,,
,,,,163836,001,2024-02-07_20h01.49.687,fluency,2022.2.4,MacIntel,59.88023952,,,,,,,,,,,,,,,,,,,,,,,2,9,img/B09_02.jpg,MF,Press J if the face is MALE and K if the face is FEMALE, ,JK,,,,,,,,,,,,,,,,,,,,,,,,,,,,,,,,2,0.9935,,,,,,,,,,,,,,0,6,6,90,1,,,,,,,,,,,,,space,0.9025,,,,,,,,,,,,,,,,,,,,,,,,,,,,,,,,,,,,,,,,,,,,,,,,,,,,,,,,,,,,,,,,,,,
,,,,163836,001,2024-02-07_20h01.49.687,fluency,2022.2.4,MacIntel,59.88023952,,,,,,,,,,,,,,,,,,,,,,,3,2,img/B02_03.jpg,MF,Press J if the face is MALE and K if the face is FEMALE, ,JK,,,,,,,,,,,,,,,,,,,,,,,,,,,,,,,,,,,,,,,,,,,,,,195.1532,0,7,7,14,1,109,0,0,0,0,1,98,,,,,,,,,,,,,,,,,,,,,,,,,,,,,,,,,,,,,,,,,,,,,,,,,,,,,,,,,,,,,,,,,,,,,,,,,,
,,,,163836,001,2024-02-07_20h01.49.687,fluency,2022.2.4,MacIntel,59.88023952,,,,,,,,,,,,,,,,,,,,,,,,,,,,,,,,,,,,,,,,,,,,,,,,,,,,,,,,,,,,,,,,,,,,,,,,,,,,,,,,,,0,0,0,0,1,,"[""j""]",[1.5231000000238453],1,"[""j""]",[1.523199999988094],,,,,,,,,,,,,,,,,,,,,,,,,,,,,,,,,,,,,,,,,,,,,,,,,,,,,,,,,,,,,,,,,,,,,
,,,,163836,001,2024-02-07_20h01.49.687,fluency,2022.2.4,MacIntel,59.88023952,,,,,,,,,,,,,,,,,,,,,,,3,2,img/B02_03.jpg,MF,Press J if the face is MALE and K if the face is FEMALE, ,JK,,,,,,,,,,,,,,,,,,,,,,,,,,,,,,,,5,2.4976,,,,,,,,,,,,,,0,7,7,14,1,,,,,,,,,,,,,space,0.8698,,,,,,,,,,,,,,,,,,,,,,,,,,,,,,,,,,,,,,,,,,,,,,,,,,,,,,,,,,,,,,,,,,,
,,,,163836,001,2024-02-07_20h01.49.687,fluency,2022.2.4,MacIntel,59.88023952,,,,,,,,,,,,,,,,,,,,,,,8,9,img/B09_08.jpg,MF,Press J if the face is MALE and K if the face is FEMALE, ,JK,,,,,,,,,,,,,,,,,,,,,,,,,,,,,,,,,,,,,,,,,,,,,,203.5714,0,8,8,96,1,109,0,0,0,0,1,98,,,,,,,,,,,,,,,,,,,,,,,,,,,,,,,,,,,,,,,,,,,,,,,,,,,,,,,,,,,,,,,,,,,,,,,,,,
,,,,163836,001,2024-02-07_20h01.49.687,fluency,2022.2.4,MacIntel,59.88023952,,,,,,,,,,,,,,,,,,,,,,,,,,,,,,,,,,,,,,,,,,,,,,,,,,,,,,,,,,,,,,,,,,,,,,,,,,,,,,,,,,0,0,0,0,1,,"[""k""]",[1.6709999999999923],1,"[""k""]",[1.6709999999999923],,,,,,,,,,,,,,,,,,,,,,,,,,,,,,,,,,,,,,,,,,,,,,,,,,,,,,,,,,,,,,,,,,,,,
,,,,163836,001,2024-02-07_20h01.49.687,fluency,2022.2.4,MacIntel,59.88023952,,,,,,,,,,,,,,,,,,,,,,,8,9,img/B09_08.jpg,MF,Press J if the face is MALE and K if the face is FEMALE, ,JK,,,,,,,,,,,,,,,,,,,,,,,,,,,,,,,,4,1.5964,,,,,,,,,,,,,,0,8,8,96,1,,,,,,,,,,,,,space,1.2312,,,,,,,,,,,,,,,,,,,,,,,,,,,,,,,,,,,,,,,,,,,,,,,,,,,,,,,,,,,,,,,,,,,
,,,,163836,001,2024-02-07_20h01.49.687,fluency,2022.2.4,MacIntel,59.88023952,,,,,,,,,,,,,,,,,,,,,,,9,6,img/B06_09.jpg,MF,Press J if the face is MALE and K if the face is FEMALE, ,JK,,,,,,,,,,,,,,,,,,,,,,,,,,,,,,,,,,,,,,,,,,,,,,211.4707,0,9,9,64,1,109,0,0,0,0,1,98,,,,,,,,,,,,,,,,,,,,,,,,,,,,,,,,,,,,,,,,,,,,,,,,,,,,,,,,,,,,,,,,,,,,,,,,,,
,,,,163836,001,2024-02-07_20h01.49.687,fluency,2022.2.4,MacIntel,59.88023952,,,,,,,,,,,,,,,,,,,,,,,,,,,,,,,,,,,,,,,,,,,,,,,,,,,,,,,,,,,,,,,,,,,,,,,,,,,,,,,,,,0,0,0,0,1,,"[""k""]",[1.637399999976168],1,"[""k""]",[1.637300000011919],,,,,,,,,,,,,,,,,,,,,,,,,,,,,,,,,,,,,,,,,,,,,,,,,,,,,,,,,,,,,,,,,,,,,
,,,,163836,001,2024-02-07_20h01.49.687,fluency,2022.2.4,MacIntel,59.88023952,,,,,,,,,,,,,,,,,,,,,,,9,6,img/B06_09.jpg,MF,Press J if the face is MALE and K if the face is FEMALE, ,JK,,,,,,,,,,,,,,,,,,,,,,,,,,,,,,,,3,2.0736,,,,,,,,,,,,,,0,9,9,64,1,,,,,,,,,,,,,space,0.8175,,,,,,,,,,,,,,,,,,,,,,,,,,,,,,,,,,,,,,,,,,,,,,,,,,,,,,,,,,,,,,,,,,,
,,,,163836,001,2024-02-07_20h01.49.687,fluency,2022.2.4,MacIntel,59.88023952,,,,,,,,,,,,,,,,,,,,,,,9,3,img/B03_09.jpg,MF,Press J if the face is MALE and K if the face is FEMALE, ,JK,,,,,,,,,,,,,,,,,,,,,,,,,,,,,,,,,,,,,,,,,,,,,,219.4207,0,10,10,31,1,109,0,0,0,0,1,98,,,,,,,,,,,,,,,,,,,,,,,,,,,,,,,,,,,,,,,,,,,,,,,,,,,,,,,,,,,,,,,,,,,,,,,,,,
,,,,163836,001,2024-02-07_20h01.49.687,fluency,2022.2.4,MacIntel,59.88023952,,,,,,,,,,,,,,,,,,,,,,,,,,,,,,,,,,,,,,,,,,,,,,,,,,,,,,,,,,,,,,,,,,,,,,,,,,,,,,,,,,0,0,0,0,1,,"[""k""]",[2.050100000023832],1,"[""k""]",[2.0500999999642318],,,,,,,,,,,,,,,,,,,,,,,,,,,,,,,,,,,,,,,,,,,,,,,,,,,,,,,,,,,,,,,,,,,,,
,,,,163836,001,2024-02-07_20h01.49.687,fluency,2022.2.4,MacIntel,59.88023952,,,,,,,,,,,,,,,,,,,,,,,9,3,img/B03_09.jpg,MF,Press J if the face is MALE and K if the face is FEMALE, ,JK,,,,,,,,,,,,,,,,,,,,,,,,,,,,,,,,4,1.3767,,,,,,,,,,,,,,0,10,10,31,1,,,,,,,,,,,,,space,1.2287,,,,,,,,,,,,,,,,,,,,,,,,,,,,,,,,,,,,,,,,,,,,,,,,,,,,,,,,,,,,,,,,,,,
,,,,163836,001,2024-02-07_20h01.49.687,fluency,2022.2.4,MacIntel,59.88023952,,,,,,,,,,,,,,,,,,,,,,,6,2,img/B02_06.jpg,MF,Press J if the face is MALE and K if the face is FEMALE, ,JK,,,,,,,,,,,,,,,,,,,,,,,,,,,,,,,,,,,,,,,,,,,,,,227.0863,0,11,11,17,1,109,0,0,0,0,1,98,,,,,,,,,,,,,,,,,,,,,,,,,,,,,,,,,,,,,,,,,,,,,,,,,,,,,,,,,,,,,,,,,,,,,,,,,,
,,,,163836,001,2024-02-07_20h01.49.687,fluency,2022.2.4,MacIntel,59.88023952,,,,,,,,,,,,,,,,,,,,,,,,,,,,,,,,,,,,,,,,,,,,,,,,,,,,,,,,,,,,,,,,,,,,,,,,,,,,,,,,,,0,0,0,0,1,,"[""k""]",[1.633499999999998],1,"[""k""]",[1.6335999999642183],,,,,,,,,,,,,,,,,,,,,,,,,,,,,,,,,,,,,,,,,,,,,,,,,,,,,,,,,,,,,,,,,,,,,
,,,,163836,001,2024-02-07_20h01.49.687,fluency,2022.2.4,MacIntel,59.88023952,,,,,,,,,,,,,,,,,,,,,,,6,2,img/B02_06.jpg,MF,Press J if the face is MALE and K if the face is FEMALE, ,JK,,,,,,,,,,,,,,,,,,,,,,,,,,,,,,,,2,1.4587,,,,,,,,,,,,,,0,11,11,17,1,,,,,,,,,,,,,space,1.6661,,,,,,,,,,,,,,,,,,,,,,,,,,,,,,,,,,,,,,,,,,,,,,,,,,,,,,,,,,,,,,,,,,,
,,,,163836,001,2024-02-07_20h01.49.687,fluency,2022.2.4,MacIntel,59.88023952,,,,,,,,,,,,,,,,,,,,,,,8,1,img/B01_08.jpg,MF,Press J if the face is MALE and K if the face is FEMALE, ,JK,,,,,,,,,,,,,,,,,,,,,,,,,,,,,,,,,,,,,,,,,,,,,,235.2537,0,12,12,8,1,109,0,0,0,0,1,98,,,,,,,,,,,,,,,,,,,,,,,,,,,,,,,,,,,,,,,,,,,,,,,,,,,,,,,,,,,,,,,,,,,,,,,,,,
,,,,163836,001,2024-02-07_20h01.49.687,fluency,2022.2.4,MacIntel,59.88023952,,,,,,,,,,,,,,,,,,,,,,,,,,,,,,,,,,,,,,,,,,,,,,,,,,,,,,,,,,,,,,,,,,,,,,,,,,,,,,,,,,0,0,0,0,1,,"[""k""]",[2.899899999976128],1,"[""k""]",[2.899899999976128],,,,,,,,,,,,,,,,,,,,,,,,,,,,,,,,,,,,,,,,,,,,,,,,,,,,,,,,,,,,,,,,,,,,,
,,,,163836,001,2024-02-07_20h01.49.687,fluency,2022.2.4,MacIntel,59.88023952,,,,,,,,,,,,,,,,,,,,,,,8,1,img/B01_08.jpg,MF,Press J if the face is MALE and K if the face is FEMALE, ,JK,,,,,,,,,,,,,,,,,,,,,,,,,,,,,,,,3,2.8787,,,,,,,,,,,,,,0,12,12,8,1,,,,,,,,,,,,,space,0.6455,,,,,,,,,,,,,,,,,,,,,,,,,,,,,,,,,,,,,,,,,,,,,,,,,,,,,,,,,,,,,,,,,,,
,,,,163836,001,2024-02-07_20h01.49.687,fluency,2022.2.4,MacIntel,59.88023952,,,,,,,,,,,,,,,,,,,,,,,10,4,img/B04_10.jpg,MF,Press J if the face is MALE and K if the face is FEMALE, ,JK,,,,,,,,,,,,,,,,,,,,,,,,,,,,,,,,,,,,,,,,,,,,,,243.8362,0,13,13,43,1,109,0,0,0,0,1,98,,,,,,,,,,,,,,,,,,,,,,,,,,,,,,,,,,,,,,,,,,,,,,,,,,,,,,,,,,,,,,,,,,,,,,,,,,
,,,,163836,001,2024-02-07_20h01.49.687,fluency,2022.2.4,MacIntel,59.88023952,,,,,,,,,,,,,,,,,,,,,,,,,,,,,,,,,,,,,,,,,,,,,,,,,,,,,,,,,,,,,,,,,,,,,,,,,,,,,,,,,,0,0,0,0,1,,"[""k""]",[1.9883999999761954],1,"[""k""]",[1.9883999999761954],,,,,,,,,,,,,,,,,,,,,,,,,,,,,,,,,,,,,,,,,,,,,,,,,,,,,,,,,,,,,,,,,,,,,
,,,,163836,001,2024-02-07_20h01.49.687,fluency,2022.2.4,MacIntel,59.88023952,,,,,,,,,,,,,,,,,,,,,,,10,4,img/B04_10.jpg,MF,Press J if the face is MALE and K if the face is FEMALE, ,JK,,,,,,,,,,,,,,,,,,,,,,,,,,,,,,,,1,0.2613,,,,,,,,,,,,,,0,13,13,43,1,,,,,,,,,,,,,space,1.0183,,,,,,,,,,,,,,,,,,,,,,,,,,,,,,,,,,,,,,,,,,,,,,,,,,,,,,,,,,,,,,,,,,,
,,,,163836,001,2024-02-07_20h01.49.687,fluency,2022.2.4,MacIntel,59.88023952,,,,,,,,,,,,,,,,,,,,,,,4,3,img/B03_04.jpg,MF,Press J if the face is MALE and K if the face is FEMALE, ,JK,,,,,,,,,,,,,,,,,,,,,,,,,,,,,,,,,,,,,,,,,,,,,,250.1537,0,14,14,26,1,109,0,0,0,0,1,98,,,,,,,,,,,,,,,,,,,,,,,,,,,,,,,,,,,,,,,,,,,,,,,,,,,,,,,,,,,,,,,,,,,,,,,,,,
,,,,163836,001,2024-02-07_20h01.49.687,fluency,2022.2.4,MacIntel,59.88023952,,,,,,,,,,,,,,,,,,,,,,,,,,,,,,,,,,,,,,,,,,,,,,,,,,,,,,,,,,,,,,,,,,,,,,,,,,,,,,,,,,0,0,0,0,1,,"[""j""]",[1.5891000000238478],1,"[""j""]",[1.589200000047697],,,,,,,,,,,,,,,,,,,,,,,,,,,,,,,,,,,,,,,,,,,,,,,,,,,,,,,,,,,,,,,,,,,,,
,,,,163836,001,2024-02-07_20h01.49.687,fluency,2022.2.4,MacIntel,59.88023952,,,,,,,,,,,,,,,,,,,,,,,4,3,img/B03_04.jpg,MF,Press J if the face is MALE and K if the face is FEMALE, ,JK,,,,,,,,,,,,,,,,,,,,,,,,,,,,,,,,4,1.8623,,,,,,,,,,,,,,0,14,14,26,1,,,,,,,,,,,,,space,0.9779,,,,,,,,,,,,,,,,,,,,,,,,,,,,,,,,,,,,,,,,,,,,,,,,,,,,,,,,,,,,,,,,,,,
,,,,163836,001,2024-02-07_20h01.49.687,fluency,2022.2.4,MacIntel,59.88023952,,,,,,,,,,,,,,,,,,,,,,,9,2,img/B02_09.jpg,MF,Press J if the face is MALE and K if the face is FEMALE, ,JK,,,,,,,,,,,,,,,,,,,,,,,,,,,,,,,,,,,,,,,,,,,,,,258.0369,0,15,15,20,1,109,0,0,0,0,1,98,,,,,,,,,,,,,,,,,,,,,,,,,,,,,,,,,,,,,,,,,,,,,,,,,,,,,,,,,,,,,,,,,,,,,,,,,,
,,,,163836,001,2024-02-07_20h01.49.687,fluency,2022.2.4,MacIntel,59.88023952,,,,,,,,,,,,,,,,,,,,,,,,,,,,,,,,,,,,,,,,,,,,,,,,,,,,,,,,,,,,,,,,,,,,,,,,,,,,,,,,,,0,0,0,0,1,,"[""k""]",[1.5050999999642158],1,"[""k""]",[1.5050999999642158],,,,,,,,,,,,,,,,,,,,,,,,,,,,,,,,,,,,,,,,,,,,,,,,,,,,,,,,,,,,,,,,,,,,,
,,,,163836,001,2024-02-07_20h01.49.687,fluency,2022.2.4,MacIntel,59.88023952,,,,,,,,,,,,,,,,,,,,,,,9,2,img/B02_09.jpg,MF,Press J if the face is MALE and K if the face is FEMALE, ,JK,,,,,,,,,,,,,,,,,,,,,,,,,,,,,,,,5,1.25,,,,,,,,,,,,,,0,15,15,20,1,,,,,,,,,,,,,space,0.9609,,,,,,,,,,,,,,,,,,,,,,,,,,,,,,,,,,,,,,,,,,,,,,,,,,,,,,,,,,,,,,,,,,,
,,,,163836,001,2024-02-07_20h01.49.687,fluency,2022.2.4,MacIntel,59.88023952,,,,,,,,,,,,,,,,,,,,,,,9,10,img/B10_09.jpg,MF,Press J if the face is MALE and K if the face is FEMALE, ,JK,,,,,,,,,,,,,,,,,,,,,,,,,,,,,,,,,,,,,,,,,,,,,,264.3034,0,16,16,108,1,109,0,0,0,0,1,98,,,,,,,,,,,,,,,,,,,,,,,,,,,,,,,,,,,,,,,,,,,,,,,,,,,,,,,,,,,,,,,,,,,,,,,,,,
,,,,163836,001,2024-02-07_20h01.49.687,fluency,2022.2.4,MacIntel,59.88023952,,,,,,,,,,,,,,,,,,,,,,,,,,,,,,,,,,,,,,,,,,,,,,,,,,,,,,,,,,,,,,,,,,,,,,,,,,,,,,,,,,0,0,0,0,1,,"[""k""]",[1.0393000000119628],1,"[""k""]",[1.0393000000119628],,,,,,,,,,,,,,,,,,,,,,,,,,,,,,,,,,,,,,,,,,,,,,,,,,,,,,,,,,,,,,,,,,,,,
,,,,163836,001,2024-02-07_20h01.49.687,fluency,2022.2.4,MacIntel,59.88023952,,,,,,,,,,,,,,,,,,,,,,,9,10,img/B10_09.jpg,MF,Press J if the face is MALE and K if the face is FEMALE, ,JK,,,,,,,,,,,,,,,,,,,,,,,,,,,,,,,,5,1.6462,,,,,,,,,,,,,,0,16,16,108,1,,,,,,,,,,,,,space,0.9174,,,,,,,,,,,,,,,,,,,,,,,,,,,,,,,,,,,,,,,,,,,,,,,,,,,,,,,,,,,,,,,,,,,
,,,,163836,001,2024-02-07_20h01.49.687,fluency,2022.2.4,MacIntel,59.88023952,,,,,,,,,,,,,,,,,,,,,,,6,10,img/B10_06.jpg,MF,Press J if the face is MALE and K if the face is FEMALE, ,JK,,,,,,,,,,,,,,,,,,,,,,,,,,,,,,,,,,,,,,,,,,,,,,271.9199,0,17,17,105,1,109,0,0,0,0,1,98,,,,,,,,,,,,,,,,,,,,,,,,,,,,,,,,,,,,,,,,,,,,,,,,,,,,,,,,,,,,,,,,,,,,,,,,,,
,,,,163836,001,2024-02-07_20h01.49.687,fluency,2022.2.4,MacIntel,59.88023952,,,,,,,,,,,,,,,,,,,,,,,,,,,,,,,,,,,,,,,,,,,,,,,,,,,,,,,,,,,,,,,,,,,,,,,,,,,,,,,,,,0,0,0,0,1,,"[""k""]",[1.3223000000119214],1,"[""k""]",[1.3221999999880722],,,,,,,,,,,,,,,,,,,,,,,,,,,,,,,,,,,,,,,,,,,,,,,,,,,,,,,,,,,,,,,,,,,,,
,,,,163836,001,2024-02-07_20h01.49.687,fluency,2022.2.4,MacIntel,59.88023952,,,,,,,,,,,,,,,,,,,,,,,6,10,img/B10_06.jpg,MF,Press J if the face is MALE and K if the face is FEMALE, ,JK,,,,,,,,,,,,,,,,,,,,,,,,,,,,,,,,5,1.1317,,,,,,,,,,,,,,0,17,17,105,1,,,,,,,,,,,,,space,0.8347,,,,,,,,,,,,,,,,,,,,,,,,,,,,,,,,,,,,,,,,,,,,,,,,,,,,,,,,,,,,,,,,,,,
,,,,163836,001,2024-02-07_20h01.49.687,fluency,2022.2.4,MacIntel,59.88023952,,,,,,,,,,,,,,,,,,,,,,,2,4,img/B04_02.jpg,MF,Press J if the face is MALE and K if the face is FEMALE, ,JK,,,,,,,,,,,,,,,,,,,,,,,,,,,,,,,,,,,,,,,,,,,,,,277.9534,0,18,18,35,1,109,0,0,0,0,1,98,,,,,,,,,,,,,,,,,,,,,,,,,,,,,,,,,,,,,,,,,,,,,,,,,,,,,,,,,,,,,,,,,,,,,,,,,,
,,,,163836,001,2024-02-07_20h01.49.687,fluency,2022.2.4,MacIntel,59.88023952,,,,,,,,,,,,,,,,,,,,,,,,,,,,,,,,,,,,,,,,,,,,,,,,,,,,,,,,,,,,,,,,,,,,,,,,,,,,,,,,,,0,0,0,0,1,,"[""j""]",[0.9828000000119346],1,"[""j""]",[0.9829000000357837],,,,,,,,,,,,,,,,,,,,,,,,,,,,,,,,,,,,,,,,,,,,,,,,,,,,,,,,,,,,,,,,,,,,,
,,,,163836,001,2024-02-07_20h01.49.687,fluency,2022.2.4,MacIntel,59.88023952,,,,,,,,,,,,,,,,,,,,,,,2,4,img/B04_02.jpg,MF,Press J if the face is MALE and K if the face is FEMALE, ,JK,,,,,,,,,,,,,,,,,,,,,,,,,,,,,,,,6,1.2833,,,,,,,,,,,,,,0,18,18,35,1,,,,,,,,,,,,,space,0.6341,,,,,,,,,,,,,,,,,,,,,,,,,,,,,,,,,,,,,,,,,,,,,,,,,,,,,,,,,,,,,,,,,,,
,,,,163836,001,2024-02-07_20h01.49.687,fluency,2022.2.4,MacIntel,59.88023952,,,,,,,,,,,,,,,,,,,,,,,10,5,img/B05_10.jpg,MF,Press J if the face is MALE and K if the face is FEMALE, ,JK,,,,,,,,,,,,,,,,,,,,,,,,,,,,,,,,,,,,,,,,,,,,,,284.9365,0,19,19,54,1,109,0,0,0,0,1,98,,,,,,,,,,,,,,,,,,,,,,,,,,,,,,,,,,,,,,,,,,,,,,,,,,,,,,,,,,,,,,,,,,,,,,,,,,
,,,,163836,001,2024-02-07_20h01.49.687,fluency,2022.2.4,MacIntel,59.88023952,,,,,,,,,,,,,,,,,,,,,,,,,,,,,,,,,,,,,,,,,,,,,,,,,,,,,,,,,,,,,,,,,,,,,,,,,,,,,,,,,,0,0,0,0,1,,"[""k""]",[0.8581999999880736],1,"[""k""]",[0.8581999999880736],,,,,,,,,,,,,,,,,,,,,,,,,,,,,,,,,,,,,,,,,,,,,,,,,,,,,,,,,,,,,,,,,,,,,
,,,,163836,001,2024-02-07_20h01.49.687,fluency,2022.2.4,MacIntel,59.88023952,,,,,,,,,,,,,,,,,,,,,,,10,5,img/B05_10.jpg,MF,Press J if the face is MALE and K if the face is FEMALE, ,JK,,,,,,,,,,,,,,,,,,,,,,,,,,,,,,,,4,1.1114,,,,,,,,,,,,,,0,19,19,54,1,,,,,,,,,,,,,space,0.6187,,,,,,,,,,,,,,,,,,,,,,,,,,,,,,,,,,,,,,,,,,,,,,,,,,,,,,,,,,,,,,,,,,,
,,,,163836,001,2024-02-07_20h01.49.687,fluency,2022.2.4,MacIntel,59.88023952,,,,,,,,,,,,,,,,,,,,,,,7,9,img/B09_07.jpg,MF,Press J if the face is MALE and K if the face is FEMALE, ,JK,,,,,,,,,,,,,,,,,,,,,,,,,,,,,,,,,,,,,,,,,,,,,,291.7365,0,20,20,95,1,109,0,0,0,0,1,98,,,,,,,,,,,,,,,,,,,,,,,,,,,,,,,,,,,,,,,,,,,,,,,,,,,,,,,,,,,,,,,,,,,,,,,,,,
,,,,163836,001,2024-02-07_20h01.49.687,fluency,2022.2.4,MacIntel,59.88023952,,,,,,,,,,,,,,,,,,,,,,,,,,,,,,,,,,,,,,,,,,,,,,,,,,,,,,,,,,,,,,,,,,,,,,,,,,,,,,,,,,0,0,0,0,1,,"[""j""]",[1.6832999999523395],1,"[""j""]",[1.6832999999523395],,,,,,,,,,,,,,,,,,,,,,,,,,,,,,,,,,,,,,,,,,,,,,,,,,,,,,,,,,,,,,,,,,,,,
,,,,163836,001,2024-02-07_20h01.49.687,fluency,2022.2.4,MacIntel,59.88023952,,,,,,,,,,,,,,,,,,,,,,,7,9,img/B09_07.jpg,MF,Press J if the face is MALE and K if the face is FEMALE, ,JK,,,,,,,,,,,,,,,,,,,,,,,,,,,,,,,,2,3.352,,,,,,,,,,,,,,0,20,20,95,1,,,,,,,,,,,,,space,0.7343,,,,,,,,,,,,,,,,,,,,,,,,,,,,,,,,,,,,,,,,,,,,,,,,,,,,,,,,,,,,,,,,,,,
,,,,163836,001,2024-02-07_20h01.49.687,fluency,2022.2.4,MacIntel,59.88023952,,,,,,,,,,,,,,,,,,,,,,,2,6,img/B06_02.jpg,MF,Press J if the face is MALE and K if the face is FEMALE, ,JK,,,,,,,,,,,,,,,,,,,,,,,,,,,,,,,,,,,,,,,,,,,,,,299.8862,0,21,21,57,1,109,0,0,0,0,1,98,,,,,,,,,,,,,,,,,,,,,,,,,,,,,,,,,,,,,,,,,,,,,,,,,,,,,,,,,,,,,,,,,,,,,,,,,,
,,,,163836,001,2024-02-07_20h01.49.687,fluency,2022.2.4,MacIntel,59.88023952,,,,,,,,,,,,,,,,,,,,,,,,,,,,,,,,,,,,,,,,,,,,,,,,,,,,,,,,,,,,,,,,,,,,,,,,,,,,,,,,,,0,0,0,0,1,,"[""j""]",[1.6873000000119305],1,"[""j""]",[1.6873000000119305],,,,,,,,,,,,,,,,,,,,,,,,,,,,,,,,,,,,,,,,,,,,,,,,,,,,,,,,,,,,,,,,,,,,,
,,,,163836,001,2024-02-07_20h01.49.687,fluency,2022.2.4,MacIntel,59.88023952,,,,,,,,,,,,,,,,,,,,,,,2,6,img/B06_02.jpg,MF,Press J if the face is MALE and K if the face is FEMALE, ,JK,,,,,,,,,,,,,,,,,,,,,,,,,,,,,,,,3,2.7497,,,,,,,,,,,,,,0,21,21,57,1,,,,,,,,,,,,,space,1.2879,,,,,,,,,,,,,,,,,,,,,,,,,,,,,,,,,,,,,,,,,,,,,,,,,,,,,,,,,,,,,,,,,,,
,,,,163836,001,2024-02-07_20h01.49.687,fluency,2022.2.4,MacIntel,59.88023952,,,,,,,,,,,,,,,,,,,,,,,0,2,img/B02_00.jpg,MF,Press J if the face is MALE and K if the face is FEMALE, ,JK,,,,,,,,,,,,,,,,,,,,,,,,,,,,,,,,,,,,,,,,,,,,,,308.97,0,22,22,11,1,109,0,0,0,0,1,98,,,,,,,,,,,,,,,,,,,,,,,,,,,,,,,,,,,,,,,,,,,,,,,,,,,,,,,,,,,,,,,,,,,,,,,,,,
,,,,163836,001,2024-02-07_20h01.49.687,fluency,2022.2.4,MacIntel,59.88023952,,,,,,,,,,,,,,,,,,,,,,,,,,,,,,,,,,,,,,,,,,,,,,,,,,,,,,,,,,,,,,,,,,,,,,,,,,,,,,,,,,0,0,0,0,1,,"[""j""]",[1.6370000000000005],1,"[""j""]",[1.6370000000000005],,,,,,,,,,,,,,,,,,,,,,,,,,,,,,,,,,,,,,,,,,,,,,,,,,,,,,,,,,,,,,,,,,,,,
,,,,163836,001,2024-02-07_20h01.49.687,fluency,2022.2.4,MacIntel,59.88023952,,,,,,,,,,,,,,,,,,,,,,,0,2,img/B02_00.jpg,MF,Press J if the face is MALE and K if the face is FEMALE, ,JK,,,,,,,,,,,,,,,,,,,,,,,,,,,,,,,,4,1.8799,,,,,,,,,,,,,,0,22,22,11,1,,,,,,,,,,,,,space,1.0832,,,,,,,,,,,,,,,,,,,,,,,,,,,,,,,,,,,,,,,,,,,,,,,,,,,,,,,,,,,,,,,,,,,
,,,,163836,001,2024-02-07_20h01.49.687,fluency,2022.2.4,MacIntel,59.88023952,,,,,,,,,,,,,,,,,,,,,,,8,4,img/B04_08.jpg,MF,Press J if the face is MALE and K if the face is FEMALE, ,JK,,,,,,,,,,,,,,,,,,,,,,,,,,,,,,,,,,,,,,,,,,,,,,317.0028,0,23,23,41,1,109,0,0,0,0,1,98,,,,,,,,,,,,,,,,,,,,,,,,,,,,,,,,,,,,,,,,,,,,,,,,,,,,,,,,,,,,,,,,,,,,,,,,,,
,,,,163836,001,2024-02-07_20h01.49.687,fluency,2022.2.4,MacIntel,59.88023952,,,,,,,,,,,,,,,,,,,,,,,,,,,,,,,,,,,,,,,,,,,,,,,,,,,,,,,,,,,,,,,,,,,,,,,,,,,,,,,,,,0,0,0,0,1,,"[""k""]",[0.9380999999642654],1,"[""k""]",[0.9380999999642654],,,,,,,,,,,,,,,,,,,,,,,,,,,,,,,,,,,,,,,,,,,,,,,,,,,,,,,,,,,,,,,,,,,,,
,,,,163836,001,2024-02-07_20h01.49.687,fluency,2022.2.4,MacIntel,59.88023952,,,,,,,,,,,,,,,,,,,,,,,8,4,img/B04_08.jpg,MF,Press J if the face is MALE and K if the face is FEMALE, ,JK,,,,,,,,,,,,,,,,,,,,,,,,,,,,,,,,2,0.7416,,,,,,,,,,,,,,0,23,23,41,1,,,,,,,,,,,,,space,1.3334,,,,,,,,,,,,,,,,,,,,,,,,,,,,,,,,,,,,,,,,,,,,,,,,,,,,,,,,,,,,,,,,,,,
,,,,163836,001,2024-02-07_20h01.49.687,fluency,2022.2.4,MacIntel,59.88023952,,,,,,,,,,,,,,,,,,,,,,,1,8,img/B08_01.jpg,MF,Press J if the face is MALE and K if the face is FEMALE, ,JK,,,,,,,,,,,,,,,,,,,,,,,,,,,,,,,,,,,,,,,,,,,,,,323.153,0,24,24,78,1,109,0,0,0,0,1,98,,,,,,,,,,,,,,,,,,,,,,,,,,,,,,,,,,,,,,,,,,,,,,,,,,,,,,,,,,,,,,,,,,,,,,,,,,
,,,,163836,001,2024-02-07_20h01.49.687,fluency,2022.2.4,MacIntel,59.88023952,,,,,,,,,,,,,,,,,,,,,,,,,,,,,,,,,,,,,,,,,,,,,,,,,,,,,,,,,,,,,,,,,,,,,,,,,,,,,,,,,,0,0,0,0,1,,"[""k""]",[1.6488999999761518],1,"[""k""]",[1.6488999999761518],,,,,,,,,,,,,,,,,,,,,,,,,,,,,,,,,,,,,,,,,,,,,,,,,,,,,,,,,,,,,,,,,,,,,
,,,,163836,001,2024-02-07_20h01.49.687,fluency,2022.2.4,MacIntel,59.88023952,,,,,,,,,,,,,,,,,,,,,,,1,8,img/B08_01.jpg,MF,Press J if the face is MALE and K if the face is FEMALE, ,JK,,,,,,,,,,,,,,,,,,,,,,,,,,,,,,,,4,2.4457,,,,,,,,,,,,,,0,24,24,78,1,,,,,,,,,,,,,space,1.9353,,,,,,,,,,,,,,,,,,,,,,,,,,,,,,,,,,,,,,,,,,,,,,,,,,,,,,,,,,,,,,,,,,,
,,,,163836,001,2024-02-07_20h01.49.687,fluency,2022.2.4,MacIntel,59.88023952,,,,,,,,,,,,,,,,,,,,,,,1,4,img/B04_01.jpg,MF,Press J if the face is MALE and K if the face is FEMALE, ,JK,,,,,,,,,,,,,,,,,,,,,,,,,,,,,,,,,,,,,,,,,,,,,,331.6028,0,25,25,34,1,109,0,0,0,0,1,98,,,,,,,,,,,,,,,,,,,,,,,,,,,,,,,,,,,,,,,,,,,,,,,,,,,,,,,,,,,,,,,,,,,,,,,,,,
,,,,163836,001,2024-02-07_20h01.49.687,fluency,2022.2.4,MacIntel,59.88023952,,,,,,,,,,,,,,,,,,,,,,,,,,,,,,,,,,,,,,,,,,,,,,,,,,,,,,,,,,,,,,,,,,,,,,,,,,,,,,,,,,0,0,0,0,1,,"[""j""]",[1.0712000000477246],1,"[""j""]",[1.0712000000477246],,,,,,,,,,,,,,,,,,,,,,,,,,,,,,,,,,,,,,,,,,,,,,,,,,,,,,,,,,,,,,,,,,,,,
,,,,163836,001,2024-02-07_20h01.49.687,fluency,2022.2.4,MacIntel,59.88023952,,,,,,,,,,,,,,,,,,,,,,,1,4,img/B04_01.jpg,MF,Press J if the face is MALE and K if the face is FEMALE, ,JK,,,,,,,,,,,,,,,,,,,,,,,,,,,,,,,,6,0.7459,,,,,,,,,,,,,,0,25,25,34,1,,,,,,,,,,,,,space,0.6003,,,,,,,,,,,,,,,,,,,,,,,,,,,,,,,,,,,,,,,,,,,,,,,,,,,,,,,,,,,,,,,,,,,
,,,,163836,001,2024-02-07_20h01.49.687,fluency,2022.2.4,MacIntel,59.88023952,,,,,,,,,,,,,,,,,,,,,,,2,2,img/B02_02.jpg,MF,Press J if the face is MALE and K if the face is FEMALE, ,JK,,,,,,,,,,,,,,,,,,,,,,,,,,,,,,,,,,,,,,,,,,,,,,337.0194,0,26,26,13,1,109,0,0,0,0,1,98,,,,,,,,,,,,,,,,,,,,,,,,,,,,,,,,,,,,,,,,,,,,,,,,,,,,,,,,,,,,,,,,,,,,,,,,,,
,,,,163836,001,2024-02-07_20h01.49.687,fluency,2022.2.4,MacIntel,59.88023952,,,,,,,,,,,,,,,,,,,,,,,,,,,,,,,,,,,,,,,,,,,,,,,,,,,,,,,,,,,,,,,,,,,,,,,,,,,,,,,,,,0,0,0,0,1,,"[""j""]",[1.6758000000119182],1,"[""j""]",[1.6758000000119182],,,,,,,,,,,,,,,,,,,,,,,,,,,,,,,,,,,,,,,,,,,,,,,,,,,,,,,,,,,,,,,,,,,,,
,,,,163836,001,2024-02-07_20h01.49.687,fluency,2022.2.4,MacIntel,59.88023952,,,,,,,,,,,,,,,,,,,,,,,2,2,img/B02_02.jpg,MF,Press J if the face is MALE and K if the face is FEMALE, ,JK,,,,,,,,,,,,,,,,,,,,,,,,,,,,,,,,4,3.1469,,,,,,,,,,,,,,0,26,26,13,1,,,,,,,,,,,,,space,1.498,,,,,,,,,,,,,,,,,,,,,,,,,,,,,,,,,,,,,,,,,,,,,,,,,,,,,,,,,,,,,,,,,,,
,,,,163836,001,2024-02-07_20h01.49.687,fluency,2022.2.4,MacIntel,59.88023952,,,,,,,,,,,,,,,,,,,,,,,1,9,img/B09_01.jpg,MF,Press J if the face is MALE and K if the face is FEMALE, ,JK,,,,,,,,,,,,,,,,,,,,,,,,,,,,,,,,,,,,,,,,,,,,,,346.7361,0,27,27,89,1,109,0,0,0,0,1,98,,,,,,,,,,,,,,,,,,,,,,,,,,,,,,,,,,,,,,,,,,,,,,,,,,,,,,,,,,,,,,,,,,,,,,,,,,
,,,,163836,001,2024-02-07_20h01.49.687,fluency,2022.2.4,MacIntel,59.88023952,,,,,,,,,,,,,,,,,,,,,,,,,,,,,,,,,,,,,,,,,,,,,,,,,,,,,,,,,,,,,,,,,,,,,,,,,,,,,,,,,,0,0,0,0,1,,"[""j""]",[1.387300000011919],1,"[""j""]",[1.387300000011919],,,,,,,,,,,,,,,,,,,,,,,,,,,,,,,,,,,,,,,,,,,,,,,,,,,,,,,,,,,,,,,,,,,,,
,,,,163836,001,2024-02-07_20h01.49.687,fluency,2022.2.4,MacIntel,59.88023952,,,,,,,,,,,,,,,,,,,,,,,1,9,img/B09_01.jpg,MF,Press J if the face is MALE and K if the face is FEMALE, ,JK,,,,,,,,,,,,,,,,,,,,,,,,,,,,,,,,3,1.6437,,,,,,,,,,,,,,0,27,27,89,1,,,,,,,,,,,,,space,0.7683,,,,,,,,,,,,,,,,,,,,,,,,,,,,,,,,,,,,,,,,,,,,,,,,,,,,,,,,,,,,,,,,,,,
,,,,163836,001,2024-02-07_20h01.49.687,fluency,2022.2.4,MacIntel,59.88023952,,,,,,,,,,,,,,,,,,,,,,,3,4,img/B04_03.jpg,MF,Press J if the face is MALE and K if the face is FEMALE, ,JK,,,,,,,,,,,,,,,,,,,,,,,,,,,,,,,,,,,,,,,,,,,,,,354.2206,0,28,28,36,1,109,0,0,0,0,1,98,,,,,,,,,,,,,,,,,,,,,,,,,,,,,,,,,,,,,,,,,,,,,,,,,,,,,,,,,,,,,,,,,,,,,,,,,,
,,,,163836,001,2024-02-07_20h01.49.687,fluency,2022.2.4,MacIntel,59.88023952,,,,,,,,,,,,,,,,,,,,,,,,,,,,,,,,,,,,,,,,,,,,,,,,,,,,,,,,,,,,,,,,,,,,,,,,,,,,,,,,,,0,0,0,0,1,,"[""j""]",[2.503900000035742],1,"[""j""]",[2.503900000035742],,,,,,,,,,,,,,,,,,,,,,,,,,,,,,,,,,,,,,,,,,,,,,,,,,,,,,,,,,,,,,,,,,,,,
,,,,163836,001,2024-02-07_20h01.49.687,fluency,2022.2.4,MacIntel,59.88023952,,,,,,,,,,,,,,,,,,,,,,,3,4,img/B04_03.jpg,MF,Press J if the face is MALE and K if the face is FEMALE, ,JK,,,,,,,,,,,,,,,,,,,,,,,,,,,,,,,,3,5.6832,,,,,,,,,,,,,,0,28,28,36,1,,,,,,,,,,,,,space,0.583,,,,,,,,,,,,,,,,,,,,,,,,,,,,,,,,,,,,,,,,,,,,,,,,,,,,,,,,,,,,,,,,,,,
,,,,163836,001,2024-02-07_20h01.49.687,fluency,2022.2.4,MacIntel,59.88023952,,,,,,,,,,,,,,,,,,,,,,,0,10,img/B10_00.jpg,MF,Press J if the face is MALE and K if the face is FEMALE, ,JK,,,,,,,,,,,,,,,,,,,,,,,,,,,,,,,,,,,,,,,,,,,,,,364.5361,0,29,29,99,1,109,0,0,0,0,1,98,,,,,,,,,,,,,,,,,,,,,,,,,,,,,,,,,,,,,,,,,,,,,,,,,,,,,,,,,,,,,,,,,,,,,,,,,,
,,,,163836,001,2024-02-07_20h01.49.687,fluency,2022.2.4,MacIntel,59.88023952,,,,,,,,,,,,,,,,,,,,,,,,,,,,,,,,,,,,,,,,,,,,,,,,,,,,,,,,,,,,,,,,,,,,,,,,,,,,,,,,,,0,0,0,0,1,,"[""j""]",[2.2216999999880613],1,"[""j""]",[2.221599999964212],,,,,,,,,,,,,,,,,,,,,,,,,,,,,,,,,,,,,,,,,,,,,,,,,,,,,,,,,,,,,,,,,,,,,
,,,,163836,001,2024-02-07_20h01.49.687,fluency,2022.2.4,MacIntel,59.88023952,,,,,,,,,,,,,,,,,,,,,,,0,10,img/B10_00.jpg,MF,Press J if the face is MALE and K if the face is FEMALE, ,JK,,,,,,,,,,,,,,,,,,,,,,,,,,,,,,,,3,0.5202,,,,,,,,,,,,,,0,29,29,99,1,,,,,,,,,,,,,space,4.5845,,,,,,,,,,,,,,,,,,,,,,,,,,,,,,,,,,,,,,,,,,,,,,,,,,,,,,,,,,,,,,,,,,,
,,,,163836,001,2024-02-07_20h01.49.687,fluency,2022.2.4,MacIntel,59.88023952,,,,,,,,,,,,,,,,,,,,,,,5,10,img/B10_05.jpg,MF,Press J if the face is MALE and K if the face is FEMALE, ,JK,,,,,,,,,,,,,,,,,,,,,,,,,,,,,,,,,,,,,,,,,,,,,,373.7025,0,30,30,104,1,109,0,0,0,0,1,98,,,,,,,,,,,,,,,,,,,,,,,,,,,,,,,,,,,,,,,,,,,,,,,,,,,,,,,,,,,,,,,,,,,,,,,,,,
,,,,163836,001,2024-02-07_20h01.49.687,fluency,2022.2.4,MacIntel,59.88023952,,,,,,,,,,,,,,,,,,,,,,,,,,,,,,,,,,,,,,,,,,,,,,,,,,,,,,,,,,,,,,,,,,,,,,,,,,,,,,,,,,0,0,0,0,1,,"[""j""]",[1.9557000000477274],1,"[""j""]",[1.9557000000477274],,,,,,,,,,,,,,,,,,,,,,,,,,,,,,,,,,,,,,,,,,,,,,,,,,,,,,,,,,,,,,,,,,,,,
,,,,163836,001,2024-02-07_20h01.49.687,fluency,2022.2.4,MacIntel,59.88023952,,,,,,,,,,,,,,,,,,,,,,,5,10,img/B10_05.jpg,MF,Press J if the face is MALE and K if the face is FEMALE, ,JK,,,,,,,,,,,,,,,,,,,,,,,,,,,,,,,,4,2.6949,,,,,,,,,,,,,,0,30,30,104,1,,,,,,,,,,,,,space,1.1284,,,,,,,,,,,,,,,,,,,,,,,,,,,,,,,,,,,,,,,,,,,,,,,,,,,,,,,,,,,,,,,,,,,
,,,,163836,001,2024-02-07_20h01.49.687,fluency,2022.2.4,MacIntel,59.88023952,,,,,,,,,,,,,,,,,,,,,,,9,1,img/B01_09.jpg,MF,Press J if the face is MALE and K if the face is FEMALE, ,JK,,,,,,,,,,,,,,,,,,,,,,,,,,,,,,,,,,,,,,,,,,,,,,382.5859,0,31,31,9,1,109,0,0,0,0,1,98,,,,,,,,,,,,,,,,,,,,,,,,,,,,,,,,,,,,,,,,,,,,,,,,,,,,,,,,,,,,,,,,,,,,,,,,,,
,,,,163836,001,2024-02-07_20h01.49.687,fluency,2022.2.4,MacIntel,59.88023952,,,,,,,,,,,,,,,,,,,,,,,,,,,,,,,,,,,,,,,,,,,,,,,,,,,,,,,,,,,,,,,,,,,,,,,,,,,,,,,,,,0,0,0,0,1,,"[""k""]",[1.4053000000118914],1,"[""k""]",[1.4053000000118914],,,,,,,,,,,,,,,,,,,,,,,,,,,,,,,,,,,,,,,,,,,,,,,,,,,,,,,,,,,,,,,,,,,,,
,,,,163836,001,2024-02-07_20h01.49.687,fluency,2022.2.4,MacIntel,59.88023952,,,,,,,,,,,,,,,,,,,,,,,9,1,img/B01_09.jpg,MF,Press J if the face is MALE and K if the face is FEMALE, ,JK,,,,,,,,,,,,,,,,,,,,,,,,,,,,,,,,4,1.6959,,,,,,,,,,,,,,0,31,31,9,1,,,,,,,,,,,,,space,1.1278,,,,,,,,,,,,,,,,,,,,,,,,,,,,,,,,,,,,,,,,,,,,,,,,,,,,,,,,,,,,,,,,,,,
,,,,163836,001,2024-02-07_20h01.49.687,fluency,2022.2.4,MacIntel,59.88023952,,,,,,,,,,,,,,,,,,,,,,,6,4,img/B04_06.jpg,MF,Press J if the face is MALE and K if the face is FEMALE, ,JK,,,,,,,,,,,,,,,,,,,,,,,,,,,,,,,,,,,,,,,,,,,,,,390.4522,0,32,32,39,1,109,0,0,0,0,1,98,,,,,,,,,,,,,,,,,,,,,,,,,,,,,,,,,,,,,,,,,,,,,,,,,,,,,,,,,,,,,,,,,,,,,,,,,,
,,,,163836,001,2024-02-07_20h01.49.687,fluency,2022.2.4,MacIntel,59.88023952,,,,,,,,,,,,,,,,,,,,,,,,,,,,,,,,,,,,,,,,,,,,,,,,,,,,,,,,,,,,,,,,,,,,,,,,,,,,,,,,,,0,0,0,0,1,,"[""j""]",[2.0391000000238364],1,"[""j""]",[2.0389999999999873],,,,,,,,,,,,,,,,,,,,,,,,,,,,,,,,,,,,,,,,,,,,,,,,,,,,,,,,,,,,,,,,,,,,,
,,,,163836,001,2024-02-07_20h01.49.687,fluency,2022.2.4,MacIntel,59.88023952,,,,,,,,,,,,,,,,,,,,,,,6,4,img/B04_06.jpg,MF,Press J if the face is MALE and K if the face is FEMALE, ,JK,,,,,,,,,,,,,,,,,,,,,,,,,,,,,,,,3,3.766,,,,,,,,,,,,,,0,32,32,39,1,,,,,,,,,,,,,space,0.7517,,,,,,,,,,,,,,,,,,,,,,,,,,,,,,,,,,,,,,,,,,,,,,,,,,,,,,,,,,,,,,,,,,,
,,,,163836,001,2024-02-07_20h01.49.687,fluency,2022.2.4,MacIntel,59.88023952,,,,,,,,,,,,,,,,,,,,,,,1,6,img/B06_01.jpg,MF,Press J if the face is MALE and K if the face is FEMALE, ,JK,,,,,,,,,,,,,,,,,,,,,,,,,,,,,,,,,,,,,,,,,,,,,,400.0355,0,33,33,56,1,109,0,0,0,0,1,98,,,,,,,,,,,,,,,,,,,,,,,,,,,,,,,,,,,,,,,,,,,,,,,,,,,,,,,,,,,,,,,,,,,,,,,,,,
,,,,163836,001,2024-02-07_20h01.49.687,fluency,2022.2.4,MacIntel,59.88023952,,,,,,,,,,,,,,,,,,,,,,,,,,,,,,,,,,,,,,,,,,,,,,,,,,,,,,,,,,,,,,,,,,,,,,,,,,,,,,,,,,0,0,0,0,1,,"[""j""]",[1.454499999999996],1,"[""j""]",[1.454499999999996],,,,,,,,,,,,,,,,,,,,,,,,,,,,,,,,,,,,,,,,,,,,,,,,,,,,,,,,,,,,,,,,,,,,,
,,,,163836,001,2024-02-07_20h01.49.687,fluency,2022.2.4,MacIntel,59.88023952,,,,,,,,,,,,,,,,,,,,,,,1,6,img/B06_01.jpg,MF,Press J if the face is MALE and K if the face is FEMALE, ,JK,,,,,,,,,,,,,,,,,,,,,,,,,,,,,,,,3,0.4174,,,,,,,,,,,,,,0,33,33,56,1,,,,,,,,,,,,,space,0.4456,,,,,,,,,,,,,,,,,,,,,,,,,,,,,,,,,,,,,,,,,,,,,,,,,,,,,,,,,,,,,,,,,,,
,,,,163836,001,2024-02-07_20h01.49.687,fluency,2022.2.4,MacIntel,59.88023952,,,,,,,,,,,,,,,,,,,,,,,10,2,img/B02_10.jpg,MF,Press J if the face is MALE and K if the face is FEMALE, ,JK,,,,,,,,,,,,,,,,,,,,,,,,,,,,,,,,,,,,,,,,,,,,,,405.9522,0,34,34,21,1,109,0,0,0,0,1,98,,,,,,,,,,,,,,,,,,,,,,,,,,,,,,,,,,,,,,,,,,,,,,,,,,,,,,,,,,,,,,,,,,,,,,,,,,
,,,,163836,001,2024-02-07_20h01.49.687,fluency,2022.2.4,MacIntel,59.88023952,,,,,,,,,,,,,,,,,,,,,,,,,,,,,,,,,,,,,,,,,,,,,,,,,,,,,,,,,,,,,,,,,,,,,,,,,,,,,,,,,,0,0,0,0,1,,"[""k""]",[1.1223999999761531],1,"[""k""]",[1.1223999999761531],,,,,,,,,,,,,,,,,,,,,,,,,,,,,,,,,,,,,,,,,,,,,,,,,,,,,,,,,,,,,,,,,,,,,
,,,,163836,001,2024-02-07_20h01.49.687,fluency,2022.2.4,MacIntel,59.88023952,,,,,,,,,,,,,,,,,,,,,,,10,2,img/B02_10.jpg,MF,Press J if the face is MALE and K if the face is FEMALE, ,JK,,,,,,,,,,,,,,,,,,,,,,,,,,,,,,,,4,2.0878,,,,,,,,,,,,,,0,34,34,21,1,,,,,,,,,,,,,space,0.861,,,,,,,,,,,,,,,,,,,,,,,,,,,,,,,,,,,,,,,,,,,,,,,,,,,,,,,,,,,,,,,,,,,
,,,,163836,001,2024-02-07_20h01.49.687,fluency,2022.2.4,MacIntel,59.88023952,,,,,,,,,,,,,,,,,,,,,,,0,8,img/B08_00.jpg,MF,Press J if the face is MALE and K if the face is FEMALE, ,JK,,,,,,,,,,,,,,,,,,,,,,,,,,,,,,,,,,,,,,,,,,,,,,412.9521,0,35,35,77,1,109,0,0,0,0,1,98,,,,,,,,,,,,,,,,,,,,,,,,,,,,,,,,,,,,,,,,,,,,,,,,,,,,,,,,,,,,,,,,,,,,,,,,,,
,,,,163836,001,2024-02-07_20h01.49.687,fluency,2022.2.4,MacIntel,59.88023952,,,,,,,,,,,,,,,,,,,,,,,,,,,,,,,,,,,,,,,,,,,,,,,,,,,,,,,,,,,,,,,,,,,,,,,,,,,,,,,,,,0,0,0,0,1,,"[""k""]",[1.5373000000118964],1,"[""k""]",[1.5373000000118964],,,,,,,,,,,,,,,,,,,,,,,,,,,,,,,,,,,,,,,,,,,,,,,,,,,,,,,,,,,,,,,,,,,,,
,,,,163836,001,2024-02-07_20h01.49.687,fluency,2022.2.4,MacIntel,59.88023952,,,,,,,,,,,,,,,,,,,,,,,0,8,img/B08_00.jpg,MF,Press J if the face is MALE and K if the face is FEMALE, ,JK,,,,,,,,,,,,,,,,,,,,,,,,,,,,,,,,3,1.3236,,,,,,,,,,,,,,0,35,35,77,1,,,,,,,,,,,,,space,0.6203,,,,,,,,,,,,,,,,,,,,,,,,,,,,,,,,,,,,,,,,,,,,,,,,,,,,,,,,,,,,,,,,,,,
,,,,163836,001,2024-02-07_20h01.49.687,fluency,2022.2.4,MacIntel,59.88023952,,,,,,,,,,,,,,,,,,,,,,,7,2,img/B02_07.jpg,MF,Press J if the face is MALE and K if the face is FEMALE, ,JK,,,,,,,,,,,,,,,,,,,,,,,,,,,,,,,,,,,,,,,,,,,,,,419.952,0,36,36,18,1,109,0,0,0,0,1,98,,,,,,,,,,,,,,,,,,,,,,,,,,,,,,,,,,,,,,,,,,,,,,,,,,,,,,,,,,,,,,,,,,,,,,,,,,
,,,,163836,001,2024-02-07_20h01.49.687,fluency,2022.2.4,MacIntel,59.88023952,,,,,,,,,,,,,,,,,,,,,,,,,,,,,,,,,,,,,,,,,,,,,,,,,,,,,,,,,,,,,,,,,,,,,,,,,,,,,,,,,,0,0,0,0,1,,"[""k""]",[2.5736000000238732],1,"[""k""]",[2.5736000000238732],,,,,,,,,,,,,,,,,,,,,,,,,,,,,,,,,,,,,,,,,,,,,,,,,,,,,,,,,,,,,,,,,,,,,
,,,,163836,001,2024-02-07_20h01.49.687,fluency,2022.2.4,MacIntel,59.88023952,,,,,,,,,,,,,,,,,,,,,,,7,2,img/B02_07.jpg,MF,Press J if the face is MALE and K if the face is FEMALE, ,JK,,,,,,,,,,,,,,,,,,,,,,,,,,,,,,,,4,2.4835,,,,,,,,,,,,,,0,36,36,18,1,,,,,,,,,,,,,space,0.6339,,,,,,,,,,,,,,,,,,,,,,,,,,,,,,,,,,,,,,,,,,,,,,,,,,,,,,,,,,,,,,,,,,,
,,,,163836,001,2024-02-07_20h01.49.687,fluency,2022.2.4,MacIntel,59.88023952,,,,,,,,,,,,,,,,,,,,,,,5,8,img/B08_05.jpg,MF,Press J if the face is MALE and K if the face is FEMALE, ,JK,,,,,,,,,,,,,,,,,,,,,,,,,,,,,,,,,,,,,,,,,,,,,,428.1521,0,37,37,82,1,109,0,0,0,0,1,98,,,,,,,,,,,,,,,,,,,,,,,,,,,,,,,,,,,,,,,,,,,,,,,,,,,,,,,,,,,,,,,,,,,,,,,,,,
,,,,163836,001,2024-02-07_20h01.49.687,fluency,2022.2.4,MacIntel,59.88023952,,,,,,,,,,,,,,,,,,,,,,,,,,,,,,,,,,,,,,,,,,,,,,,,,,,,,,,,,,,,,,,,,,,,,,,,,,,,,,,,,,0,0,0,0,1,,"[""j""]",[1.1992999999523022],1,"[""j""]",[1.199300000011931],,,,,,,,,,,,,,,,,,,,,,,,,,,,,,,,,,,,,,,,,,,,,,,,,,,,,,,,,,,,,,,,,,,,,
,,,,163836,001,2024-02-07_20h01.49.687,fluency,2022.2.4,MacIntel,59.88023952,,,,,,,,,,,,,,,,,,,,,,,5,8,img/B08_05.jpg,MF,Press J if the face is MALE and K if the face is FEMALE, ,JK,,,,,,,,,,,,,,,,,,,,,,,,,,,,,,,,2,1.6829,,,,,,,,,,,,,,0,37,37,82,1,,,,,,,,,,,,,space,0.5673,,,,,,,,,,,,,,,,,,,,,,,,,,,,,,,,,,,,,,,,,,,,,,,,,,,,,,,,,,,,,,,,,,,
,,,,163836,001,2024-02-07_20h01.49.687,fluency,2022.2.4,MacIntel,59.88023952,,,,,,,,,,,,,,,,,,,,,,,4,1,img/B01_04.jpg,MF,Press J if the face is MALE and K if the face is FEMALE, ,JK,,,,,,,,,,,,,,,,,,,,,,,,,,,,,,,,,,,,,,,,,,,,,,434.4688,0,38,38,4,1,109,0,0,0,0,1,98,,,,,,,,,,,,,,,,,,,,,,,,,,,,,,,,,,,,,,,,,,,,,,,,,,,,,,,,,,,,,,,,,,,,,,,,,,
,,,,163836,001,2024-02-07_20h01.49.687,fluency,2022.2.4,MacIntel,59.88023952,,,,,,,,,,,,,,,,,,,,,,,,,,,,,,,,,,,,,,,,,,,,,,,,,,,,,,,,,,,,,,,,,,,,,,,,,,,,,,,,,,0,0,0,0,1,,"[""j""]",[2.277100000023836],1,"[""j""]",[2.276999999999987],,,,,,,,,,,,,,,,,,,,,,,,,,,,,,,,,,,,,,,,,,,,,,,,,,,,,,,,,,,,,,,,,,,,,
,,,,163836,001,2024-02-07_20h01.49.687,fluency,2022.2.4,MacIntel,59.88023952,,,,,,,,,,,,,,,,,,,,,,,4,1,img/B01_04.jpg,MF,Press J if the face is MALE and K if the face is FEMALE, ,JK,,,,,,,,,,,,,,,,,,,,,,,,,,,,,,,,3,2.0497,,,,,,,,,,,,,,0,38,38,4,1,,,,,,,,,,,,,space,0.4841,,,,,,,,,,,,,,,,,,,,,,,,,,,,,,,,,,,,,,,,,,,,,,,,,,,,,,,,,,,,,,,,,,,
,,,,163836,001,2024-02-07_20h01.49.687,fluency,2022.2.4,MacIntel,59.88023952,,,,,,,,,,,,,,,,,,,,,,,3,1,img/B01_03.jpg,MF,Press J if the face is MALE and K if the face is FEMALE, ,JK,,,,,,,,,,,,,,,,,,,,,,,,,,,,,,,,,,,,,,,,,,,,,,441.0685,0,39,39,3,1,109,0,0,0,0,1,98,,,,,,,,,,,,,,,,,,,,,,,,,,,,,,,,,,,,,,,,,,,,,,,,,,,,,,,,,,,,,,,,,,,,,,,,,,
,,,,163836,001,2024-02-07_20h01.49.687,fluency,2022.2.4,MacIntel,59.88023952,,,,,,,,,,,,,,,,,,,,,,,,,,,,,,,,,,,,,,,,,,,,,,,,,,,,,,,,,,,,,,,,,,,,,,,,,,,,,,,,,,0,0,0,0,1,,"[""j""]",[1.0548000000119373],1,"[""j""]",[1.0548000000119373],,,,,,,,,,,,,,,,,,,,,,,,,,,,,,,,,,,,,,,,,,,,,,,,,,,,,,,,,,,,,,,,,,,,,
,,,,163836,001,2024-02-07_20h01.49.687,fluency,2022.2.4,MacIntel,59.88023952,,,,,,,,,,,,,,,,,,,,,,,3,1,img/B01_03.jpg,MF,Press J if the face is MALE and K if the face is FEMALE, ,JK,,,,,,,,,,,,,,,,,,,,,,,,,,,,,,,,3,0.3566,,,,,,,,,,,,,,0,39,39,3,1,,,,,,,,,,,,,space,0.5012,,,,,,,,,,,,,,,,,,,,,,,,,,,,,,,,,,,,,,,,,,,,,,,,,,,,,,,,,,,,,,,,,,,
,,,,163836,001,2024-02-07_20h01.49.687,fluency,2022.2.4,MacIntel,59.88023952,,,,,,,,,,,,,,,,,,,,,,,5,4,img/B04_05.jpg,MF,Press J if the face is MALE and K if the face is FEMALE, ,JK,,,,,,,,,,,,,,,,,,,,,,,,,,,,,,,,,,,,,,,,,,,,,,445.9852,0,40,40,38,1,109,0,0,0,0,1,98,,,,,,,,,,,,,,,,,,,,,,,,,,,,,,,,,,,,,,,,,,,,,,,,,,,,,,,,,,,,,,,,,,,,,,,,,,
,,,,163836,001,2024-02-07_20h01.49.687,fluency,2022.2.4,MacIntel,59.88023952,,,,,,,,,,,,,,,,,,,,,,,,,,,,,,,,,,,,,,,,,,,,,,,,,,,,,,,,,,,,,,,,,,,,,,,,,,,,,,,,,,0,0,0,0,1,,"[""j""]",[2.671300000011911],1,"[""j""]",[2.6712000000476905],,,,,,,,,,,,,,,,,,,,,,,,,,,,,,,,,,,,,,,,,,,,,,,,,,,,,,,,,,,,,,,,,,,,,
,,,,163836,001,2024-02-07_20h01.49.687,fluency,2022.2.4,MacIntel,59.88023952,,,,,,,,,,,,,,,,,,,,,,,5,4,img/B04_05.jpg,MF,Press J if the face is MALE and K if the face is FEMALE, ,JK,,,,,,,,,,,,,,,,,,,,,,,,,,,,,,,,3,4.5502,,,,,,,,,,,,,,0,40,40,38,1,,,,,,,,,,,,,space,1.4509,,,,,,,,,,,,,,,,,,,,,,,,,,,,,,,,,,,,,,,,,,,,,,,,,,,,,,,,,,,,,,,,,,,
,,,,163836,001,2024-02-07_20h01.49.687,fluency,2022.2.4,MacIntel,59.88023952,,,,,,,,,,,,,,,,,,,,,,,7,8,img/B08_07.jpg,MF,Press J if the face is MALE and K if the face is FEMALE, ,JK,,,,,,,,,,,,,,,,,,,,,,,,,,,,,,,,,,,,,,,,,,,,,,457.0686,0,41,41,84,1,109,0,0,0,0,1,98,,,,,,,,,,,,,,,,,,,,,,,,,,,,,,,,,,,,,,,,,,,,,,,,,,,,,,,,,,,,,,,,,,,,,,,,,,
,,,,163836,001,2024-02-07_20h01.49.687,fluency,2022.2.4,MacIntel,59.88023952,,,,,,,,,,,,,,,,,,,,,,,,,,,,,,,,,,,,,,,,,,,,,,,,,,,,,,,,,,,,,,,,,,,,,,,,,,,,,,,,,,0,0,0,0,1,,"[""j""]",[1.404599999964205],1,"[""j""]",[1.404599999964205],,,,,,,,,,,,,,,,,,,,,,,,,,,,,,,,,,,,,,,,,,,,,,,,,,,,,,,,,,,,,,,,,,,,,
,,,,163836,001,2024-02-07_20h01.49.687,fluency,2022.2.4,MacIntel,59.88023952,,,,,,,,,,,,,,,,,,,,,,,7,8,img/B08_07.jpg,MF,Press J if the face is MALE and K if the face is FEMALE, ,JK,,,,,,,,,,,,,,,,,,,,,,,,,,,,,,,,4,2.6273,,,,,,,,,,,,,,0,41,41,84,1,,,,,,,,,,,,,space,0.6114,,,,,,,,,,,,,,,,,,,,,,,,,,,,,,,,,,,,,,,,,,,,,,,,,,,,,,,,,,,,,,,,,,,
,,,,163836,001,2024-02-07_20h01.49.687,fluency,2022.2.4,MacIntel,59.88023952,,,,,,,,,,,,,,,,,,,,,,,0,7,img/B07_00.jpg,MF,Press J if the face is MALE and K if the face is FEMALE, ,JK,,,,,,,,,,,,,,,,,,,,,,,,,,,,,,,,,,,,,,,,,,,,,,465.3682,0,42,42,66,1,109,0,0,0,0,1,98,,,,,,,,,,,,,,,,,,,,,,,,,,,,,,,,,,,,,,,,,,,,,,,,,,,,,,,,,,,,,,,,,,,,,,,,,,
,,,,163836,001,2024-02-07_20h01.49.687,fluency,2022.2.4,MacIntel,59.88023952,,,,,,,,,,,,,,,,,,,,,,,,,,,,,,,,,,,,,,,,,,,,,,,,,,,,,,,,,,,,,,,,,,,,,,,,,,,,,,,,,,0,0,0,0,1,,"[""j""]",[1.703199999988044],1,"[""j""]",[1.703199999988044],,,,,,,,,,,,,,,,,,,,,,,,,,,,,,,,,,,,,,,,,,,,,,,,,,,,,,,,,,,,,,,,,,,,,
,,,,163836,001,2024-02-07_20h01.49.687,fluency,2022.2.4,MacIntel,59.88023952,,,,,,,,,,,,,,,,,,,,,,,0,7,img/B07_00.jpg,MF,Press J if the face is MALE and K if the face is FEMALE, ,JK,,,,,,,,,,,,,,,,,,,,,,,,,,,,,,,,7,3.1448,,,,,,,,,,,,,,0,42,42,66,1,,,,,,,,,,,,,space,0.5888,,,,,,,,,,,,,,,,,,,,,,,,,,,,,,,,,,,,,,,,,,,,,,,,,,,,,,,,,,,,,,,,,,,
,,,,163836,001,2024-02-07_20h01.49.687,fluency,2022.2.4,MacIntel,59.88023952,,,,,,,,,,,,,,,,,,,,,,,4,6,img/B06_04.jpg,MF,Press J if the face is MALE and K if the face is FEMALE, ,JK,,,,,,,,,,,,,,,,,,,,,,,,,,,,,,,,,,,,,,,,,,,,,,474.1681,0,43,43,59,1,109,0,0,0,0,1,98,,,,,,,,,,,,,,,,,,,,,,,,,,,,,,,,,,,,,,,,,,,,,,,,,,,,,,,,,,,,,,,,,,,,,,,,,,
,,,,163836,001,2024-02-07_20h01.49.687,fluency,2022.2.4,MacIntel,59.88023952,,,,,,,,,,,,,,,,,,,,,,,,,,,,,,,,,,,,,,,,,,,,,,,,,,,,,,,,,,,,,,,,,,,,,,,,,,,,,,,,,,0,0,0,0,1,,"[""j""]",[0.77230000001191],1,"[""j""]",[0.7724000000357591],,,,,,,,,,,,,,,,,,,,,,,,,,,,,,,,,,,,,,,,,,,,,,,,,,,,,,,,,,,,,,,,,,,,,
,,,,163836,001,2024-02-07_20h01.49.687,fluency,2022.2.4,MacIntel,59.88023952,,,,,,,,,,,,,,,,,,,,,,,4,6,img/B06_04.jpg,MF,Press J if the face is MALE and K if the face is FEMALE, ,JK,,,,,,,,,,,,,,,,,,,,,,,,,,,,,,,,3,0.3788,,,,,,,,,,,,,,0,43,43,59,1,,,,,,,,,,,,,space,0.8124,,,,,,,,,,,,,,,,,,,,,,,,,,,,,,,,,,,,,,,,,,,,,,,,,,,,,,,,,,,,,,,,,,,
,,,,163836,001,2024-02-07_20h01.49.687,fluency,2022.2.4,MacIntel,59.88023952,,,,,,,,,,,,,,,,,,,,,,,0,4,img/B04_00.jpg,MF,Press J if the face is MALE and K if the face is FEMALE, ,JK,,,,,,,,,,,,,,,,,,,,,,,,,,,,,,,,,,,,,,,,,,,,,,480.4014,0,44,44,33,1,109,0,0,0,0,1,98,,,,,,,,,,,,,,,,,,,,,,,,,,,,,,,,,,,,,,,,,,,,,,,,,,,,,,,,,,,,,,,,,,,,,,,,,,
,,,,163836,001,2024-02-07_20h01.49.687,fluency,2022.2.4,MacIntel,59.88023952,,,,,,,,,,,,,,,,,,,,,,,,,,,,,,,,,,,,,,,,,,,,,,,,,,,,,,,,,,,,,,,,,,,,,,,,,,,,,,,,,,0,0,0,0,1,,"[""j""]",[0.9710000000000036],1,"[""j""]",[0.971099999964224],,,,,,,,,,,,,,,,,,,,,,,,,,,,,,,,,,,,,,,,,,,,,,,,,,,,,,,,,,,,,,,,,,,,,
,,,,163836,001,2024-02-07_20h01.49.687,fluency,2022.2.4,MacIntel,59.88023952,,,,,,,,,,,,,,,,,,,,,,,0,4,img/B04_00.jpg,MF,Press J if the face is MALE and K if the face is FEMALE, ,JK,,,,,,,,,,,,,,,,,,,,,,,,,,,,,,,,5,0.3346,,,,,,,,,,,,,,0,44,44,33,1,,,,,,,,,,,,,space,0.3832,,,,,,,,,,,,,,,,,,,,,,,,,,,,,,,,,,,,,,,,,,,,,,,,,,,,,,,,,,,,,,,,,,,
,,,,163836,001,2024-02-07_20h01.49.687,fluency,2022.2.4,MacIntel,59.88023952,,,,,,,,,,,,,,,,,,,,,,,9,7,img/B07_09.jpg,MF,Press J if the face is MALE and K if the face is FEMALE, ,JK,,,,,,,,,,,,,,,,,,,,,,,,,,,,,,,,,,,,,,,,,,,,,,486.1841,0,45,45,75,1,109,0,0,0,0,1,98,,,,,,,,,,,,,,,,,,,,,,,,,,,,,,,,,,,,,,,,,,,,,,,,,,,,,,,,,,,,,,,,,,,,,,,,,,
,,,,163836,001,2024-02-07_20h01.49.687,fluency,2022.2.4,MacIntel,59.88023952,,,,,,,,,,,,,,,,,,,,,,,,,,,,,,,,,,,,,,,,,,,,,,,,,,,,,,,,,,,,,,,,,,,,,,,,,,,,,,,,,,0,0,0,0,1,,"[""k""]",[1.7387999999523345],1,"[""k""]",[1.7387999999523345],,,,,,,,,,,,,,,,,,,,,,,,,,,,,,,,,,,,,,,,,,,,,,,,,,,,,,,,,,,,,,,,,,,,,
,,,,163836,001,2024-02-07_20h01.49.687,fluency,2022.2.4,MacIntel,59.88023952,,,,,,,,,,,,,,,,,,,,,,,9,7,img/B07_09.jpg,MF,Press J if the face is MALE and K if the face is FEMALE, ,JK,,,,,,,,,,,,,,,,,,,,,,,,,,,,,,,,4,2.353,,,,,,,,,,,,,,0,45,45,75,1,,,,,,,,,,,,,space,0.8709,,,,,,,,,,,,,,,,,,,,,,,,,,,,,,,,,,,,,,,,,,,,,,,,,,,,,,,,,,,,,,,,,,,
,,,,163836,001,2024-02-07_20h01.49.687,fluency,2022.2.4,MacIntel,59.88023952,,,,,,,,,,,,,,,,,,,,,,,10,3,img/B03_10.jpg,MF,Press J if the face is MALE and K if the face is FEMALE, ,JK,,,,,,,,,,,,,,,,,,,,,,,,,,,,,,,,,,,,,,,,,,,,,,494.4513,0,46,46,32,1,109,0,0,0,0,1,98,,,,,,,,,,,,,,,,,,,,,,,,,,,,,,,,,,,,,,,,,,,,,,,,,,,,,,,,,,,,,,,,,,,,,,,,,,
,,,,163836,001,2024-02-07_20h01.49.687,fluency,2022.2.4,MacIntel,59.88023952,,,,,,,,,,,,,,,,,,,,,,,,,,,,,,,,,,,,,,,,,,,,,,,,,,,,,,,,,,,,,,,,,,,,,,,,,,,,,,,,,,0,0,0,0,1,,"[""k""]",[0.9728000000119437],1,"[""k""]",[0.9728000000119437],,,,,,,,,,,,,,,,,,,,,,,,,,,,,,,,,,,,,,,,,,,,,,,,,,,,,,,,,,,,,,,,,,,,,
,,,,163836,001,2024-02-07_20h01.49.687,fluency,2022.2.4,MacIntel,59.88023952,,,,,,,,,,,,,,,,,,,,,,,10,3,img/B03_10.jpg,MF,Press J if the face is MALE and K if the face is FEMALE, ,JK,,,,,,,,,,,,,,,,,,,,,,,,,,,,,,,,4,2.2988,,,,,,,,,,,,,,0,46,46,32,1,,,,,,,,,,,,,space,0.6011,,,,,,,,,,,,,,,,,,,,,,,,,,,,,,,,,,,,,,,,,,,,,,,,,,,,,,,,,,,,,,,,,,,
,,,,163836,001,2024-02-07_20h01.49.687,fluency,2022.2.4,MacIntel,59.88023952,,,,,,,,,,,,,,,,,,,,,,,1,1,img/B01_01.jpg,MF,Press J if the face is MALE and K if the face is FEMALE, ,JK,,,,,,,,,,,,,,,,,,,,,,,,,,,,,,,,,,,,,,,,,,,,,,501.4179,0,47,47,1,1,109,0,0,0,0,1,98,,,,,,,,,,,,,,,,,,,,,,,,,,,,,,,,,,,,,,,,,,,,,,,,,,,,,,,,,,,,,,,,,,,,,,,,,,
,,,,163836,001,2024-02-07_20h01.49.687,fluency,2022.2.4,MacIntel,59.88023952,,,,,,,,,,,,,,,,,,,,,,,,,,,,,,,,,,,,,,,,,,,,,,,,,,,,,,,,,,,,,,,,,,,,,,,,,,,,,,,,,,0,0,0,0,1,,"[""j""]",[1.3486000000237937],1,"[""j""]",[1.3486999999880709],,,,,,,,,,,,,,,,,,,,,,,,,,,,,,,,,,,,,,,,,,,,,,,,,,,,,,,,,,,,,,,,,,,,,
,,,,163836,001,2024-02-07_20h01.49.687,fluency,2022.2.4,MacIntel,59.88023952,,,,,,,,,,,,,,,,,,,,,,,1,1,img/B01_01.jpg,MF,Press J if the face is MALE and K if the face is FEMALE, ,JK,,,,,,,,,,,,,,,,,,,,,,,,,,,,,,,,5,1.6943,,,,,,,,,,,,,,0,47,47,1,1,,,,,,,,,,,,,space,0.4346,,,,,,,,,,,,,,,,,,,,,,,,,,,,,,,,,,,,,,,,,,,,,,,,,,,,,,,,,,,,,,,,,,,
,,,,163836,001,2024-02-07_20h01.49.687,fluency,2022.2.4,MacIntel,59.88023952,,,,,,,,,,,,,,,,,,,,,,,6,8,img/B08_06.jpg,MF,Press J if the face is MALE and K if the face is FEMALE, ,JK,,,,,,,,,,,,,,,,,,,,,,,,,,,,,,,,,,,,,,,,,,,,,,507.6178,0,48,48,83,1,109,0,0,0,0,1,98,,,,,,,,,,,,,,,,,,,,,,,,,,,,,,,,,,,,,,,,,,,,,,,,,,,,,,,,,,,,,,,,,,,,,,,,,,
,,,,163836,001,2024-02-07_20h01.49.687,fluency,2022.2.4,MacIntel,59.88023952,,,,,,,,,,,,,,,,,,,,,,,,,,,,,,,,,,,,,,,,,,,,,,,,,,,,,,,,,,,,,,,,,,,,,,,,,,,,,,,,,,0,0,0,0,1,,"[""j""]",[2.803400000035822],1,"[""j""]",[2.803400000035822],,,,,,,,,,,,,,,,,,,,,,,,,,,,,,,,,,,,,,,,,,,,,,,,,,,,,,,,,,,,,,,,,,,,,
,,,,163836,001,2024-02-07_20h01.49.687,fluency,2022.2.4,MacIntel,59.88023952,,,,,,,,,,,,,,,,,,,,,,,6,8,img/B08_06.jpg,MF,Press J if the face is MALE and K if the face is FEMALE, ,JK,,,,,,,,,,,,,,,,,,,,,,,,,,,,,,,,3,2.1209,,,,,,,,,,,,,,0,48,48,83,1,,,,,,,,,,,,,space,0.3205,,,,,,,,,,,,,,,,,,,,,,,,,,,,,,,,,,,,,,,,,,,,,,,,,,,,,,,,,,,,,,,,,,,
,,,,163836,001,2024-02-07_20h01.49.687,fluency,2022.2.4,MacIntel,59.88023952,,,,,,,,,,,,,,,,,,,,,,,5,1,img/B01_05.jpg,MF,Press J if the face is MALE and K if the face is FEMALE, ,JK,,,,,,,,,,,,,,,,,,,,,,,,,,,,,,,,,,,,,,,,,,,,,,514.1176,0,49,49,5,1,109,0,0,0,0,1,98,,,,,,,,,,,,,,,,,,,,,,,,,,,,,,,,,,,,,,,,,,,,,,,,,,,,,,,,,,,,,,,,,,,,,,,,,,
,,,,163836,001,2024-02-07_20h01.49.687,fluency,2022.2.4,MacIntel,59.88023952,,,,,,,,,,,,,,,,,,,,,,,,,,,,,,,,,,,,,,,,,,,,,,,,,,,,,,,,,,,,,,,,,,,,,,,,,,,,,,,,,,0,0,0,0,1,,"[""j""]",[1.3549999999999045],1,"[""j""]",[1.3549999999999045],,,,,,,,,,,,,,,,,,,,,,,,,,,,,,,,,,,,,,,,,,,,,,,,,,,,,,,,,,,,,,,,,,,,,
,,,,163836,001,2024-02-07_20h01.49.687,fluency,2022.2.4,MacIntel,59.88023952,,,,,,,,,,,,,,,,,,,,,,,5,1,img/B01_05.jpg,MF,Press J if the face is MALE and K if the face is FEMALE, ,JK,,,,,,,,,,,,,,,,,,,,,,,,,,,,,,,,4,2.6034,,,,,,,,,,,,,,0,49,49,5,1,,,,,,,,,,,,,space,0.6625,,,,,,,,,,,,,,,,,,,,,,,,,,,,,,,,,,,,,,,,,,,,,,,,,,,,,,,,,,,,,,,,,,,
,,,,163836,001,2024-02-07_20h01.49.687,fluency,2022.2.4,MacIntel,59.88023952,,,,,,,,,,,,,,,,,,,,,,,4,2,img/B02_04.jpg,MF,Press J if the face is MALE and K if the face is FEMALE, ,JK,,,,,,,,,,,,,,,,,,,,,,,,,,,,,,,,,,,,,,,,,,,,,,521.4334,0,50,50,15,1,109,0,0,0,0,1,98,,,,,,,,,,,,,,,,,,,,,,,,,,,,,,,,,,,,,,,,,,,,,,,,,,,,,,,,,,,,,,,,,,,,,,,,,,
,,,,163836,001,2024-02-07_20h01.49.687,fluency,2022.2.4,MacIntel,59.88023952,,,,,,,,,,,,,,,,,,,,,,,,,,,,,,,,,,,,,,,,,,,,,,,,,,,,,,,,,,,,,,,,,,,,,,,,,,,,,,,,,,0,0,0,0,1,,"[""j""]",[1.8668999999761127],1,"[""j""]",[1.8668999999761127],,,,,,,,,,,,,,,,,,,,,,,,,,,,,,,,,,,,,,,,,,,,,,,,,,,,,,,,,,,,,,,,,,,,,
,,,,163836,001,2024-02-07_20h01.49.687,fluency,2022.2.4,MacIntel,59.88023952,,,,,,,,,,,,,,,,,,,,,,,4,2,img/B02_04.jpg,MF,Press J if the face is MALE and K if the face is FEMALE, ,JK,,,,,,,,,,,,,,,,,,,,,,,,,,,,,,,,5,2.0279,,,,,,,,,,,,,,0,50,50,15,1,,,,,,,,,,,,,space,0.4272,,,,,,,,,,,,,,,,,,,,,,,,,,,,,,,,,,,,,,,,,,,,,,,,,,,,,,,,,,,,,,,,,,,
,,,,163836,001,2024-02-07_20h01.49.687,fluency,2022.2.4,MacIntel,59.88023952,,,,,,,,,,,,,,,,,,,,,,,3,8,img/B08_03.jpg,MF,Press J if the face is MALE and K if the face is FEMALE, ,JK,,,,,,,,,,,,,,,,,,,,,,,,,,,,,,,,,,,,,,,,,,,,,,528.9338,0,51,51,80,1,109,0,0,0,0,1,98,,,,,,,,,,,,,,,,,,,,,,,,,,,,,,,,,,,,,,,,,,,,,,,,,,,,,,,,,,,,,,,,,,,,,,,,,,
,,,,163836,001,2024-02-07_20h01.49.687,fluency,2022.2.4,MacIntel,59.88023952,,,,,,,,,,,,,,,,,,,,,,,,,,,,,,,,,,,,,,,,,,,,,,,,,,,,,,,,,,,,,,,,,,,,,,,,,,,,,,,,,,0,0,0,0,1,,"[""j""]",[2.6380000000000337],1,"[""j""]",[2.6380000000000337],,,,,,,,,,,,,,,,,,,,,,,,,,,,,,,,,,,,,,,,,,,,,,,,,,,,,,,,,,,,,,,,,,,,,
,,,,163836,001,2024-02-07_20h01.49.687,fluency,2022.2.4,MacIntel,59.88023952,,,,,,,,,,,,,,,,,,,,,,,3,8,img/B08_03.jpg,MF,Press J if the face is MALE and K if the face is FEMALE, ,JK,,,,,,,,,,,,,,,,,,,,,,,,,,,,,,,,4,2.5657,,,,,,,,,,,,,,0,51,51,80,1,,,,,,,,,,,,,space,0.6901,,,,,,,,,,,,,,,,,,,,,,,,,,,,,,,,,,,,,,,,,,,,,,,,,,,,,,,,,,,,,,,,,,,
,,,,163836,001,2024-02-07_20h01.49.687,fluency,2022.2.4,MacIntel,59.88023952,,,,,,,,,,,,,,,,,,,,,,,10,8,img/B08_10.jpg,MF,Press J if the face is MALE and K if the face is FEMALE, ,JK,,,,,,,,,,,,,,,,,,,,,,,,,,,,,,,,,,,,,,,,,,,,,,536.234,0,52,52,87,1,109,0,0,0,0,1,98,,,,,,,,,,,,,,,,,,,,,,,,,,,,,,,,,,,,,,,,,,,,,,,,,,,,,,,,,,,,,,,,,,,,,,,,,,
,,,,163836,001,2024-02-07_20h01.49.687,fluency,2022.2.4,MacIntel,59.88023952,,,,,,,,,,,,,,,,,,,,,,,,,,,,,,,,,,,,,,,,,,,,,,,,,,,,,,,,,,,,,,,,,,,,,,,,,,,,,,,,,,0,0,0,0,1,,"[""j""]",[1.4719000000358164],1,"[""j""]",[1.4718999999761309],,,,,,,,,,,,,,,,,,,,,,,,,,,,,,,,,,,,,,,,,,,,,,,,,,,,,,,,,,,,,,,,,,,,,
,,,,163836,001,2024-02-07_20h01.49.687,fluency,2022.2.4,MacIntel,59.88023952,,,,,,,,,,,,,,,,,,,,,,,10,8,img/B08_10.jpg,MF,Press J if the face is MALE and K if the face is FEMALE, ,JK,,,,,,,,,,,,,,,,,,,,,,,,,,,,,,,,3,0.2663,,,,,,,,,,,,,,0,52,52,87,1,,,,,,,,,,,,,space,0.1849,,,,,,,,,,,,,,,,,,,,,,,,,,,,,,,,,,,,,,,,,,,,,,,,,,,,,,,,,,,,,,,,,,,
,,,,163836,001,2024-02-07_20h01.49.687,fluency,2022.2.4,MacIntel,59.88023952,,,,,,,,,,,,,,,,,,,,,,,6,3,img/B03_06.jpg,MF,Press J if the face is MALE and K if the face is FEMALE, ,JK,,,,,,,,,,,,,,,,,,,,,,,,,,,,,,,,,,,,,,,,,,,,,,540.751,0,53,53,28,1,109,0,0,0,0,1,98,,,,,,,,,,,,,,,,,,,,,,,,,,,,,,,,,,,,,,,,,,,,,,,,,,,,,,,,,,,,,,,,,,,,,,,,,,
,,,,163836,001,2024-02-07_20h01.49.687,fluency,2022.2.4,MacIntel,59.88023952,,,,,,,,,,,,,,,,,,,,,,,,,,,,,,,,,,,,,,,,,,,,,,,,,,,,,,,,,,,,,,,,,,,,,,,,,,,,,,,,,,0,0,0,0,1,,"[""j""]",[2.320500000000038],1,"[""j""]",[2.3206000000238873],,,,,,,,,,,,,,,,,,,,,,,,,,,,,,,,,,,,,,,,,,,,,,,,,,,,,,,,,,,,,,,,,,,,,
,,,,163836,001,2024-02-07_20h01.49.687,fluency,2022.2.4,MacIntel,59.88023952,,,,,,,,,,,,,,,,,,,,,,,6,3,img/B03_06.jpg,MF,Press J if the face is MALE and K if the face is FEMALE, ,JK,,,,,,,,,,,,,,,,,,,,,,,,,,,,,,,,3,3.0332,,,,,,,,,,,,,,0,53,53,28,1,,,,,,,,,,,,,space,0.6618,,,,,,,,,,,,,,,,,,,,,,,,,,,,,,,,,,,,,,,,,,,,,,,,,,,,,,,,,,,,,,,,,,,
,,,,163836,001,2024-02-07_20h01.49.687,fluency,2022.2.4,MacIntel,59.88023952,,,,,,,,,,,,,,,,,,,,,,,10,9,img/B09_10.jpg,MF,Press J if the face is MALE and K if the face is FEMALE, ,JK,,,,,,,,,,,,,,,,,,,,,,,,,,,,,,,,,,,,,,,,,,,,,,548.5008,0,54,54,98,1,109,0,0,0,0,1,98,,,,,,,,,,,,,,,,,,,,,,,,,,,,,,,,,,,,,,,,,,,,,,,,,,,,,,,,,,,,,,,,,,,,,,,,,,
,,,,163836,001,2024-02-07_20h01.49.687,fluency,2022.2.4,MacIntel,59.88023952,,,,,,,,,,,,,,,,,,,,,,,,,,,,,,,,,,,,,,,,,,,,,,,,,,,,,,,,,,,,,,,,,,,,,,,,,,,,,,,,,,0,0,0,0,1,,"[""k""]",[1.8748000000119873],1,"[""k""]",[1.8748000000119873],,,,,,,,,,,,,,,,,,,,,,,,,,,,,,,,,,,,,,,,,,,,,,,,,,,,,,,,,,,,,,,,,,,,,
,,,,163836,001,2024-02-07_20h01.49.687,fluency,2022.2.4,MacIntel,59.88023952,,,,,,,,,,,,,,,,,,,,,,,10,9,img/B09_10.jpg,MF,Press J if the face is MALE and K if the face is FEMALE, ,JK,,,,,,,,,,,,,,,,,,,,,,,,,,,,,,,,6,1.8848,,,,,,,,,,,,,,0,54,54,98,1,,,,,,,,,,,,,space,0.5006,,,,,,,,,,,,,,,,,,,,,,,,,,,,,,,,,,,,,,,,,,,,,,,,,,,,,,,,,,,,,,,,,,,
,,,,163836,001,2024-02-07_20h01.49.687,fluency,2022.2.4,MacIntel,59.88023952,,,,,,,,,,,,,,,,,,,,,,,4,7,img/B07_04.jpg,MF,Press J if the face is MALE and K if the face is FEMALE, ,JK,,,,,,,,,,,,,,,,,,,,,,,,,,,,,,,,,,,,,,,,,,,,,,554.9673,0,55,55,70,1,109,0,0,0,0,1,98,,,,,,,,,,,,,,,,,,,,,,,,,,,,,,,,,,,,,,,,,,,,,,,,,,,,,,,,,,,,,,,,,,,,,,,,,,
,,,,163836,001,2024-02-07_20h01.49.687,fluency,2022.2.4,MacIntel,59.88023952,,,,,,,,,,,,,,,,,,,,,,,,,,,,,,,,,,,,,,,,,,,,,,,,,,,,,,,,,,,,,,,,,,,,,,,,,,,,,,,,,,0,0,0,0,1,,"[""j""]",[1.7428000000119255],1,"[""j""]",[1.7428000000119255],,,,,,,,,,,,,,,,,,,,,,,,,,,,,,,,,,,,,,,,,,,,,,,,,,,,,,,,,,,,,,,,,,,,,
,,,,163836,001,2024-02-07_20h01.49.687,fluency,2022.2.4,MacIntel,59.88023952,,,,,,,,,,,,,,,,,,,,,,,4,7,img/B07_04.jpg,MF,Press J if the face is MALE and K if the face is FEMALE, ,JK,,,,,,,,,,,,,,,,,,,,,,,,,,,,,,,,5,1.7622,,,,,,,,,,,,,,0,55,55,70,1,,,,,,,,,,,,,space,1.1202,,,,,,,,,,,,,,,,,,,,,,,,,,,,,,,,,,,,,,,,,,,,,,,,,,,,,,,,,,,,,,,,,,,
,,,,163836,001,2024-02-07_20h01.49.687,fluency,2022.2.4,MacIntel,59.88023952,,,,,,,,,,,,,,,,,,,,,,,2,3,img/B03_02.jpg,MF,Press J if the face is MALE and K if the face is FEMALE, ,JK,,,,,,,,,,,,,,,,,,,,,,,,,,,,,,,,,,,,,,,,,,,,,,561.9173,0,56,56,24,1,109,0,0,0,0,1,98,,,,,,,,,,,,,,,,,,,,,,,,,,,,,,,,,,,,,,,,,,,,,,,,,,,,,,,,,,,,,,,,,,,,,,,,,,
,,,,163836,001,2024-02-07_20h01.49.687,fluency,2022.2.4,MacIntel,59.88023952,,,,,,,,,,,,,,,,,,,,,,,,,,,,,,,,,,,,,,,,,,,,,,,,,,,,,,,,,,,,,,,,,,,,,,,,,,,,,,,,,,0,0,0,0,1,,"[""j""]",[1.0883999999762182],1,"[""j""]",[1.0883999999762182],,,,,,,,,,,,,,,,,,,,,,,,,,,,,,,,,,,,,,,,,,,,,,,,,,,,,,,,,,,,,,,,,,,,,
,,,,163836,001,2024-02-07_20h01.49.687,fluency,2022.2.4,MacIntel,59.88023952,,,,,,,,,,,,,,,,,,,,,,,2,3,img/B03_02.jpg,MF,Press J if the face is MALE and K if the face is FEMALE, ,JK,,,,,,,,,,,,,,,,,,,,,,,,,,,,,,,,7,1.452,,,,,,,,,,,,,,0,56,56,24,1,,,,,,,,,,,,,space,0.5005,,,,,,,,,,,,,,,,,,,,,,,,,,,,,,,,,,,,,,,,,,,,,,,,,,,,,,,,,,,,,,,,,,,
,,,,163836,001,2024-02-07_20h01.49.687,fluency,2022.2.4,MacIntel,59.88023952,,,,,,,,,,,,,,,,,,,,,,,8,8,img/B08_08.jpg,MF,Press J if the face is MALE and K if the face is FEMALE, ,JK,,,,,,,,,,,,,,,,,,,,,,,,,,,,,,,,,,,,,,,,,,,,,,568.9336,0,57,57,85,1,109,0,0,0,0,1,98,,,,,,,,,,,,,,,,,,,,,,,,,,,,,,,,,,,,,,,,,,,,,,,,,,,,,,,,,,,,,,,,,,,,,,,,,,
,,,,163836,001,2024-02-07_20h01.49.687,fluency,2022.2.4,MacIntel,59.88023952,,,,,,,,,,,,,,,,,,,,,,,,,,,,,,,,,,,,,,,,,,,,,,,,,,,,,,,,,,,,,,,,,,,,,,,,,,,,,,,,,,0,0,0,0,1,,"[""j""]",[1.0389999999999873],1,"[""j""]",[1.0389999999999873],,,,,,,,,,,,,,,,,,,,,,,,,,,,,,,,,,,,,,,,,,,,,,,,,,,,,,,,,,,,,,,,,,,,,
,,,,163836,001,2024-02-07_20h01.49.687,fluency,2022.2.4,MacIntel,59.88023952,,,,,,,,,,,,,,,,,,,,,,,8,8,img/B08_08.jpg,MF,Press J if the face is MALE and K if the face is FEMALE, ,JK,,,,,,,,,,,,,,,,,,,,,,,,,,,,,,,,4,1.3603,,,,,,,,,,,,,,0,57,57,85,1,,,,,,,,,,,,,space,0.6206,,,,,,,,,,,,,,,,,,,,,,,,,,,,,,,,,,,,,,,,,,,,,,,,,,,,,,,,,,,,,,,,,,,
,,,,163836,001,2024-02-07_20h01.49.687,fluency,2022.2.4,MacIntel,59.88023952,,,,,,,,,,,,,,,,,,,,,,,9,5,img/B05_09.jpg,MF,Press J if the face is MALE and K if the face is FEMALE, ,JK,,,,,,,,,,,,,,,,,,,,,,,,,,,,,,,,,,,,,,,,,,,,,,574.967,0,58,58,53,1,109,0,0,0,0,1,98,,,,,,,,,,,,,,,,,,,,,,,,,,,,,,,,,,,,,,,,,,,,,,,,,,,,,,,,,,,,,,,,,,,,,,,,,,
,,,,163836,001,2024-02-07_20h01.49.687,fluency,2022.2.4,MacIntel,59.88023952,,,,,,,,,,,,,,,,,,,,,,,,,,,,,,,,,,,,,,,,,,,,,,,,,,,,,,,,,,,,,,,,,,,,,,,,,,,,,,,,,,0,0,0,0,1,,"[""k""]",[1.1382999999523236],1,"[""k""]",[1.1382999999523236],,,,,,,,,,,,,,,,,,,,,,,,,,,,,,,,,,,,,,,,,,,,,,,,,,,,,,,,,,,,,,,,,,,,,
,,,,163836,001,2024-02-07_20h01.49.687,fluency,2022.2.4,MacIntel,59.88023952,,,,,,,,,,,,,,,,,,,,,,,9,5,img/B05_09.jpg,MF,Press J if the face is MALE and K if the face is FEMALE, ,JK,,,,,,,,,,,,,,,,,,,,,,,,,,,,,,,,5,1.5719,,,,,,,,,,,,,,0,58,58,53,1,,,,,,,,,,,,,space,0.52,,,,,,,,,,,,,,,,,,,,,,,,,,,,,,,,,,,,,,,,,,,,,,,,,,,,,,,,,,,,,,,,,,,
,,,,163836,001,2024-02-07_20h01.49.687,fluency,2022.2.4,MacIntel,59.88023952,,,,,,,,,,,,,,,,,,,,,,,5,3,img/B03_05.jpg,MF,Press J if the face is MALE and K if the face is FEMALE, ,JK,,,,,,,,,,,,,,,,,,,,,,,,,,,,,,,,,,,,,,,,,,,,,,582.1171,0,59,59,27,1,109,0,0,0,0,1,98,,,,,,,,,,,,,,,,,,,,,,,,,,,,,,,,,,,,,,,,,,,,,,,,,,,,,,,,,,,,,,,,,,,,,,,,,,
,,,,163836,001,2024-02-07_20h01.49.687,fluency,2022.2.4,MacIntel,59.88023952,,,,,,,,,,,,,,,,,,,,,,,,,,,,,,,,,,,,,,,,,,,,,,,,,,,,,,,,,,,,,,,,,,,,,,,,,,,,,,,,,,0,0,0,0,1,,"[""j""]",[1.8096999999880836],1,"[""j""]",[1.8097999999522472],,,,,,,,,,,,,,,,,,,,,,,,,,,,,,,,,,,,,,,,,,,,,,,,,,,,,,,,,,,,,,,,,,,,,
,,,,163836,001,2024-02-07_20h01.49.687,fluency,2022.2.4,MacIntel,59.88023952,,,,,,,,,,,,,,,,,,,,,,,5,3,img/B03_05.jpg,MF,Press J if the face is MALE and K if the face is FEMALE, ,JK,,,,,,,,,,,,,,,,,,,,,,,,,,,,,,,,5,1.4841,,,,,,,,,,,,,,0,59,59,27,1,,,,,,,,,,,,,space,0.484,,,,,,,,,,,,,,,,,,,,,,,,,,,,,,,,,,,,,,,,,,,,,,,,,,,,,,,,,,,,,,,,,,,
,,,,163836,001,2024-02-07_20h01.49.687,fluency,2022.2.4,MacIntel,59.88023952,,,,,,,,,,,,,,,,,,,,,,,9,9,img/B09_09.jpg,MF,Press J if the face is MALE and K if the face is FEMALE, ,JK,,,,,,,,,,,,,,,,,,,,,,,,,,,,,,,,,,,,,,,,,,,,,,588.1503,0,60,60,97,1,109,0,0,0,0,1,98,,,,,,,,,,,,,,,,,,,,,,,,,,,,,,,,,,,,,,,,,,,,,,,,,,,,,,,,,,,,,,,,,,,,,,,,,,
,,,,163836,001,2024-02-07_20h01.49.687,fluency,2022.2.4,MacIntel,59.88023952,,,,,,,,,,,,,,,,,,,,,,,,,,,,,,,,,,,,,,,,,,,,,,,,,,,,,,,,,,,,,,,,,,,,,,,,,,,,,,,,,,0,0,0,0,1,,"[""k""]",[1.3888000000118836],1,"[""k""]",[1.3888000000118836],,,,,,,,,,,,,,,,,,,,,,,,,,,,,,,,,,,,,,,,,,,,,,,,,,,,,,,,,,,,,,,,,,,,,
,,,,163836,001,2024-02-07_20h01.49.687,fluency,2022.2.4,MacIntel,59.88023952,,,,,,,,,,,,,,,,,,,,,,,9,9,img/B09_09.jpg,MF,Press J if the face is MALE and K if the face is FEMALE, ,JK,,,,,,,,,,,,,,,,,,,,,,,,,,,,,,,,7,1.8794,,,,,,,,,,,,,,0,60,60,97,1,,,,,,,,,,,,,space,0.5513,,,,,,,,,,,,,,,,,,,,,,,,,,,,,,,,,,,,,,,,,,,,,,,,,,,,,,,,,,,,,,,,,,,
,,,,163836,001,2024-02-07_20h01.49.687,fluency,2022.2.4,MacIntel,59.88023952,,,,,,,,,,,,,,,,,,,,,,,4,5,img/B05_04.jpg,MF,Press J if the face is MALE and K if the face is FEMALE, ,JK,,,,,,,,,,,,,,,,,,,,,,,,,,,,,,,,,,,,,,,,,,,,,,594.6338,0,61,61,48,1,109,0,0,0,0,1,98,,,,,,,,,,,,,,,,,,,,,,,,,,,,,,,,,,,,,,,,,,,,,,,,,,,,,,,,,,,,,,,,,,,,,,,,,,
,,,,163836,001,2024-02-07_20h01.49.687,fluency,2022.2.4,MacIntel,59.88023952,,,,,,,,,,,,,,,,,,,,,,,,,,,,,,,,,,,,,,,,,,,,,,,,,,,,,,,,,,,,,,,,,,,,,,,,,,,,,,,,,,0,0,0,0,1,,"[""j""]",[2.02179999995235],1,"[""j""]",[2.0216999999880727],,,,,,,,,,,,,,,,,,,,,,,,,,,,,,,,,,,,,,,,,,,,,,,,,,,,,,,,,,,,,,,,,,,,,
,,,,163836,001,2024-02-07_20h01.49.687,fluency,2022.2.4,MacIntel,59.88023952,,,,,,,,,,,,,,,,,,,,,,,4,5,img/B05_04.jpg,MF,Press J if the face is MALE and K if the face is FEMALE, ,JK,,,,,,,,,,,,,,,,,,,,,,,,,,,,,,,,4,2.5534,,,,,,,,,,,,,,0,61,61,48,1,,,,,,,,,,,,,space,0.7343,,,,,,,,,,,,,,,,,,,,,,,,,,,,,,,,,,,,,,,,,,,,,,,,,,,,,,,,,,,,,,,,,,,
,,,,163836,001,2024-02-07_20h01.49.687,fluency,2022.2.4,MacIntel,59.88023952,,,,,,,,,,,,,,,,,,,,,,,6,9,img/B09_06.jpg,MF,Press J if the face is MALE and K if the face is FEMALE, ,JK,,,,,,,,,,,,,,,,,,,,,,,,,,,,,,,,,,,,,,,,,,,,,,601.9834,0,62,62,94,1,109,0,0,0,0,1,98,,,,,,,,,,,,,,,,,,,,,,,,,,,,,,,,,,,,,,,,,,,,,,,,,,,,,,,,,,,,,,,,,,,,,,,,,,
,,,,163836,001,2024-02-07_20h01.49.687,fluency,2022.2.4,MacIntel,59.88023952,,,,,,,,,,,,,,,,,,,,,,,,,,,,,,,,,,,,,,,,,,,,,,,,,,,,,,,,,,,,,,,,,,,,,,,,,,,,,,,,,,,,,,,,,,2,,,,,space,1.2393,0,0,0,0,1,,,,,,,,,,,,,,,,,,,,,,,,,,,,,,,,,,,,,,,,,,,,,,,,,,,,,,,,,,,,
,,,,163836,001,2024-02-07_20h01.49.687,fluency,2022.2.4,MacIntel,59.88023952,,,,,,,,,,,,,,,,,,,,,,,,,,,,,,,,,,,,,,,,,,,,,,,,,,,,,,,,,,,,,,,,,,,,,,,,,,,,,,,,,,0,0,0,0,1,,,,,,,,,,,,,,,,,,,,,,,,,,,,,,,,,,,,,,,,,,,,,,,,,,,,,,,,,,,,,,,,,,,,,,,,,,,
,,,,163836,001,2024-02-07_20h01.49.687,fluency,2022.2.4,MacIntel,59.88023952,,,,,,,,,,,,,,,,,,,,,,,6,9,img/B09_06.jpg,MF,Press J if the face is MALE and K if the face is FEMALE, ,JK,,,,,,,,,,,,,,,,,,,,,,,,,,,,,,,,,,,,,,,,,,,,,,608.2502,0,62,62,94,1,109,1,0,1,0,1,98,,,,,,,,,,,,,,,,,,,,,,,,,,,,,,,,,,,,,,,,,,,,,,,,,,,,,,,,,,,,,,,,,,,,,,,,,,
,,,,163836,001,2024-02-07_20h01.49.687,fluency,2022.2.4,MacIntel,59.88023952,,,,,,,,,,,,,,,,,,,,,,,,,,,,,,,,,,,,,,,,,,,,,,,,,,,,,,,,,,,,,,,,,,,,,,,,,,,,,,,,,,1,0,1,0,1,,"[""j""]",[1.3664999999999736],2,"[""j""]",[1.3665999999642509],,,,,,,,,,,,,,,,,,,,,,,,,,,,,,,,,,,,,,,,,,,,,,,,,,,,,,,,,,,,,,,,,,,,,
,,,,163836,001,2024-02-07_20h01.49.687,fluency,2022.2.4,MacIntel,59.88023952,,,,,,,,,,,,,,,,,,,,,,,6,9,img/B09_06.jpg,MF,Press J if the face is MALE and K if the face is FEMALE, ,JK,,,,,,,,,,,,,,,,,,,,,,,,,,,,,,,,2,2.7611,,,,,,,,,,,,,,0,62,62,94,1,,,,,,,,,,,,,space,0.7104,,,,,,,,,,,,,,,,,,,,,,,,,,,,,,,,,,,,,,,,,,,,,,,,,,,,,,,,,,,,,,,,,,,
,,,,163836,001,2024-02-07_20h01.49.687,fluency,2022.2.4,MacIntel,59.88023952,,,,,,,,,,,,,,,,,,,,,,,2,10,img/B10_02.jpg,MF,Press J if the face is MALE and K if the face is FEMALE, ,JK,,,,,,,,,,,,,,,,,,,,,,,,,,,,,,,,,,,,,,,,,,,,,,615.7669,0,63,63,101,1,109,0,0,0,0,1,98,,,,,,,,,,,,,,,,,,,,,,,,,,,,,,,,,,,,,,,,,,,,,,,,,,,,,,,,,,,,,,,,,,,,,,,,,,
,,,,163836,001,2024-02-07_20h01.49.687,fluency,2022.2.4,MacIntel,59.88023952,,,,,,,,,,,,,,,,,,,,,,,,,,,,,,,,,,,,,,,,,,,,,,,,,,,,,,,,,,,,,,,,,,,,,,,,,,,,,,,,,,0,0,0,0,1,,"[""k""]",[1.4054000000357973],2,"[""k""]",[1.4053000000119482],,,,,,,,,,,,,,,,,,,,,,,,,,,,,,,,,,,,,,,,,,,,,,,,,,,,,,,,,,,,,,,,,,,,,
,,,,163836,001,2024-02-07_20h01.49.687,fluency,2022.2.4,MacIntel,59.88023952,,,,,,,,,,,,,,,,,,,,,,,2,10,img/B10_02.jpg,MF,Press J if the face is MALE and K if the face is FEMALE, ,JK,,,,,,,,,,,,,,,,,,,,,,,,,,,,,,,,1,2.4788,,,,,,,,,,,,,,0,63,63,101,1,,,,,,,,,,,,,space,4.6501,,,,,,,,,,,,,,,,,,,,,,,,,,,,,,,,,,,,,,,,,,,,,,,,,,,,,,,,,,,,,,,,,,,
,,,,163836,001,2024-02-07_20h01.49.687,fluency,2022.2.4,MacIntel,59.88023952,,,,,,,,,,,,,,,,,,,,,,,1,2,img/B02_01.jpg,MF,Press J if the face is MALE and K if the face is FEMALE, ,JK,,,,,,,,,,,,,,,,,,,,,,,,,,,,,,,,,,,,,,,,,,,,,,626.9667,0,64,64,12,1,109,0,0,0,0,1,98,,,,,,,,,,,,,,,,,,,,,,,,,,,,,,,,,,,,,,,,,,,,,,,,,,,,,,,,,,,,,,,,,,,,,,,,,,
,,,,163836,001,2024-02-07_20h01.49.687,fluency,2022.2.4,MacIntel,59.88023952,,,,,,,,,,,,,,,,,,,,,,,,,,,,,,,,,,,,,,,,,,,,,,,,,,,,,,,,,,,,,,,,,,,,,,,,,,,,,,,,,,0,0,0,0,1,,"[""k""]",[1.94010000002379],2,"[""k""]",[1.94010000002379],,,,,,,,,,,,,,,,,,,,,,,,,,,,,,,,,,,,,,,,,,,,,,,,,,,,,,,,,,,,,,,,,,,,,
,,,,163836,001,2024-02-07_20h01.49.687,fluency,2022.2.4,MacIntel,59.88023952,,,,,,,,,,,,,,,,,,,,,,,1,2,img/B02_01.jpg,MF,Press J if the face is MALE and K if the face is FEMALE, ,JK,,,,,,,,,,,,,,,,,,,,,,,,,,,,,,,,1,0.6155,,,,,,,,,,,,,,0,64,64,12,1,,,,,,,,,,,,,space,0.7837,,,,,,,,,,,,,,,,,,,,,,,,,,,,,,,,,,,,,,,,,,,,,,,,,,,,,,,,,,,,,,,,,,,
,,,,163836,001,2024-02-07_20h01.49.687,fluency,2022.2.4,MacIntel,59.88023952,,,,,,,,,,,,,,,,,,,,,,,5,5,img/B05_05.jpg,MF,Press J if the face is MALE and K if the face is FEMALE, ,JK,,,,,,,,,,,,,,,,,,,,,,,,,,,,,,,,,,,,,,,,,,,,,,632.4333,0,65,65,49,1,109,0,0,0,0,1,98,,,,,,,,,,,,,,,,,,,,,,,,,,,,,,,,,,,,,,,,,,,,,,,,,,,,,,,,,,,,,,,,,,,,,,,,,,
,,,,163836,001,2024-02-07_20h01.49.687,fluency,2022.2.4,MacIntel,59.88023952,,,,,,,,,,,,,,,,,,,,,,,,,,,,,,,,,,,,,,,,,,,,,,,,,,,,,,,,,,,,,,,,,,,,,,,,,,,,,,,,,,0,0,0,0,1,,"[""k""]",[1.8883999999761727],2,"[""k""]",[1.8883999999761727],,,,,,,,,,,,,,,,,,,,,,,,,,,,,,,,,,,,,,,,,,,,,,,,,,,,,,,,,,,,,,,,,,,,,
,,,,163836,001,2024-02-07_20h01.49.687,fluency,2022.2.4,MacIntel,59.88023952,,,,,,,,,,,,,,,,,,,,,,,5,5,img/B05_05.jpg,MF,Press J if the face is MALE and K if the face is FEMALE, ,JK,,,,,,,,,,,,,,,,,,,,,,,,,,,,,,,,4,0.4355,,,,,,,,,,,,,,0,65,65,49,1,,,,,,,,,,,,,space,0.4341,,,,,,,,,,,,,,,,,,,,,,,,,,,,,,,,,,,,,,,,,,,,,,,,,,,,,,,,,,,,,,,,,,,
,,,,163836,001,2024-02-07_20h01.49.687,fluency,2022.2.4,MacIntel,59.88023952,,,,,,,,,,,,,,,,,,,,,,,7,1,img/B01_07.jpg,MF,Press J if the face is MALE and K if the face is FEMALE, ,JK,,,,,,,,,,,,,,,,,,,,,,,,,,,,,,,,,,,,,,,,,,,,,,638.3666,0,66,66,7,1,109,0,0,0,0,1,98,,,,,,,,,,,,,,,,,,,,,,,,,,,,,,,,,,,,,,,,,,,,,,,,,,,,,,,,,,,,,,,,,,,,,,,,,,
,,,,163836,001,2024-02-07_20h01.49.687,fluency,2022.2.4,MacIntel,59.88023952,,,,,,,,,,,,,,,,,,,,,,,,,,,,,,,,,,,,,,,,,,,,,,,,,,,,,,,,,,,,,,,,,,,,,,,,,,,,,,,,,,0,0,0,0,1,,"[""k""]",[2.4055000000000746],2,"[""k""]",[2.4055000000000746],,,,,,,,,,,,,,,,,,,,,,,,,,,,,,,,,,,,,,,,,,,,,,,,,,,,,,,,,,,,,,,,,,,,,
,,,,163836,001,2024-02-07_20h01.49.687,fluency,2022.2.4,MacIntel,59.88023952,,,,,,,,,,,,,,,,,,,,,,,7,1,img/B01_07.jpg,MF,Press J if the face is MALE and K if the face is FEMALE, ,JK,,,,,,,,,,,,,,,,,,,,,,,,,,,,,,,,3,2.1005,,,,,,,,,,,,,,0,66,66,7,1,,,,,,,,,,,,,space,0.2533,,,,,,,,,,,,,,,,,,,,,,,,,,,,,,,,,,,,,,,,,,,,,,,,,,,,,,,,,,,,,,,,,,,
,,,,163836,001,2024-02-07_20h01.49.687,fluency,2022.2.4,MacIntel,59.88023952,,,,,,,,,,,,,,,,,,,,,,,7,7,img/B07_07.jpg,MF,Press J if the face is MALE and K if the face is FEMALE, ,JK,,,,,,,,,,,,,,,,,,,,,,,,,,,,,,,,,,,,,,,,,,,,,,644.7833,0,67,67,73,1,109,0,0,0,0,1,98,,,,,,,,,,,,,,,,,,,,,,,,,,,,,,,,,,,,,,,,,,,,,,,,,,,,,,,,,,,,,,,,,,,,,,,,,,
,,,,163836,001,2024-02-07_20h01.49.687,fluency,2022.2.4,MacIntel,59.88023952,,,,,,,,,,,,,,,,,,,,,,,,,,,,,,,,,,,,,,,,,,,,,,,,,,,,,,,,,,,,,,,,,,,,,,,,,,,,,,,,,,0,0,0,0,1,,"[""k""]",[1.9421000000238564],2,"[""k""]",[1.942300000011869],,,,,,,,,,,,,,,,,,,,,,,,,,,,,,,,,,,,,,,,,,,,,,,,,,,,,,,,,,,,,,,,,,,,,
,,,,163836,001,2024-02-07_20h01.49.687,fluency,2022.2.4,MacIntel,59.88023952,,,,,,,,,,,,,,,,,,,,,,,7,7,img/B07_07.jpg,MF,Press J if the face is MALE and K if the face is FEMALE, ,JK,,,,,,,,,,,,,,,,,,,,,,,,,,,,,,,,3,1.9518,,,,,,,,,,,,,,0,67,67,73,1,,,,,,,,,,,,,space,1.3174,,,,,,,,,,,,,,,,,,,,,,,,,,,,,,,,,,,,,,,,,,,,,,,,,,,,,,,,,,,,,,,,,,,
,,,,163836,001,2024-02-07_20h01.49.687,fluency,2022.2.4,MacIntel,59.88023952,,,,,,,,,,,,,,,,,,,,,,,2,1,img/B01_02.jpg,MF,Press J if the face is MALE and K if the face is FEMALE, ,JK,,,,,,,,,,,,,,,,,,,,,,,,,,,,,,,,,,,,,,,,,,,,,,652.1164,0,68,68,2,1,109,0,0,0,0,1,98,,,,,,,,,,,,,,,,,,,,,,,,,,,,,,,,,,,,,,,,,,,,,,,,,,,,,,,,,,,,,,,,,,,,,,,,,,
,,,,163836,001,2024-02-07_20h01.49.687,fluency,2022.2.4,MacIntel,59.88023952,,,,,,,,,,,,,,,,,,,,,,,,,,,,,,,,,,,,,,,,,,,,,,,,,,,,,,,,,,,,,,,,,,,,,,,,,,,,,,,,,,0,0,0,0,1,,"[""j""]",[0.9063999999760881],2,"[""j""]",[0.9063999999760881],,,,,,,,,,,,,,,,,,,,,,,,,,,,,,,,,,,,,,,,,,,,,,,,,,,,,,,,,,,,,,,,,,,,,
,,,,163836,001,2024-02-07_20h01.49.687,fluency,2022.2.4,MacIntel,59.88023952,,,,,,,,,,,,,,,,,,,,,,,2,1,img/B01_02.jpg,MF,Press J if the face is MALE and K if the face is FEMALE, ,JK,,,,,,,,,,,,,,,,,,,,,,,,,,,,,,,,4,0.3988,,,,,,,,,,,,,,0,68,68,2,1,,,,,,,,,,,,,space,0.376,,,,,,,,,,,,,,,,,,,,,,,,,,,,,,,,,,,,,,,,,,,,,,,,,,,,,,,,,,,,,,,,,,,
,,,,163836,001,2024-02-07_20h01.49.687,fluency,2022.2.4,MacIntel,59.88023952,,,,,,,,,,,,,,,,,,,,,,,1,7,img/B07_01.jpg,MF,Press J if the face is MALE and K if the face is FEMALE, ,JK,,,,,,,,,,,,,,,,,,,,,,,,,,,,,,,,,,,,,,,,,,,,,,656.9498,0,69,69,67,1,109,0,0,0,0,1,98,,,,,,,,,,,,,,,,,,,,,,,,,,,,,,,,,,,,,,,,,,,,,,,,,,,,,,,,,,,,,,,,,,,,,,,,,,
,,,,163836,001,2024-02-07_20h01.49.687,fluency,2022.2.4,MacIntel,59.88023952,,,,,,,,,,,,,,,,,,,,,,,,,,,,,,,,,,,,,,,,,,,,,,,,,,,,,,,,,,,,,,,,,,,,,,,,,,,,,,,,,,0,0,0,0,1,,"[""j""]",[0.7888000000118609],2,"[""j""]",[0.7887000000476974],,,,,,,,,,,,,,,,,,,,,,,,,,,,,,,,,,,,,,,,,,,,,,,,,,,,,,,,,,,,,,,,,,,,,
,,,,163836,001,2024-02-07_20h01.49.687,fluency,2022.2.4,MacIntel,59.88023952,,,,,,,,,,,,,,,,,,,,,,,1,7,img/B07_01.jpg,MF,Press J if the face is MALE and K if the face is FEMALE, ,JK,,,,,,,,,,,,,,,,,,,,,,,,,,,,,,,,6,0.2854,,,,,,,,,,,,,,0,69,69,67,1,,,,,,,,,,,,,space,0.5542,,,,,,,,,,,,,,,,,,,,,,,,,,,,,,,,,,,,,,,,,,,,,,,,,,,,,,,,,,,,,,,,,,,
,,,,163836,001,2024-02-07_20h01.49.687,fluency,2022.2.4,MacIntel,59.88023952,,,,,,,,,,,,,,,,,,,,,,,4,10,img/B10_04.jpg,MF,Press J if the face is MALE and K if the face is FEMALE, ,JK,,,,,,,,,,,,,,,,,,,,,,,,,,,,,,,,,,,,,,,,,,,,,,661.8496,0,70,70,103,1,109,0,0,0,0,1,98,,,,,,,,,,,,,,,,,,,,,,,,,,,,,,,,,,,,,,,,,,,,,,,,,,,,,,,,,,,,,,,,,,,,,,,,,,
,,,,163836,001,2024-02-07_20h01.49.687,fluency,2022.2.4,MacIntel,59.88023952,,,,,,,,,,,,,,,,,,,,,,,,,,,,,,,,,,,,,,,,,,,,,,,,,,,,,,,,,,,,,,,,,,,,,,,,,,,,,,,,,,0,0,0,0,1,,"[""j""]",[1.098399999976209],2,"[""j""]",[1.098399999976209],,,,,,,,,,,,,,,,,,,,,,,,,,,,,,,,,,,,,,,,,,,,,,,,,,,,,,,,,,,,,,,,,,,,,
,,,,163836,001,2024-02-07_20h01.49.687,fluency,2022.2.4,MacIntel,59.88023952,,,,,,,,,,,,,,,,,,,,,,,4,10,img/B10_04.jpg,MF,Press J if the face is MALE and K if the face is FEMALE, ,JK,,,,,,,,,,,,,,,,,,,,,,,,,,,,,,,,6,0.4631,,,,,,,,,,,,,,0,70,70,103,1,,,,,,,,,,,,,space,0.3847,,,,,,,,,,,,,,,,,,,,,,,,,,,,,,,,,,,,,,,,,,,,,,,,,,,,,,,,,,,,,,,,,,,
,,,,163836,001,2024-02-07_20h01.49.687,fluency,2022.2.4,MacIntel,59.88023952,,,,,,,,,,,,,,,,,,,,,,,3,7,img/B07_03.jpg,MF,Press J if the face is MALE and K if the face is FEMALE, ,JK,,,,,,,,,,,,,,,,,,,,,,,,,,,,,,,,,,,,,,,,,,,,,,666.7656,0,71,71,69,1,109,0,0,0,0,1,98,,,,,,,,,,,,,,,,,,,,,,,,,,,,,,,,,,,,,,,,,,,,,,,,,,,,,,,,,,,,,,,,,,,,,,,,,,
,,,,163836,001,2024-02-07_20h01.49.687,fluency,2022.2.4,MacIntel,59.88023952,,,,,,,,,,,,,,,,,,,,,,,,,,,,,,,,,,,,,,,,,,,,,,,,,,,,,,,,,,,,,,,,,,,,,,,,,,,,,,,,,,0,0,0,0,1,,"[""j""]",[0.7255000000000109],2,"[""j""]",[0.7255000000000109],,,,,,,,,,,,,,,,,,,,,,,,,,,,,,,,,,,,,,,,,,,,,,,,,,,,,,,,,,,,,,,,,,,,,
,,,,163836,001,2024-02-07_20h01.49.687,fluency,2022.2.4,MacIntel,59.88023952,,,,,,,,,,,,,,,,,,,,,,,3,7,img/B07_03.jpg,MF,Press J if the face is MALE and K if the face is FEMALE, ,JK,,,,,,,,,,,,,,,,,,,,,,,,,,,,,,,,6,0.4851,,,,,,,,,,,,,,0,71,71,69,1,,,,,,,,,,,,,space,0.3171,,,,,,,,,,,,,,,,,,,,,,,,,,,,,,,,,,,,,,,,,,,,,,,,,,,,,,,,,,,,,,,,,,,
,,,,163836,001,2024-02-07_20h01.49.687,fluency,2022.2.4,MacIntel,59.88023952,,,,,,,,,,,,,,,,,,,,,,,5,2,img/B02_05.jpg,MF,Press J if the face is MALE and K if the face is FEMALE, ,JK,,,,,,,,,,,,,,,,,,,,,,,,,,,,,,,,,,,,,,,,,,,,,,671.6163,0,72,72,16,1,109,0,0,0,0,1,98,,,,,,,,,,,,,,,,,,,,,,,,,,,,,,,,,,,,,,,,,,,,,,,,,,,,,,,,,,,,,,,,,,,,,,,,,,
,,,,163836,001,2024-02-07_20h01.49.687,fluency,2022.2.4,MacIntel,59.88023952,,,,,,,,,,,,,,,,,,,,,,,,,,,,,,,,,,,,,,,,,,,,,,,,,,,,,,,,,,,,,,,,,,,,,,,,,,,,,,,,,,0,0,0,0,1,,"[""j""]",[2.8382000000476637],2,"[""j""]",[2.8382000000476637],,,,,,,,,,,,,,,,,,,,,,,,,,,,,,,,,,,,,,,,,,,,,,,,,,,,,,,,,,,,,,,,,,,,,
,,,,163836,001,2024-02-07_20h01.49.687,fluency,2022.2.4,MacIntel,59.88023952,,,,,,,,,,,,,,,,,,,,,,,5,2,img/B02_05.jpg,MF,Press J if the face is MALE and K if the face is FEMALE, ,JK,,,,,,,,,,,,,,,,,,,,,,,,,,,,,,,,4,2.4887,,,,,,,,,,,,,,0,72,72,16,1,,,,,,,,,,,,,space,0.5836,,,,,,,,,,,,,,,,,,,,,,,,,,,,,,,,,,,,,,,,,,,,,,,,,,,,,,,,,,,,,,,,,,,
,,,,163836,001,2024-02-07_20h01.49.687,fluency,2022.2.4,MacIntel,59.88023952,,,,,,,,,,,,,,,,,,,,,,,3,9,img/B09_03.jpg,MF,Press J if the face is MALE and K if the face is FEMALE, ,JK,,,,,,,,,,,,,,,,,,,,,,,,,,,,,,,,,,,,,,,,,,,,,,678.7496,0,73,73,91,1,109,0,0,0,0,1,98,,,,,,,,,,,,,,,,,,,,,,,,,,,,,,,,,,,,,,,,,,,,,,,,,,,,,,,,,,,,,,,,,,,,,,,,,,
,,,,163836,001,2024-02-07_20h01.49.687,fluency,2022.2.4,MacIntel,59.88023952,,,,,,,,,,,,,,,,,,,,,,,,,,,,,,,,,,,,,,,,,,,,,,,,,,,,,,,,,,,,,,,,,,,,,,,,,,,,,,,,,,0,0,0,0,1,,"[""j""]",[1.4386000000238255],2,"[""j""]",[1.4386000000238255],,,,,,,,,,,,,,,,,,,,,,,,,,,,,,,,,,,,,,,,,,,,,,,,,,,,,,,,,,,,,,,,,,,,,
,,,,163836,001,2024-02-07_20h01.49.687,fluency,2022.2.4,MacIntel,59.88023952,,,,,,,,,,,,,,,,,,,,,,,3,9,img/B09_03.jpg,MF,Press J if the face is MALE and K if the face is FEMALE, ,JK,,,,,,,,,,,,,,,,,,,,,,,,,,,,,,,,4,2.8848,,,,,,,,,,,,,,0,73,73,91,1,,,,,,,,,,,,,space,0.462,,,,,,,,,,,,,,,,,,,,,,,,,,,,,,,,,,,,,,,,,,,,,,,,,,,,,,,,,,,,,,,,,,,
,,,,163836,001,2024-02-07_20h01.49.687,fluency,2022.2.4,MacIntel,59.88023952,,,,,,,,,,,,,,,,,,,,,,,0,1,img/B01_00.jpg,MF,Press J if the face is MALE and K if the face is FEMALE, ,JK,,,,,,,,,,,,,,,,,,,,,,,,,,,,,,,,,,,,,,,,,,,,,,686.1495,0,74,74,0,1,109,0,0,0,0,1,98,,,,,,,,,,,,,,,,,,,,,,,,,,,,,,,,,,,,,,,,,,,,,,,,,,,,,,,,,,,,,,,,,,,,,,,,,,
,,,,163836,001,2024-02-07_20h01.49.687,fluency,2022.2.4,MacIntel,59.88023952,,,,,,,,,,,,,,,,,,,,,,,,,,,,,,,,,,,,,,,,,,,,,,,,,,,,,,,,,,,,,,,,,,,,,,,,,,,,,,,,,,0,0,0,0,1,,"[""j""]",[0.9384999999999764],2,"[""j""]",[0.9384999999999764],,,,,,,,,,,,,,,,,,,,,,,,,,,,,,,,,,,,,,,,,,,,,,,,,,,,,,,,,,,,,,,,,,,,,
,,,,163836,001,2024-02-07_20h01.49.687,fluency,2022.2.4,MacIntel,59.88023952,,,,,,,,,,,,,,,,,,,,,,,0,1,img/B01_00.jpg,MF,Press J if the face is MALE and K if the face is FEMALE, ,JK,,,,,,,,,,,,,,,,,,,,,,,,,,,,,,,,6,2.3189,,,,,,,,,,,,,,0,74,74,0,1,,,,,,,,,,,,,space,0.8508,,,,,,,,,,,,,,,,,,,,,,,,,,,,,,,,,,,,,,,,,,,,,,,,,,,,,,,,,,,,,,,,,,,
,,,,163836,001,2024-02-07_20h01.49.687,fluency,2022.2.4,MacIntel,59.88023952,,,,,,,,,,,,,,,,,,,,,,,5,9,img/B09_05.jpg,MF,Press J if the face is MALE and K if the face is FEMALE, ,JK,,,,,,,,,,,,,,,,,,,,,,,,,,,,,,,,,,,,,,,,,,,,,,693.3995,0,75,75,93,1,109,0,0,0,0,1,98,,,,,,,,,,,,,,,,,,,,,,,,,,,,,,,,,,,,,,,,,,,,,,,,,,,,,,,,,,,,,,,,,,,,,,,,,,
,,,,163836,001,2024-02-07_20h01.49.687,fluency,2022.2.4,MacIntel,59.88023952,,,,,,,,,,,,,,,,,,,,,,,,,,,,,,,,,,,,,,,,,,,,,,,,,,,,,,,,,,,,,,,,,,,,,,,,,,,,,,,,,,0,0,0,0,1,,"[""j""]",[1.8381999999880918],2,"[""j""]",[1.8381999999880918],,,,,,,,,,,,,,,,,,,,,,,,,,,,,,,,,,,,,,,,,,,,,,,,,,,,,,,,,,,,,,,,,,,,,
,,,,163836,001,2024-02-07_20h01.49.687,fluency,2022.2.4,MacIntel,59.88023952,,,,,,,,,,,,,,,,,,,,,,,5,9,img/B09_05.jpg,MF,Press J if the face is MALE and K if the face is FEMALE, ,JK,,,,,,,,,,,,,,,,,,,,,,,,,,,,,,,,3,0.8783,,,,,,,,,,,,,,0,75,75,93,1,,,,,,,,,,,,,space,0.6004,,,,,,,,,,,,,,,,,,,,,,,,,,,,,,,,,,,,,,,,,,,,,,,,,,,,,,,,,,,,,,,,,,,
,,,,163836,001,2024-02-07_20h01.49.687,fluency,2022.2.4,MacIntel,59.88023952,,,,,,,,,,,,,,,,,,,,,,,2,5,img/B05_02.jpg,MF,Press J if the face is MALE and K if the face is FEMALE, ,JK,,,,,,,,,,,,,,,,,,,,,,,,,,,,,,,,,,,,,,,,,,,,,,698.9494,0,76,76,46,1,109,0,0,0,0,1,98,,,,,,,,,,,,,,,,,,,,,,,,,,,,,,,,,,,,,,,,,,,,,,,,,,,,,,,,,,,,,,,,,,,,,,,,,,
,,,,163836,001,2024-02-07_20h01.49.687,fluency,2022.2.4,MacIntel,59.88023952,,,,,,,,,,,,,,,,,,,,,,,,,,,,,,,,,,,,,,,,,,,,,,,,,,,,,,,,,,,,,,,,,,,,,,,,,,,,,,,,,,0,0,0,0,1,,"[""j""]",[1.4988000000118973],2,"[""j""]",[1.4987999999523254],,,,,,,,,,,,,,,,,,,,,,,,,,,,,,,,,,,,,,,,,,,,,,,,,,,,,,,,,,,,,,,,,,,,,
,,,,163836,001,2024-02-07_20h01.49.687,fluency,2022.2.4,MacIntel,59.88023952,,,,,,,,,,,,,,,,,,,,,,,2,5,img/B05_02.jpg,MF,Press J if the face is MALE and K if the face is FEMALE, ,JK,,,,,,,,,,,,,,,,,,,,,,,,,,,,,,,,1,0.3703,,,,,,,,,,,,,,0,76,76,46,1,,,,,,,,,,,,,space,0.5005,,,,,,,,,,,,,,,,,,,,,,,,,,,,,,,,,,,,,,,,,,,,,,,,,,,,,,,,,,,,,,,,,,,
,,,,163836,001,2024-02-07_20h01.49.687,fluency,2022.2.4,MacIntel,59.88023952,,,,,,,,,,,,,,,,,,,,,,,5,7,img/B07_05.jpg,MF,Press J if the face is MALE and K if the face is FEMALE, ,JK,,,,,,,,,,,,,,,,,,,,,,,,,,,,,,,,,,,,,,,,,,,,,,704.8824,0,77,77,71,1,109,0,0,0,0,1,98,,,,,,,,,,,,,,,,,,,,,,,,,,,,,,,,,,,,,,,,,,,,,,,,,,,,,,,,,,,,,,,,,,,,,,,,,,
,,,,163836,001,2024-02-07_20h01.49.687,fluency,2022.2.4,MacIntel,59.88023952,,,,,,,,,,,,,,,,,,,,,,,,,,,,,,,,,,,,,,,,,,,,,,,,,,,,,,,,,,,,,,,,,,,,,,,,,,,,,,,,,,0,0,0,0,1,,"[""j""]",[1.3486999999880709],2,"[""j""]",[1.3486999999880709],,,,,,,,,,,,,,,,,,,,,,,,,,,,,,,,,,,,,,,,,,,,,,,,,,,,,,,,,,,,,,,,,,,,,
,,,,163836,001,2024-02-07_20h01.49.687,fluency,2022.2.4,MacIntel,59.88023952,,,,,,,,,,,,,,,,,,,,,,,5,7,img/B07_05.jpg,MF,Press J if the face is MALE and K if the face is FEMALE, ,JK,,,,,,,,,,,,,,,,,,,,,,,,,,,,,,,,3,2.7142,,,,,,,,,,,,,,0,77,77,71,1,,,,,,,,,,,,,space,0.5332,,,,,,,,,,,,,,,,,,,,,,,,,,,,,,,,,,,,,,,,,,,,,,,,,,,,,,,,,,,,,,,,,,,
,,,,163836,001,2024-02-07_20h01.49.687,fluency,2022.2.4,MacIntel,59.88023952,,,,,,,,,,,,,,,,,,,,,,,0,3,img/B03_00.jpg,MF,Press J if the face is MALE and K if the face is FEMALE, ,JK,,,,,,,,,,,,,,,,,,,,,,,,,,,,,,,,,,,,,,,,,,,,,,712.1825,0,78,78,22,1,109,0,0,0,0,1,98,,,,,,,,,,,,,,,,,,,,,,,,,,,,,,,,,,,,,,,,,,,,,,,,,,,,,,,,,,,,,,,,,,,,,,,,,,
,,,,163836,001,2024-02-07_20h01.49.687,fluency,2022.2.4,MacIntel,59.88023952,,,,,,,,,,,,,,,,,,,,,,,,,,,,,,,,,,,,,,,,,,,,,,,,,,,,,,,,,,,,,,,,,,,,,,,,,,,,,,,,,,0,0,0,0,1,,"[""j""]",[1.5051999999881218],2,"[""j""]",[1.5051999999881218],,,,,,,,,,,,,,,,,,,,,,,,,,,,,,,,,,,,,,,,,,,,,,,,,,,,,,,,,,,,,,,,,,,,,
,,,,163836,001,2024-02-07_20h01.49.687,fluency,2022.2.4,MacIntel,59.88023952,,,,,,,,,,,,,,,,,,,,,,,0,3,img/B03_00.jpg,MF,Press J if the face is MALE and K if the face is FEMALE, ,JK,,,,,,,,,,,,,,,,,,,,,,,,,,,,,,,,5,3.2624,,,,,,,,,,,,,,0,78,78,22,1,,,,,,,,,,,,,space,1.0046,,,,,,,,,,,,,,,,,,,,,,,,,,,,,,,,,,,,,,,,,,,,,,,,,,,,,,,,,,,,,,,,,,,
,,,,163836,001,2024-02-07_20h01.49.687,fluency,2022.2.4,MacIntel,59.88023952,,,,,,,,,,,,,,,,,,,,,,,10,6,img/B06_10.jpg,MF,Press J if the face is MALE and K if the face is FEMALE, ,JK,,,,,,,,,,,,,,,,,,,,,,,,,,,,,,,,,,,,,,,,,,,,,,721.4992,0,79,79,65,1,109,0,0,0,0,1,98,,,,,,,,,,,,,,,,,,,,,,,,,,,,,,,,,,,,,,,,,,,,,,,,,,,,,,,,,,,,,,,,,,,,,,,,,,
,,,,163836,001,2024-02-07_20h01.49.687,fluency,2022.2.4,MacIntel,59.88023952,,,,,,,,,,,,,,,,,,,,,,,,,,,,,,,,,,,,,,,,,,,,,,,,,,,,,,,,,,,,,,,,,,,,,,,,,,,,,,,,,,0,0,0,0,1,,"[""k""]",[1.6714999999999236],2,"[""k""]",[1.6714999999999236],,,,,,,,,,,,,,,,,,,,,,,,,,,,,,,,,,,,,,,,,,,,,,,,,,,,,,,,,,,,,,,,,,,,,
,,,,163836,001,2024-02-07_20h01.49.687,fluency,2022.2.4,MacIntel,59.88023952,,,,,,,,,,,,,,,,,,,,,,,10,6,img/B06_10.jpg,MF,Press J if the face is MALE and K if the face is FEMALE, ,JK,,,,,,,,,,,,,,,,,,,,,,,,,,,,,,,,5,3.1693,,,,,,,,,,,,,,0,79,79,65,1,,,,,,,,,,,,,space,0.4338,,,,,,,,,,,,,,,,,,,,,,,,,,,,,,,,,,,,,,,,,,,,,,,,,,,,,,,,,,,,,,,,,,,
,,,,163836,001,2024-02-07_20h01.49.687,fluency,2022.2.4,MacIntel,59.88023952,,,,,,,,,,,,,,,,,,,,,,,5,6,img/B06_05.jpg,MF,Press J if the face is MALE and K if the face is FEMALE, ,JK,,,,,,,,,,,,,,,,,,,,,,,,,,,,,,,,,,,,,,,,,,,,,,730.1825,0,80,80,60,1,109,0,0,0,0,1,98,,,,,,,,,,,,,,,,,,,,,,,,,,,,,,,,,,,,,,,,,,,,,,,,,,,,,,,,,,,,,,,,,,,,,,,,,,
,,,,163836,001,2024-02-07_20h01.49.687,fluency,2022.2.4,MacIntel,59.88023952,,,,,,,,,,,,,,,,,,,,,,,,,,,,,,,,,,,,,,,,,,,,,,,,,,,,,,,,,,,,,,,,,,,,,,,,,,,,,,,,,,0,0,0,0,1,,"[""j""]",[1.3713999999762336],2,"[""j""]",[1.3715000000000828],,,,,,,,,,,,,,,,,,,,,,,,,,,,,,,,,,,,,,,,,,,,,,,,,,,,,,,,,,,,,,,,,,,,,
,,,,163836,001,2024-02-07_20h01.49.687,fluency,2022.2.4,MacIntel,59.88023952,,,,,,,,,,,,,,,,,,,,,,,5,6,img/B06_05.jpg,MF,Press J if the face is MALE and K if the face is FEMALE, ,JK,,,,,,,,,,,,,,,,,,,,,,,,,,,,,,,,3,2.7329,,,,,,,,,,,,,,0,80,80,60,1,,,,,,,,,,,,,space,0.8441,,,,,,,,,,,,,,,,,,,,,,,,,,,,,,,,,,,,,,,,,,,,,,,,,,,,,,,,,,,,,,,,,,,
,,,,163836,001,2024-02-07_20h01.49.687,fluency,2022.2.4,MacIntel,59.88023952,,,,,,,,,,,,,,,,,,,,,,,1,10,img/B10_01.jpg,MF,Press J if the face is MALE and K if the face is FEMALE, ,JK,,,,,,,,,,,,,,,,,,,,,,,,,,,,,,,,,,,,,,,,,,,,,,737.8158,0,81,81,100,1,109,0,0,0,0,1,98,,,,,,,,,,,,,,,,,,,,,,,,,,,,,,,,,,,,,,,,,,,,,,,,,,,,,,,,,,,,,,,,,,,,,,,,,,
,,,,163836,001,2024-02-07_20h01.49.687,fluency,2022.2.4,MacIntel,59.88023952,,,,,,,,,,,,,,,,,,,,,,,,,,,,,,,,,,,,,,,,,,,,,,,,,,,,,,,,,,,,,,,,,,,,,,,,,,,,,,,,,,0,0,0,0,1,,"[""j""]",[1.339099999964219],2,"[""j""]",[1.339099999964219],,,,,,,,,,,,,,,,,,,,,,,,,,,,,,,,,,,,,,,,,,,,,,,,,,,,,,,,,,,,,,,,,,,,,
,,,,163836,001,2024-02-07_20h01.49.687,fluency,2022.2.4,MacIntel,59.88023952,,,,,,,,,,,,,,,,,,,,,,,1,10,img/B10_01.jpg,MF,Press J if the face is MALE and K if the face is FEMALE, ,JK,,,,,,,,,,,,,,,,,,,,,,,,,,,,,,,,6,0.3065,,,,,,,,,,,,,,0,81,81,100,1,,,,,,,,,,,,,space,0.5786,,,,,,,,,,,,,,,,,,,,,,,,,,,,,,,,,,,,,,,,,,,,,,,,,,,,,,,,,,,,,,,,,,,
,,,,163836,001,2024-02-07_20h01.49.687,fluency,2022.2.4,MacIntel,59.88023952,,,,,,,,,,,,,,,,,,,,,,,2,7,img/B07_02.jpg,MF,Press J if the face is MALE and K if the face is FEMALE, ,JK,,,,,,,,,,,,,,,,,,,,,,,,,,,,,,,,,,,,,,,,,,,,,,743.7491,0,82,82,68,1,109,0,0,0,0,1,98,,,,,,,,,,,,,,,,,,,,,,,,,,,,,,,,,,,,,,,,,,,,,,,,,,,,,,,,,,,,,,,,,,,,,,,,,,
,,,,163836,001,2024-02-07_20h01.49.687,fluency,2022.2.4,MacIntel,59.88023952,,,,,,,,,,,,,,,,,,,,,,,,,,,,,,,,,,,,,,,,,,,,,,,,,,,,,,,,,,,,,,,,,,,,,,,,,,,,,,,,,,,,,,,,,,3,,,,,space,0.7868,0,0,0,0,1,,,,,,,,,,,,,,,,,,,,,,,,,,,,,,,,,,,,,,,,,,,,,,,,,,,,,,,,,,,,
,,,,163836,001,2024-02-07_20h01.49.687,fluency,2022.2.4,MacIntel,59.88023952,,,,,,,,,,,,,,,,,,,,,,,,,,,,,,,,,,,,,,,,,,,,,,,,,,,,,,,,,,,,,,,,,,,,,,,,,,,,,,,,,,0,0,0,0,1,,,,,,,,,,,,,,,,,,,,,,,,,,,,,,,,,,,,,,,,,,,,,,,,,,,,,,,,,,,,,,,,,,,,,,,,,,,
,,,,163836,001,2024-02-07_20h01.49.687,fluency,2022.2.4,MacIntel,59.88023952,,,,,,,,,,,,,,,,,,,,,,,2,7,img/B07_02.jpg,MF,Press J if the face is MALE and K if the face is FEMALE, ,JK,,,,,,,,,,,,,,,,,,,,,,,,,,,,,,,,,,,,,,,,,,,,,,749.5823,0,82,82,68,1,109,1,0,1,0,1,98,,,,,,,,,,,,,,,,,,,,,,,,,,,,,,,,,,,,,,,,,,,,,,,,,,,,,,,,,,,,,,,,,,,,,,,,,,
,,,,163836,001,2024-02-07_20h01.49.687,fluency,2022.2.4,MacIntel,59.88023952,,,,,,,,,,,,,,,,,,,,,,,,,,,,,,,,,,,,,,,,,,,,,,,,,,,,,,,,,,,,,,,,,,,,,,,,,,,,,,,,,,1,0,1,0,1,,"[""j""]",[0.30040000003577916],3,"[""j""]",[0.30040000003577916],,,,,,,,,,,,,,,,,,,,,,,,,,,,,,,,,,,,,,,,,,,,,,,,,,,,,,,,,,,,,,,,,,,,,
,,,,163836,001,2024-02-07_20h01.49.687,fluency,2022.2.4,MacIntel,59.88023952,,,,,,,,,,,,,,,,,,,,,,,2,7,img/B07_02.jpg,MF,Press J if the face is MALE and K if the face is FEMALE, ,JK,,,,,,,,,,,,,,,,,,,,,,,,,,,,,,,,4,2.4739,,,,,,,,,,,,,,0,82,82,68,1,,,,,,,,,,,,,space,1.2545,,,,,,,,,,,,,,,,,,,,,,,,,,,,,,,,,,,,,,,,,,,,,,,,,,,,,,,,,,,,,,,,,,,
,,,,163836,001,2024-02-07_20h01.49.687,fluency,2022.2.4,MacIntel,59.88023952,,,,,,,,,,,,,,,,,,,,,,,10,10,img/B10_10.jpg,MF,Press J if the face is MALE and K if the face is FEMALE, ,JK,,,,,,,,,,,,,,,,,,,,,,,,,,,,,,,,,,,,,,,,,,,,,,757.3659,0,83,83,109,1,109,0,0,0,0,1,98,,,,,,,,,,,,,,,,,,,,,,,,,,,,,,,,,,,,,,,,,,,,,,,,,,,,,,,,,,,,,,,,,,,,,,,,,,
,,,,163836,001,2024-02-07_20h01.49.687,fluency,2022.2.4,MacIntel,59.88023952,,,,,,,,,,,,,,,,,,,,,,,,,,,,,,,,,,,,,,,,,,,,,,,,,,,,,,,,,,,,,,,,,,,,,,,,,,,,,,,,,,0,0,0,0,1,,"[""k""]",[1.38819999998816],3,"[""k""]",[1.38819999998816],,,,,,,,,,,,,,,,,,,,,,,,,,,,,,,,,,,,,,,,,,,,,,,,,,,,,,,,,,,,,,,,,,,,,
,,,,163836,001,2024-02-07_20h01.49.687,fluency,2022.2.4,MacIntel,59.88023952,,,,,,,,,,,,,,,,,,,,,,,10,10,img/B10_10.jpg,MF,Press J if the face is MALE and K if the face is FEMALE, ,JK,,,,,,,,,,,,,,,,,,,,,,,,,,,,,,,,5,2.3636,,,,,,,,,,,,,,0,83,83,109,1,,,,,,,,,,,,,space,0.5379,,,,,,,,,,,,,,,,,,,,,,,,,,,,,,,,,,,,,,,,,,,,,,,,,,,,,,,,,,,,,,,,,,,
,,,,163836,001,2024-02-07_20h01.49.687,fluency,2022.2.4,MacIntel,59.88023952,,,,,,,,,,,,,,,,,,,,,,,7,6,img/B06_07.jpg,MF,Press J if the face is MALE and K if the face is FEMALE, ,JK,,,,,,,,,,,,,,,,,,,,,,,,,,,,,,,,,,,,,,,,,,,,,,765.3321,0,84,84,62,1,109,0,0,0,0,1,98,,,,,,,,,,,,,,,,,,,,,,,,,,,,,,,,,,,,,,,,,,,,,,,,,,,,,,,,,,,,,,,,,,,,,,,,,,
,,,,163836,001,2024-02-07_20h01.49.687,fluency,2022.2.4,MacIntel,59.88023952,,,,,,,,,,,,,,,,,,,,,,,,,,,,,,,,,,,,,,,,,,,,,,,,,,,,,,,,,,,,,,,,,,,,,,,,,,,,,,,,,,0,0,0,0,1,,"[""j""]",[1.6594000000357028],3,"[""j""]",[1.6593000000118536],,,,,,,,,,,,,,,,,,,,,,,,,,,,,,,,,,,,,,,,,,,,,,,,,,,,,,,,,,,,,,,,,,,,,
,,,,163836,001,2024-02-07_20h01.49.687,fluency,2022.2.4,MacIntel,59.88023952,,,,,,,,,,,,,,,,,,,,,,,7,6,img/B06_07.jpg,MF,Press J if the face is MALE and K if the face is FEMALE, ,JK,,,,,,,,,,,,,,,,,,,,,,,,,,,,,,,,3,1.5122,,,,,,,,,,,,,,0,84,84,62,1,,,,,,,,,,,,,space,0.7167,,,,,,,,,,,,,,,,,,,,,,,,,,,,,,,,,,,,,,,,,,,,,,,,,,,,,,,,,,,,,,,,,,,
,,,,163836,001,2024-02-07_20h01.49.687,fluency,2022.2.4,MacIntel,59.88023952,,,,,,,,,,,,,,,,,,,,,,,7,5,img/B05_07.jpg,MF,Press J if the face is MALE and K if the face is FEMALE, ,JK,,,,,,,,,,,,,,,,,,,,,,,,,,,,,,,,,,,,,,,,,,,,,,771.632,0,85,85,51,1,109,0,0,0,0,1,98,,,,,,,,,,,,,,,,,,,,,,,,,,,,,,,,,,,,,,,,,,,,,,,,,,,,,,,,,,,,,,,,,,,,,,,,,,
,,,,163836,001,2024-02-07_20h01.49.687,fluency,2022.2.4,MacIntel,59.88023952,,,,,,,,,,,,,,,,,,,,,,,,,,,,,,,,,,,,,,,,,,,,,,,,,,,,,,,,,,,,,,,,,,,,,,,,,,,,,,,,,,0,0,0,0,1,,"[""k""]",[1.67140000003576],3,"[""k""]",[1.67140000003576],,,,,,,,,,,,,,,,,,,,,,,,,,,,,,,,,,,,,,,,,,,,,,,,,,,,,,,,,,,,,,,,,,,,,
,,,,163836,001,2024-02-07_20h01.49.687,fluency,2022.2.4,MacIntel,59.88023952,,,,,,,,,,,,,,,,,,,,,,,7,5,img/B05_07.jpg,MF,Press J if the face is MALE and K if the face is FEMALE, ,JK,,,,,,,,,,,,,,,,,,,,,,,,,,,,,,,,5,0.5574,,,,,,,,,,,,,,0,85,85,51,1,,,,,,,,,,,,,space,0.4508,,,,,,,,,,,,,,,,,,,,,,,,,,,,,,,,,,,,,,,,,,,,,,,,,,,,,,,,,,,,,,,,,,,
,,,,163836,001,2024-02-07_20h01.49.687,fluency,2022.2.4,MacIntel,59.88023952,,,,,,,,,,,,,,,,,,,,,,,10,1,img/B01_10.jpg,MF,Press J if the face is MALE and K if the face is FEMALE, ,JK,,,,,,,,,,,,,,,,,,,,,,,,,,,,,,,,,,,,,,,,,,,,,,777.6986,0,86,86,10,1,109,0,0,0,0,1,98,,,,,,,,,,,,,,,,,,,,,,,,,,,,,,,,,,,,,,,,,,,,,,,,,,,,,,,,,,,,,,,,,,,,,,,,,,
,,,,163836,001,2024-02-07_20h01.49.687,fluency,2022.2.4,MacIntel,59.88023952,,,,,,,,,,,,,,,,,,,,,,,,,,,,,,,,,,,,,,,,,,,,,,,,,,,,,,,,,,,,,,,,,,,,,,,,,,,,,,,,,,0,0,0,0,1,,"[""k""]",[1.7553000000118573],3,"[""k""]",[1.7553999999761345],,,,,,,,,,,,,,,,,,,,,,,,,,,,,,,,,,,,,,,,,,,,,,,,,,,,,,,,,,,,,,,,,,,,,
,,,,163836,001,2024-02-07_20h01.49.687,fluency,2022.2.4,MacIntel,59.88023952,,,,,,,,,,,,,,,,,,,,,,,10,1,img/B01_10.jpg,MF,Press J if the face is MALE and K if the face is FEMALE, ,JK,,,,,,,,,,,,,,,,,,,,,,,,,,,,,,,,4,1.3257,,,,,,,,,,,,,,0,86,86,10,1,,,,,,,,,,,,,space,0.4172,,,,,,,,,,,,,,,,,,,,,,,,,,,,,,,,,,,,,,,,,,,,,,,,,,,,,,,,,,,,,,,,,,,
,,,,163836,001,2024-02-07_20h01.49.687,fluency,2022.2.4,MacIntel,59.88023952,,,,,,,,,,,,,,,,,,,,,,,9,4,img/B04_09.jpg,MF,Press J if the face is MALE and K if the face is FEMALE, ,JK,,,,,,,,,,,,,,,,,,,,,,,,,,,,,,,,,,,,,,,,,,,,,,784.5156,0,87,87,42,1,109,0,0,0,0,1,98,,,,,,,,,,,,,,,,,,,,,,,,,,,,,,,,,,,,,,,,,,,,,,,,,,,,,,,,,,,,,,,,,,,,,,,,,,
,,,,163836,001,2024-02-07_20h01.49.687,fluency,2022.2.4,MacIntel,59.88023952,,,,,,,,,,,,,,,,,,,,,,,,,,,,,,,,,,,,,,,,,,,,,,,,,,,,,,,,,,,,,,,,,,,,,,,,,,,,,,,,,,0,0,0,0,1,,"[""k""]",[1.7711999999880845],3,"[""k""]",[1.7711999999880845],,,,,,,,,,,,,,,,,,,,,,,,,,,,,,,,,,,,,,,,,,,,,,,,,,,,,,,,,,,,,,,,,,,,,
,,,,163836,001,2024-02-07_20h01.49.687,fluency,2022.2.4,MacIntel,59.88023952,,,,,,,,,,,,,,,,,,,,,,,9,4,img/B04_09.jpg,MF,Press J if the face is MALE and K if the face is FEMALE, ,JK,,,,,,,,,,,,,,,,,,,,,,,,,,,,,,,,2,0.9507,,,,,,,,,,,,,,0,87,87,42,1,,,,,,,,,,,,,space,0.668,,,,,,,,,,,,,,,,,,,,,,,,,,,,,,,,,,,,,,,,,,,,,,,,,,,,,,,,,,,,,,,,,,,
,,,,163836,001,2024-02-07_20h01.49.687,fluency,2022.2.4,MacIntel,59.88023952,,,,,,,,,,,,,,,,,,,,,,,0,6,img/B06_00.jpg,MF,Press J if the face is MALE and K if the face is FEMALE, ,JK,,,,,,,,,,,,,,,,,,,,,,,,,,,,,,,,,,,,,,,,,,,,,,790.1977,0,88,88,55,1,109,0,0,0,0,1,98,,,,,,,,,,,,,,,,,,,,,,,,,,,,,,,,,,,,,,,,,,,,,,,,,,,,,,,,,,,,,,,,,,,,,,,,,,
,,,,163836,001,2024-02-07_20h01.49.687,fluency,2022.2.4,MacIntel,59.88023952,,,,,,,,,,,,,,,,,,,,,,,,,,,,,,,,,,,,,,,,,,,,,,,,,,,,,,,,,,,,,,,,,,,,,,,,,,,,,,,,,,0,0,0,0,1,,"[""j""]",[0.8553999999761572],3,"[""j""]",[0.85530000001188],,,,,,,,,,,,,,,,,,,,,,,,,,,,,,,,,,,,,,,,,,,,,,,,,,,,,,,,,,,,,,,,,,,,,
,,,,163836,001,2024-02-07_20h01.49.687,fluency,2022.2.4,MacIntel,59.88023952,,,,,,,,,,,,,,,,,,,,,,,0,6,img/B06_00.jpg,MF,Press J if the face is MALE and K if the face is FEMALE, ,JK,,,,,,,,,,,,,,,,,,,,,,,,,,,,,,,,4,3.219,,,,,,,,,,,,,,0,88,88,55,1,,,,,,,,,,,,,space,0.1614,,,,,,,,,,,,,,,,,,,,,,,,,,,,,,,,,,,,,,,,,,,,,,,,,,,,,,,,,,,,,,,,,,,
,,,,163836,001,2024-02-07_20h01.49.687,fluency,2022.2.4,MacIntel,59.88023952,,,,,,,,,,,,,,,,,,,,,,,8,3,img/B03_08.jpg,MF,Press J if the face is MALE and K if the face is FEMALE, ,JK,,,,,,,,,,,,,,,,,,,,,,,,,,,,,,,,,,,,,,,,,,,,,,797.6141,0,89,89,30,1,109,0,0,0,0,1,98,,,,,,,,,,,,,,,,,,,,,,,,,,,,,,,,,,,,,,,,,,,,,,,,,,,,,,,,,,,,,,,,,,,,,,,,,,
,,,,163836,001,2024-02-07_20h01.49.687,fluency,2022.2.4,MacIntel,59.88023952,,,,,,,,,,,,,,,,,,,,,,,,,,,,,,,,,,,,,,,,,,,,,,,,,,,,,,,,,,,,,,,,,,,,,,,,,,,,,,,,,,0,0,0,0,1,,"[""k""]",[1.089100000023791],3,"[""k""]",[1.089100000023791],,,,,,,,,,,,,,,,,,,,,,,,,,,,,,,,,,,,,,,,,,,,,,,,,,,,,,,,,,,,,,,,,,,,,
,,,,163836,001,2024-02-07_20h01.49.687,fluency,2022.2.4,MacIntel,59.88023952,,,,,,,,,,,,,,,,,,,,,,,8,3,img/B03_08.jpg,MF,Press J if the face is MALE and K if the face is FEMALE, ,JK,,,,,,,,,,,,,,,,,,,,,,,,,,,,,,,,3,0.3281,,,,,,,,,,,,,,0,89,89,30,1,,,,,,,,,,,,,space,0.4845,,,,,,,,,,,,,,,,,,,,,,,,,,,,,,,,,,,,,,,,,,,,,,,,,,,,,,,,,,,,,,,,,,,
,,,,163836,001,2024-02-07_20h01.49.687,fluency,2022.2.4,MacIntel,59.88023952,,,,,,,,,,,,,,,,,,,,,,,3,10,img/B10_03.jpg,MF,Press J if the face is MALE and K if the face is FEMALE, ,JK,,,,,,,,,,,,,,,,,,,,,,,,,,,,,,,,,,,,,,,,,,,,,,802.4819,0,90,90,102,1,109,0,0,0,0,1,98,,,,,,,,,,,,,,,,,,,,,,,,,,,,,,,,,,,,,,,,,,,,,,,,,,,,,,,,,,,,,,,,,,,,,,,,,,
,,,,163836,001,2024-02-07_20h01.49.687,fluency,2022.2.4,MacIntel,59.88023952,,,,,,,,,,,,,,,,,,,,,,,,,,,,,,,,,,,,,,,,,,,,,,,,,,,,,,,,,,,,,,,,,,,,,,,,,,,,,,,,,,0,0,0,0,1,,"[""j""]",[1.2722999999523381],3,"[""j""]",[1.2722999999523381],,,,,,,,,,,,,,,,,,,,,,,,,,,,,,,,,,,,,,,,,,,,,,,,,,,,,,,,,,,,,,,,,,,,,
,,,,163836,001,2024-02-07_20h01.49.687,fluency,2022.2.4,MacIntel,59.88023952,,,,,,,,,,,,,,,,,,,,,,,3,10,img/B10_03.jpg,MF,Press J if the face is MALE and K if the face is FEMALE, ,JK,,,,,,,,,,,,,,,,,,,,,,,,,,,,,,,,7,0.3787,,,,,,,,,,,,,,0,90,90,102,1,,,,,,,,,,,,,space,0.8194,,,,,,,,,,,,,,,,,,,,,,,,,,,,,,,,,,,,,,,,,,,,,,,,,,,,,,,,,,,,,,,,,,,
,,,,163836,001,2024-02-07_20h01.49.687,fluency,2022.2.4,MacIntel,59.88023952,,,,,,,,,,,,,,,,,,,,,,,2,8,img/B08_02.jpg,MF,Press J if the face is MALE and K if the face is FEMALE, ,JK,,,,,,,,,,,,,,,,,,,,,,,,,,,,,,,,,,,,,,,,,,,,,,808.7307,0,91,91,79,1,109,0,0,0,0,1,98,,,,,,,,,,,,,,,,,,,,,,,,,,,,,,,,,,,,,,,,,,,,,,,,,,,,,,,,,,,,,,,,,,,,,,,,,,
,,,,163836,001,2024-02-07_20h01.49.687,fluency,2022.2.4,MacIntel,59.88023952,,,,,,,,,,,,,,,,,,,,,,,,,,,,,,,,,,,,,,,,,,,,,,,,,,,,,,,,,,,,,,,,,,,,,,,,,,,,,,,,,,0,0,0,0,1,,"[""k""]",[1.4504000000357564],3,"[""k""]",[1.4504000000357564],,,,,,,,,,,,,,,,,,,,,,,,,,,,,,,,,,,,,,,,,,,,,,,,,,,,,,,,,,,,,,,,,,,,,
,,,,163836,001,2024-02-07_20h01.49.687,fluency,2022.2.4,MacIntel,59.88023952,,,,,,,,,,,,,,,,,,,,,,,2,8,img/B08_02.jpg,MF,Press J if the face is MALE and K if the face is FEMALE, ,JK,,,,,,,,,,,,,,,,,,,,,,,,,,,,,,,,3,0.3148,,,,,,,,,,,,,,0,91,91,79,1,,,,,,,,,,,,,space,0.5511,,,,,,,,,,,,,,,,,,,,,,,,,,,,,,,,,,,,,,,,,,,,,,,,,,,,,,,,,,,,,,,,,,,
,,,,163836,001,2024-02-07_20h01.49.687,fluency,2022.2.4,MacIntel,59.88023952,,,,,,,,,,,,,,,,,,,,,,,8,7,img/B07_08.jpg,MF,Press J if the face is MALE and K if the face is FEMALE, ,JK,,,,,,,,,,,,,,,,,,,,,,,,,,,,,,,,,,,,,,,,,,,,,,813.6484,0,92,92,74,1,109,0,0,0,0,1,98,,,,,,,,,,,,,,,,,,,,,,,,,,,,,,,,,,,,,,,,,,,,,,,,,,,,,,,,,,,,,,,,,,,,,,,,,,
,,,,163836,001,2024-02-07_20h01.49.687,fluency,2022.2.4,MacIntel,59.88023952,,,,,,,,,,,,,,,,,,,,,,,,,,,,,,,,,,,,,,,,,,,,,,,,,,,,,,,,,,,,,,,,,,,,,,,,,,,,,,,,,,0,0,0,0,1,,"[""k""]",[1.9046000000238337],3,"[""k""]",[1.9044999999999845],,,,,,,,,,,,,,,,,,,,,,,,,,,,,,,,,,,,,,,,,,,,,,,,,,,,,,,,,,,,,,,,,,,,,
