idTextbox.text,welcomeDone.numClicks,welcomeDone.timesOn,welcomeDone.timesOff,participant,session,date,expName,psychopyVersion,OS,frameRate,consent_advance.keys,consent_advance.rt,consent_advance_2.keys,consent_advance_2.rt,consentClick.x,consentClick.y,consentClick.leftButton,consentClick.midButton,consentClick.rightButton,consentClick.time,consentClick.clicked_name,instr_advance_3.keys,instr_advance_3.rt,spec_instr_adv.keys,spec_instr_adv.rt,spec_instr_adv2.keys,spec_instr_adv2.rt,instrLoop.thisRepN,instrLoop.thisTrialN,instrLoop.thisN,instrLoop.thisIndex,instrLoop.ran,steps,fams,face_file,cond,instr,term,key_map,attnKeyResp1.keys,attnKeyResp1.rt,q1.thisRepN,q1.thisTrialN,q1.thisN,q1.thisIndex,q1.ran,attnKeyResp2.keys,attnKeyResp2.rt,q2.thisRepN,q2.thisTrialN,q2.thisN,q2.thisIndex,q2.ran,attnKeyResp3.keys,attnKeyResp3.rt,q3.thisRepN,q3.thisTrialN,q3.thisN,q3.thisIndex,q3.ran,practiceStart.keys,practiceStart.rt,practiceResp.keys,practiceResp.rt,timesRedone,practiceRepeat.thisRepN,practiceRepeat.thisTrialN,practiceRepeat.thisN,practiceRepeat.thisIndex,practiceRepeat.ran,attrRating.keys,attrRating.rt,practiceTrial.thisRepN,practiceTrial.thisTrialN,practiceTrial.thisN,practiceTrial.thisIndex,practiceTrial.ran,key_resp_3.keys,key_resp_3.rt,attnChecker.thisRepN,attnChecker.thisTrialN,attnChecker.thisN,attnChecker.thisIndex,attnChecker.ran,faceOnsetTime,trials.thisRepN,trials.thisTrialN,trials.thisN,trials.thisIndex,trials.ran,trials.order,repeat_loop.thisRepN,repeat_loop.thisTrialN,repeat_loop.thisN,repeat_loop.thisIndex,repeat_loop.ran,repeat_loop.order,catResp.keys,catResp.rt,globalTimesRedone,catAllKeys.keys,catAllKeys.rt,contResp.keys,contResp.rt,redo_keypress.keys,redo_keypress.rt,redo_feedback_loop.thisRepN,redo_feedback_loop.thisTrialN,redo_feedback_loop.thisN,redo_feedback_loop.thisIndex,redo_feedback_loop.ran,contResp_2.keys,contResp_2.rt,respQ1.response,respQ1.rt,respQ2.response,respQ2.rt,respQ3.response,respQ3.rt,respQ4.response,respQ4.rt,surveyContinue1.numClicks,surveyContinue1.timesOn,surveyContinue1.timesOff,respQ5.response,respQ5.rt,respQ6.response,respQ6.rt,respQ7.response,respQ7.rt,respQ8.response,respQ8.rt,surveyContinue2.numClicks,surveyContinue2.timesOn,surveyContinue2.timesOff,respQ9.response,respQ9.rt,respQ10.response,respQ10.rt,respQ11.response,respQ11.rt,respQ12.response,respQ12.rt,surveyContinue3.numClicks,surveyContinue3.timesOn,surveyContinue3.timesOff,respQ13.response,respQ13.rt,respQ14.response,respQ14.rt,respQ15.response,respQ15.rt,surveyContinue4.numClicks,surveyContinue4.timesOn,surveyContinue4.timesOff,respAge.response,respAge.rt,genderResp1.response,genderResp1.rt,genderResp2.text,demogexitClick.numClicks,demogexitClick.timesOn,demogexitClick.timesOff,textbox.text,openAnswerClick.numClicks,openAnswerClick.timesOn,openAnswerClick.timesOff,debriefEnd.keys,debriefEnd.rt,exitKey.keys,exitKey.rt
608b16c5a5e10412a7c2d67c,1,[9.807799999952316],[9.807799999952316],020389,001,2024-02-07_22h02.19.607,fluency,2022.2.4,Win32,59.88023952,,,,,,,,,,,,,,,,,,,,,,,,,,,,,,,,,,,,,,,,,,,,,,,,,,,,,,,,,,,,,,,,,,,,,,,,,,,,,,,,,,,,,,,,,,,,,,,,,,,,,,,,,,,,,,,,,,,,,,,,,,,,,,,,,,,,,,,,,,,,,,,,,,,,,,,,,,,,,,,,,
,,,,020389,001,2024-02-07_22h02.19.607,fluency,2022.2.4,Win32,59.88023952,space,34.9949,,,,,,,,,,,,,,,,,,,,,,,,,,,,,,,,,,,,,,,,,,,,,,,,,,,,,,,,,,,,,,,,,,,,,,,,,,,,,,,,,,,,,,,,,,,,,,,,,,,,,,,,,,,,,,,,,,,,,,,,,,,,,,,,,,,,,,,,,,,,,,,,,,,,,,,,,,,,,,,
,,,,020389,001,2024-02-07_22h02.19.607,fluency,2022.2.4,Win32,59.88023952,,,space,23.3194,,,,,,,,,,,,,,,,,,,,,,,,,,,,,,,,,,,,,,,,,,,,,,,,,,,,,,,,,,,,,,,,,,,,,,,,,,,,,,,,,,,,,,,,,,,,,,,,,,,,,,,,,,,,,,,,,,,,,,,,,,,,,,,,,,,,,,,,,,,,,,,,,,,,,,,,,,,,,
,,,,020389,001,2024-02-07_22h02.19.607,fluency,2022.2.4,Win32,59.88023952,,,,,0.337962963,-0.324074074,1,0,0,27.9404,iAgree,,,,,,,,,,,,,,,,,,,,,,,,,,,,,,,,,,,,,,,,,,,,,,,,,,,,,,,,,,,,,,,,,,,,,,,,,,,,,,,,,,,,,,,,,,,,,,,,,,,,,,,,,,,,,,,,,,,,,,,,,,,,,,,,,,,,,,,,,,,,,,,,,,,,,,
,,,,020389,001,2024-02-07_22h02.19.607,fluency,2022.2.4,Win32,59.88023952,,,,,,,,,,,,space,16.9748,,,,,,,,,,,,,,,,,,,,,,,,,,,,,,,,,,,,,,,,,,,,,,,,,,,,,,,,,,,,,,,,,,,,,,,,,,,,,,,,,,,,,,,,,,,,,,,,,,,,,,,,,,,,,,,,,,,,,,,,,,,,,,,,,,,,,,,,,,,,,,,,,,,,
,,,,020389,001,2024-02-07_22h02.19.607,fluency,2022.2.4,Win32,59.88023952,,,,,,,,,,,,,,space,18.0106,space,12.0524,0,0,0,47,1,3,5,img/B05_03.jpg,MF,Press J if the face is FEMALE and K if the face is MALE, ,KJ,,,,,,,,,,,,,,,,,,,,,,,,,,,,,,,,,,,,,,,,,,,,,,,,,,,,,,,,,,,,,,,,,,,,,,,,,,,,,,,,,,,,,,,,,,,,,,,,,,,,,,,,,,,,,,,,,,,,,,,,,,,,,,,,,,,,
,,,,020389,001,2024-02-07_22h02.19.607,fluency,2022.2.4,Win32,59.88023952,,,,,,,,,,,,,,,,,,,,,,,,,,,,,,c,11.1164,0,0,0,0,1,,,,,,,,,,,,,,,,,,,,,,,,,,,,,,,,,,,,,,,,,,,,,,,,,,,,,,,,,,,,,,,,,,,,,,,,,,,,,,,,,,,,,,,,,,,,,,,,,,,,,,,,,,,,,,,,,,,,,,,,,,,,,
,,,,020389,001,2024-02-07_22h02.19.607,fluency,2022.2.4,Win32,59.88023952,,,,,,,,,,,,,,,,,,,,,,,,,,,,,,,,,,,,,a,4.2211,0,0,0,0,1,,,,,,,,,,,,,,,,,,,,,,,,,,,,,,,,,,,,,,,,,,,,,,,,,,,,,,,,,,,,,,,,,,,,,,,,,,,,,,,,,,,,,,,,,,,,,,,,,,,,,,,,,,,,,,,,,,,,,,
,,,,020389,001,2024-02-07_22h02.19.607,fluency,2022.2.4,Win32,59.88023952,,,,,,,,,,,,,,,,,,,,,,,,,,,,,,,,,,,,,,,,,,,,c,5.8974,0,0,0,0,1,,,,,,,,,,,,,,,,,,,,,,,,,,,,,,,,,,,,,,,,,,,,,,,,,,,,,,,,,,,,,,,,,,,,,,,,,,,,,,,,,,,,,,,,,,,,,,,,,,,,,,,,,,,,,,,
,,,,020389,001,2024-02-07_22h02.19.607,fluency,2022.2.4,Win32,59.88023952,,,,,,,,,,,,,,,,,,,,,,,,,,,,,,,,,,,,,,,,,,,,,,,,,,,space,1.1521,k,2.2472,0,0,0,0,0,1,,,,,,,,,,,,,,,,,,,,,,,,,,,,,,,,,,,,,,,,,,,,,,,,,,,,,,,,,,,,,,,,,,,,,,,,,,,,,,,,,,,,,,,,,,,,,,,,,,,,,
,,,,020389,001,2024-02-07_22h02.19.607,fluency,2022.2.4,Win32,59.88023952,,,,,,,,,,,,,,,,,,,,,,,,,,,,,,,,,,,,,,,,,,,,,,,,,,,,,,,,,,,,,4,6.3117,0,0,0,0,1,,,,,,,,,,,,,,,,,,,,,,,,,,,,,,,,,,,,,,,,,,,,,,,,,,,,,,,,,,,,,,,,,,,,,,,,,,,,,,,,,,,,,,,,,,,,,,
,,,,020389,001,2024-02-07_22h02.19.607,fluency,2022.2.4,Win32,59.88023952,,,,,,,,,,,,,,,,,,,,,,,,,,,,,,,,,,,,,,,,,,,,,,,,,,,,,,,,,,,,,,,,,,,,space,7.8279,0,0,0,0,1,,,,,,,,,,,,,,,,,,,,,,,,,,,,,,,,,,,,,,,,,,,,,,,,,,,,,,,,,,,,,,,,,,,,,,,,,,,,,,,,,,,,,,,
,,,,020389,001,2024-02-07_22h02.19.607,fluency,2022.2.4,Win32,59.88023952,,,,,,,,,,,,,,,,,,,,,,,0,3,img/B03_00.jpg,MF,Press J if the face is FEMALE and K if the face is MALE, ,KJ,,,,,,,,,,,,,,,,,,,,,,,,,,,,,,,,,,,,,,,,,,,,,,203.1213,0,0,0,22,1,109,0,0,0,0,1,98,,,,,,,,,,,,,,,,,,,,,,,,,,,,,,,,,,,,,,,,,,,,,,,,,,,,,,,,,,,,,,,,,,,,,,,,,,
,,,,020389,001,2024-02-07_22h02.19.607,fluency,2022.2.4,Win32,59.88023952,,,,,,,,,,,,,,,,,,,,,,,,,,,,,,,,,,,,,,,,,,,,,,,,,,,,,,,,,,,,,,,,,,,,,,,,,,,,,,,,,,0,0,0,0,1,,"[""k""]",[0.9308999998569334],0,"[""k""]",[0.9308999998569334],,,,,,,,,,,,,,,,,,,,,,,,,,,,,,,,,,,,,,,,,,,,,,,,,,,,,,,,,,,,,,,,,,,,,
,,,,020389,001,2024-02-07_22h02.19.607,fluency,2022.2.4,Win32,59.88023952,,,,,,,,,,,,,,,,,,,,,,,0,3,img/B03_00.jpg,MF,Press J if the face is FEMALE and K if the face is MALE, ,KJ,,,,,,,,,,,,,,,,,,,,,,,,,,,,,,,,6,0.0423,,,,,,,,,,,,,,0,0,0,22,1,,,,,,,,,,,,,space,5.7459,,,,,,,,,,,,,,,,,,,,,,,,,,,,,,,,,,,,,,,,,,,,,,,,,,,,,,,,,,,,,,,,,,,
,,,,020389,001,2024-02-07_22h02.19.607,fluency,2022.2.4,Win32,59.88023952,,,,,,,,,,,,,,,,,,,,,,,8,9,img/B09_08.jpg,MF,Press J if the face is FEMALE and K if the face is MALE, ,KJ,,,,,,,,,,,,,,,,,,,,,,,,,,,,,,,,,,,,,,,,,,,,,,213.9879,0,1,1,96,1,109,0,0,0,0,1,98,,,,,,,,,,,,,,,,,,,,,,,,,,,,,,,,,,,,,,,,,,,,,,,,,,,,,,,,,,,,,,,,,,,,,,,,,,
,,,,020389,001,2024-02-07_22h02.19.607,fluency,2022.2.4,Win32,59.88023952,,,,,,,,,,,,,,,,,,,,,,,,,,,,,,,,,,,,,,,,,,,,,,,,,,,,,,,,,,,,,,,,,,,,,,,,,,,,,,,,,,0,0,0,0,1,,"[""j""]",[1.186700000047722],0,"[""j""]",[1.1865999999046721],,,,,,,,,,,,,,,,,,,,,,,,,,,,,,,,,,,,,,,,,,,,,,,,,,,,,,,,,,,,,,,,,,,,,
,,,,020389,001,2024-02-07_22h02.19.607,fluency,2022.2.4,Win32,59.88023952,,,,,,,,,,,,,,,,,,,,,,,8,9,img/B09_08.jpg,MF,Press J if the face is FEMALE and K if the face is MALE, ,KJ,,,,,,,,,,,,,,,,,,,,,,,,,,,,,,,,8,2.0583,,,,,,,,,,,,,,0,1,1,96,1,,,,,,,,,,,,,space,4.788,,,,,,,,,,,,,,,,,,,,,,,,,,,,,,,,,,,,,,,,,,,,,,,,,,,,,,,,,,,,,,,,,,,
,,,,020389,001,2024-02-07_22h02.19.607,fluency,2022.2.4,Win32,59.88023952,,,,,,,,,,,,,,,,,,,,,,,7,1,img/B01_07.jpg,MF,Press J if the face is FEMALE and K if the face is MALE, ,KJ,,,,,,,,,,,,,,,,,,,,,,,,,,,,,,,,,,,,,,,,,,,,,,224.9001,0,2,2,7,1,109,0,0,0,0,1,98,,,,,,,,,,,,,,,,,,,,,,,,,,,,,,,,,,,,,,,,,,,,,,,,,,,,,,,,,,,,,,,,,,,,,,,,,,
,,,,020389,001,2024-02-07_22h02.19.607,fluency,2022.2.4,Win32,59.88023952,,,,,,,,,,,,,,,,,,,,,,,,,,,,,,,,,,,,,,,,,,,,,,,,,,,,,,,,,,,,,,,,,,,,,,,,,,,,,,,,,,0,0,0,0,1,,"[""j""]",[0.9909999999999854],0,"[""j"",""6""]","[0.9908999998569357,2.6865000000000236]",,,,,,,,,,,,,,,,,,,,,,,,,,,,,,,,,,,,,,,,,,,,,,,,,,,,,,,,,,,,,,,,,,,,,
,,,,020389,001,2024-02-07_22h02.19.607,fluency,2022.2.4,Win32,59.88023952,,,,,,,,,,,,,,,,,,,,,,,7,1,img/B01_07.jpg,MF,Press J if the face is FEMALE and K if the face is MALE, ,KJ,,,,,,,,,,,,,,,,,,,,,,,,,,,,,,,,6,3.9144,,,,,,,,,,,,,,0,2,2,7,1,,,,,,,,,,,,,space,1.7976,,,,,,,,,,,,,,,,,,,,,,,,,,,,,,,,,,,,,,,,,,,,,,,,,,,,,,,,,,,,,,,,,,,
,,,,020389,001,2024-02-07_22h02.19.607,fluency,2022.2.4,Win32,59.88023952,,,,,,,,,,,,,,,,,,,,,,,10,4,img/B04_10.jpg,MF,Press J if the face is FEMALE and K if the face is MALE, ,KJ,,,,,,,,,,,,,,,,,,,,,,,,,,,,,,,,,,,,,,,,,,,,,,234.7005,0,3,3,43,1,109,0,0,0,0,1,98,,,,,,,,,,,,,,,,,,,,,,,,,,,,,,,,,,,,,,,,,,,,,,,,,,,,,,,,,,,,,,,,,,,,,,,,,,
,,,,020389,001,2024-02-07_22h02.19.607,fluency,2022.2.4,Win32,59.88023952,,,,,,,,,,,,,,,,,,,,,,,,,,,,,,,,,,,,,,,,,,,,,,,,,,,,,,,,,,,,,,,,,,,,,,,,,,,,,,,,,,0,0,0,0,1,,"[""j""]",[0.7727999999523263],0,"[""j""]",[0.7728999998569748],,,,,,,,,,,,,,,,,,,,,,,,,,,,,,,,,,,,,,,,,,,,,,,,,,,,,,,,,,,,,,,,,,,,,
,,,,020389,001,2024-02-07_22h02.19.607,fluency,2022.2.4,Win32,59.88023952,,,,,,,,,,,,,,,,,,,,,,,10,4,img/B04_10.jpg,MF,Press J if the face is FEMALE and K if the face is MALE, ,KJ,,,,,,,,,,,,,,,,,,,,,,,,,,,,,,,,3,1.9449,,,,,,,,,,,,,,0,3,3,43,1,,,,,,,,,,,,,space,3.9419,,,,,,,,,,,,,,,,,,,,,,,,,,,,,,,,,,,,,,,,,,,,,,,,,,,,,,,,,,,,,,,,,,,
,,,,020389,001,2024-02-07_22h02.19.607,fluency,2022.2.4,Win32,59.88023952,,,,,,,,,,,,,,,,,,,,,,,10,7,img/B07_10.jpg,MF,Press J if the face is FEMALE and K if the face is MALE, ,KJ,,,,,,,,,,,,,,,,,,,,,,,,,,,,,,,,,,,,,,,,,,,,,,245.6681,0,4,4,76,1,109,0,0,0,0,1,98,,,,,,,,,,,,,,,,,,,,,,,,,,,,,,,,,,,,,,,,,,,,,,,,,,,,,,,,,,,,,,,,,,,,,,,,,,
,,,,020389,001,2024-02-07_22h02.19.607,fluency,2022.2.4,Win32,59.88023952,,,,,,,,,,,,,,,,,,,,,,,,,,,,,,,,,,,,,,,,,,,,,,,,,,,,,,,,,,,,,,,,,,,,,,,,,,,,,,,,,,0,0,0,0,1,,"[""j""]",[0.6972999999523495],0,"[""j""]",[0.6972999999523495],,,,,,,,,,,,,,,,,,,,,,,,,,,,,,,,,,,,,,,,,,,,,,,,,,,,,,,,,,,,,,,,,,,,,
,,,,020389,001,2024-02-07_22h02.19.607,fluency,2022.2.4,Win32,59.88023952,,,,,,,,,,,,,,,,,,,,,,,10,7,img/B07_10.jpg,MF,Press J if the face is FEMALE and K if the face is MALE, ,KJ,,,,,,,,,,,,,,,,,,,,,,,,,,,,,,,,3,1.9202,,,,,,,,,,,,,,0,4,4,76,1,,,,,,,,,,,,,space,1.4483,,,,,,,,,,,,,,,,,,,,,,,,,,,,,,,,,,,,,,,,,,,,,,,,,,,,,,,,,,,,,,,,,,,
,,,,020389,001,2024-02-07_22h02.19.607,fluency,2022.2.4,Win32,59.88023952,,,,,,,,,,,,,,,,,,,,,,,6,3,img/B03_06.jpg,MF,Press J if the face is FEMALE and K if the face is MALE, ,KJ,,,,,,,,,,,,,,,,,,,,,,,,,,,,,,,,,,,,,,,,,,,,,,254.1143,0,5,5,28,1,109,0,0,0,0,1,98,,,,,,,,,,,,,,,,,,,,,,,,,,,,,,,,,,,,,,,,,,,,,,,,,,,,,,,,,,,,,,,,,,,,,,,,,,
,,,,020389,001,2024-02-07_22h02.19.607,fluency,2022.2.4,Win32,59.88023952,,,,,,,,,,,,,,,,,,,,,,,,,,,,,,,,,,,,,,,,,,,,,,,,,,,,,,,,,,,,,,,,,,,,,,,,,,,,,,,,,,0,0,0,0,1,,"[""j""]",[0.9611000001430625],0,"[""j""]",[0.9609000000953642],,,,,,,,,,,,,,,,,,,,,,,,,,,,,,,,,,,,,,,,,,,,,,,,,,,,,,,,,,,,,,,,,,,,,
,,,,020389,001,2024-02-07_22h02.19.607,fluency,2022.2.4,Win32,59.88023952,,,,,,,,,,,,,,,,,,,,,,,6,3,img/B03_06.jpg,MF,Press J if the face is FEMALE and K if the face is MALE, ,KJ,,,,,,,,,,,,,,,,,,,,,,,,,,,,,,,,4,0.711,,,,,,,,,,,,,,0,5,5,28,1,,,,,,,,,,,,,space,1.0719,,,,,,,,,,,,,,,,,,,,,,,,,,,,,,,,,,,,,,,,,,,,,,,,,,,,,,,,,,,,,,,,,,,
,,,,020389,001,2024-02-07_22h02.19.607,fluency,2022.2.4,Win32,59.88023952,,,,,,,,,,,,,,,,,,,,,,,5,1,img/B01_05.jpg,MF,Press J if the face is FEMALE and K if the face is MALE, ,KJ,,,,,,,,,,,,,,,,,,,,,,,,,,,,,,,,,,,,,,,,,,,,,,260.9614,0,6,6,5,1,109,0,0,0,0,1,98,,,,,,,,,,,,,,,,,,,,,,,,,,,,,,,,,,,,,,,,,,,,,,,,,,,,,,,,,,,,,,,,,,,,,,,,,,
,,,,020389,001,2024-02-07_22h02.19.607,fluency,2022.2.4,Win32,59.88023952,,,,,,,,,,,,,,,,,,,,,,,,,,,,,,,,,,,,,,,,,,,,,,,,,,,,,,,,,,,,,,,,,,,,,,,,,,,,,,,,,,0,0,0,0,1,,"[""j""]",[0.8904999999999745],0,"[""j""]",[0.890599999904623],,,,,,,,,,,,,,,,,,,,,,,,,,,,,,,,,,,,,,,,,,,,,,,,,,,,,,,,,,,,,,,,,,,,,
,,,,020389,001,2024-02-07_22h02.19.607,fluency,2022.2.4,Win32,59.88023952,,,,,,,,,,,,,,,,,,,,,,,5,1,img/B01_05.jpg,MF,Press J if the face is FEMALE and K if the face is MALE, ,KJ,,,,,,,,,,,,,,,,,,,,,,,,,,,,,,,,3,2.1215,,,,,,,,,,,,,,0,6,6,5,1,,,,,,,,,,,,,space,2.0795,,,,,,,,,,,,,,,,,,,,,,,,,,,,,,,,,,,,,,,,,,,,,,,,,,,,,,,,,,,,,,,,,,,
,,,,020389,001,2024-02-07_22h02.19.607,fluency,2022.2.4,Win32,59.88023952,,,,,,,,,,,,,,,,,,,,,,,0,8,img/B08_00.jpg,MF,Press J if the face is FEMALE and K if the face is MALE, ,KJ,,,,,,,,,,,,,,,,,,,,,,,,,,,,,,,,,,,,,,,,,,,,,,270.2365,0,7,7,77,1,109,0,0,0,0,1,98,,,,,,,,,,,,,,,,,,,,,,,,,,,,,,,,,,,,,,,,,,,,,,,,,,,,,,,,,,,,,,,,,,,,,,,,,,
,,,,020389,001,2024-02-07_22h02.19.607,fluency,2022.2.4,Win32,59.88023952,,,,,,,,,,,,,,,,,,,,,,,,,,,,,,,,,,,,,,,,,,,,,,,,,,,,,,,,,,,,,,,,,,,,,,,,,,,,,,,,,,0,0,0,0,1,,"[""j""]",[0.8254000000953852],0,"[""j""]",[0.8255000000000337],,,,,,,,,,,,,,,,,,,,,,,,,,,,,,,,,,,,,,,,,,,,,,,,,,,,,,,,,,,,,,,,,,,,,
,,,,020389,001,2024-02-07_22h02.19.607,fluency,2022.2.4,Win32,59.88023952,,,,,,,,,,,,,,,,,,,,,,,0,8,img/B08_00.jpg,MF,Press J if the face is FEMALE and K if the face is MALE, ,KJ,,,,,,,,,,,,,,,,,,,,,,,,,,,,,,,,3,4.6458,,,,,,,,,,,,,,0,7,7,77,1,,,,,,,,,,,,,space,0.833,,,,,,,,,,,,,,,,,,,,,,,,,,,,,,,,,,,,,,,,,,,,,,,,,,,,,,,,,,,,,,,,,,,
,,,,020389,001,2024-02-07_22h02.19.607,fluency,2022.2.4,Win32,59.88023952,,,,,,,,,,,,,,,,,,,,,,,0,9,img/B09_00.jpg,MF,Press J if the face is FEMALE and K if the face is MALE, ,KJ,,,,,,,,,,,,,,,,,,,,,,,,,,,,,,,,,,,,,,,,,,,,,,279.8108,0,8,8,88,1,109,0,0,0,0,1,98,,,,,,,,,,,,,,,,,,,,,,,,,,,,,,,,,,,,,,,,,,,,,,,,,,,,,,,,,,,,,,,,,,,,,,,,,,
,,,,020389,001,2024-02-07_22h02.19.607,fluency,2022.2.4,Win32,59.88023952,,,,,,,,,,,,,,,,,,,,,,,,,,,,,,,,,,,,,,,,,,,,,,,,,,,,,,,,,,,,,,,,,,,,,,,,,,,,,,,,,,0,0,0,0,1,,"[""k""]",[1.2110999999046612],0,"[""k""]",[1.2110999999046612],,,,,,,,,,,,,,,,,,,,,,,,,,,,,,,,,,,,,,,,,,,,,,,,,,,,,,,,,,,,,,,,,,,,,
,,,,020389,001,2024-02-07_22h02.19.607,fluency,2022.2.4,Win32,59.88023952,,,,,,,,,,,,,,,,,,,,,,,0,9,img/B09_00.jpg,MF,Press J if the face is FEMALE and K if the face is MALE, ,KJ,,,,,,,,,,,,,,,,,,,,,,,,,,,,,,,,4,2.7567,,,,,,,,,,,,,,0,8,8,88,1,,,,,,,,,,,,,space,0.9659,,,,,,,,,,,,,,,,,,,,,,,,,,,,,,,,,,,,,,,,,,,,,,,,,,,,,,,,,,,,,,,,,,,
,,,,020389,001,2024-02-07_22h02.19.607,fluency,2022.2.4,Win32,59.88023952,,,,,,,,,,,,,,,,,,,,,,,5,3,img/B03_05.jpg,MF,Press J if the face is FEMALE and K if the face is MALE, ,KJ,,,,,,,,,,,,,,,,,,,,,,,,,,,,,,,,,,,,,,,,,,,,,,287.6225,0,9,9,27,1,109,0,0,0,0,1,98,,,,,,,,,,,,,,,,,,,,,,,,,,,,,,,,,,,,,,,,,,,,,,,,,,,,,,,,,,,,,,,,,,,,,,,,,,
,,,,020389,001,2024-02-07_22h02.19.607,fluency,2022.2.4,Win32,59.88023952,,,,,,,,,,,,,,,,,,,,,,,,,,,,,,,,,,,,,,,,,,,,,,,,,,,,,,,,,,,,,,,,,,,,,,,,,,,,,,,,,,0,0,0,0,1,,"[""j""]",[1.2936000001430443],0,"[""j""]",[1.2936000001430443],,,,,,,,,,,,,,,,,,,,,,,,,,,,,,,,,,,,,,,,,,,,,,,,,,,,,,,,,,,,,,,,,,,,,
,,,,020389,001,2024-02-07_22h02.19.607,fluency,2022.2.4,Win32,59.88023952,,,,,,,,,,,,,,,,,,,,,,,5,3,img/B03_05.jpg,MF,Press J if the face is FEMALE and K if the face is MALE, ,KJ,,,,,,,,,,,,,,,,,,,,,,,,,,,,,,,,4,1.7295,,,,,,,,,,,,,,0,9,9,27,1,,,,,,,,,,,,,space,1.3989,,,,,,,,,,,,,,,,,,,,,,,,,,,,,,,,,,,,,,,,,,,,,,,,,,,,,,,,,,,,,,,,,,,
,,,,020389,001,2024-02-07_22h02.19.607,fluency,2022.2.4,Win32,59.88023952,,,,,,,,,,,,,,,,,,,,,,,1,9,img/B09_01.jpg,MF,Press J if the face is FEMALE and K if the face is MALE, ,KJ,,,,,,,,,,,,,,,,,,,,,,,,,,,,,,,,,,,,,,,,,,,,,,294.8357,0,10,10,89,1,109,0,0,0,0,1,98,,,,,,,,,,,,,,,,,,,,,,,,,,,,,,,,,,,,,,,,,,,,,,,,,,,,,,,,,,,,,,,,,,,,,,,,,,
,,,,020389,001,2024-02-07_22h02.19.607,fluency,2022.2.4,Win32,59.88023952,,,,,,,,,,,,,,,,,,,,,,,,,,,,,,,,,,,,,,,,,,,,,,,,,,,,,,,,,,,,,,,,,,,,,,,,,,,,,,,,,,0,0,0,0,1,,"[""k""]",[1.545000000000016],0,"[""k""]",[1.545000000000016],,,,,,,,,,,,,,,,,,,,,,,,,,,,,,,,,,,,,,,,,,,,,,,,,,,,,,,,,,,,,,,,,,,,,
,,,,020389,001,2024-02-07_22h02.19.607,fluency,2022.2.4,Win32,59.88023952,,,,,,,,,,,,,,,,,,,,,,,1,9,img/B09_01.jpg,MF,Press J if the face is FEMALE and K if the face is MALE, ,KJ,,,,,,,,,,,,,,,,,,,,,,,,,,,,,,,,4,0.872,,,,,,,,,,,,,,0,10,10,89,1,,,,,,,,,,,,,space,0.9173,,,,,,,,,,,,,,,,,,,,,,,,,,,,,,,,,,,,,,,,,,,,,,,,,,,,,,,,,,,,,,,,,,,
,,,,020389,001,2024-02-07_22h02.19.607,fluency,2022.2.4,Win32,59.88023952,,,,,,,,,,,,,,,,,,,,,,,9,3,img/B03_09.jpg,MF,Press J if the face is FEMALE and K if the face is MALE, ,KJ,,,,,,,,,,,,,,,,,,,,,,,,,,,,,,,,,,,,,,,,,,,,,,300.6839,0,11,11,31,1,109,0,0,0,0,1,98,,,,,,,,,,,,,,,,,,,,,,,,,,,,,,,,,,,,,,,,,,,,,,,,,,,,,,,,,,,,,,,,,,,,,,,,,,
,,,,020389,001,2024-02-07_22h02.19.607,fluency,2022.2.4,Win32,59.88023952,,,,,,,,,,,,,,,,,,,,,,,,,,,,,,,,,,,,,,,,,,,,,,,,,,,,,,,,,,,,,,,,,,,,,,,,,,,,,,,,,,0,0,0,0,1,,"[""j""]",[0.967700000047671],0,"[""j""]",[0.9677999999523195],,,,,,,,,,,,,,,,,,,,,,,,,,,,,,,,,,,,,,,,,,,,,,,,,,,,,,,,,,,,,,,,,,,,,
,,,,020389,001,2024-02-07_22h02.19.607,fluency,2022.2.4,Win32,59.88023952,,,,,,,,,,,,,,,,,,,,,,,9,3,img/B03_09.jpg,MF,Press J if the face is FEMALE and K if the face is MALE, ,KJ,,,,,,,,,,,,,,,,,,,,,,,,,,,,,,,,4,0.5939,,,,,,,,,,,,,,0,11,11,31,1,,,,,,,,,,,,,space,3.3044,,,,,,,,,,,,,,,,,,,,,,,,,,,,,,,,,,,,,,,,,,,,,,,,,,,,,,,,,,,,,,,,,,,
,,,,020389,001,2024-02-07_22h02.19.607,fluency,2022.2.4,Win32,59.88023952,,,,,,,,,,,,,,,,,,,,,,,0,4,img/B04_00.jpg,MF,Press J if the face is FEMALE and K if the face is MALE, ,KJ,,,,,,,,,,,,,,,,,,,,,,,,,,,,,,,,,,,,,,,,,,,,,,308.6649,0,12,12,33,1,109,0,0,0,0,1,98,,,,,,,,,,,,,,,,,,,,,,,,,,,,,,,,,,,,,,,,,,,,,,,,,,,,,,,,,,,,,,,,,,,,,,,,,,
,,,,020389,001,2024-02-07_22h02.19.607,fluency,2022.2.4,Win32,59.88023952,,,,,,,,,,,,,,,,,,,,,,,,,,,,,,,,,,,,,,,,,,,,,,,,,,,,,,,,,,,,,,,,,,,,,,,,,,,,,,,,,,0,0,0,0,1,,"[""k""]",[1.011599999904604],0,"[""k""]",[1.011599999904604],,,,,,,,,,,,,,,,,,,,,,,,,,,,,,,,,,,,,,,,,,,,,,,,,,,,,,,,,,,,,,,,,,,,,
,,,,020389,001,2024-02-07_22h02.19.607,fluency,2022.2.4,Win32,59.88023952,,,,,,,,,,,,,,,,,,,,,,,0,4,img/B04_00.jpg,MF,Press J if the face is FEMALE and K if the face is MALE, ,KJ,,,,,,,,,,,,,,,,,,,,,,,,,,,,,,,,6,0.5741,,,,,,,,,,,,,,0,12,12,33,1,,,,,,,,,,,,,space,1.5633,,,,,,,,,,,,,,,,,,,,,,,,,,,,,,,,,,,,,,,,,,,,,,,,,,,,,,,,,,,,,,,,,,,
,,,,020389,001,2024-02-07_22h02.19.607,fluency,2022.2.4,Win32,59.88023952,,,,,,,,,,,,,,,,,,,,,,,6,5,img/B05_06.jpg,MF,Press J if the face is FEMALE and K if the face is MALE, ,KJ,,,,,,,,,,,,,,,,,,,,,,,,,,,,,,,,,,,,,,,,,,,,,,315.8602,0,13,13,50,1,109,0,0,0,0,1,98,,,,,,,,,,,,,,,,,,,,,,,,,,,,,,,,,,,,,,,,,,,,,,,,,,,,,,,,,,,,,,,,,,,,,,,,,,
,,,,020389,001,2024-02-07_22h02.19.607,fluency,2022.2.4,Win32,59.88023952,,,,,,,,,,,,,,,,,,,,,,,,,,,,,,,,,,,,,,,,,,,,,,,,,,,,,,,,,,,,,,,,,,,,,,,,,,,,,,,,,,0,0,0,0,1,,"[""j""]",[1.2632999999523236],0,"[""j""]",[1.2629999999999768],,,,,,,,,,,,,,,,,,,,,,,,,,,,,,,,,,,,,,,,,,,,,,,,,,,,,,,,,,,,,,,,,,,,,
,,,,020389,001,2024-02-07_22h02.19.607,fluency,2022.2.4,Win32,59.88023952,,,,,,,,,,,,,,,,,,,,,,,6,5,img/B05_06.jpg,MF,Press J if the face is FEMALE and K if the face is MALE, ,KJ,,,,,,,,,,,,,,,,,,,,,,,,,,,,,,,,2,1.0682,,,,,,,,,,,,,,0,13,13,50,1,,,,,,,,,,,,,space,1.5265,,,,,,,,,,,,,,,,,,,,,,,,,,,,,,,,,,,,,,,,,,,,,,,,,,,,,,,,,,,,,,,,,,,
,,,,020389,001,2024-02-07_22h02.19.607,fluency,2022.2.4,Win32,59.88023952,,,,,,,,,,,,,,,,,,,,,,,8,4,img/B04_08.jpg,MF,Press J if the face is FEMALE and K if the face is MALE, ,KJ,,,,,,,,,,,,,,,,,,,,,,,,,,,,,,,,,,,,,,,,,,,,,,322.5078,0,14,14,41,1,109,0,0,0,0,1,98,,,,,,,,,,,,,,,,,,,,,,,,,,,,,,,,,,,,,,,,,,,,,,,,,,,,,,,,,,,,,,,,,,,,,,,,,,
,,,,020389,001,2024-02-07_22h02.19.607,fluency,2022.2.4,Win32,59.88023952,,,,,,,,,,,,,,,,,,,,,,,,,,,,,,,,,,,,,,,,,,,,,,,,,,,,,,,,,,,,,,,,,,,,,,,,,,,,,,,,,,0,0,0,0,1,,"[""j""]",[0.7851999998092651],0,"[""j""]",[0.7851999998092651],,,,,,,,,,,,,,,,,,,,,,,,,,,,,,,,,,,,,,,,,,,,,,,,,,,,,,,,,,,,,,,,,,,,,
,,,,020389,001,2024-02-07_22h02.19.607,fluency,2022.2.4,Win32,59.88023952,,,,,,,,,,,,,,,,,,,,,,,8,4,img/B04_08.jpg,MF,Press J if the face is FEMALE and K if the face is MALE, ,KJ,,,,,,,,,,,,,,,,,,,,,,,,,,,,,,,,4,0.6871,,,,,,,,,,,,,,0,14,14,41,1,,,,,,,,,,,,,space,0.7991,,,,,,,,,,,,,,,,,,,,,,,,,,,,,,,,,,,,,,,,,,,,,,,,,,,,,,,,,,,,,,,,,,,
,,,,020389,001,2024-02-07_22h02.19.607,fluency,2022.2.4,Win32,59.88023952,,,,,,,,,,,,,,,,,,,,,,,7,4,img/B04_07.jpg,MF,Press J if the face is FEMALE and K if the face is MALE, ,KJ,,,,,,,,,,,,,,,,,,,,,,,,,,,,,,,,,,,,,,,,,,,,,,329.0397,0,15,15,40,1,109,0,0,0,0,1,98,,,,,,,,,,,,,,,,,,,,,,,,,,,,,,,,,,,,,,,,,,,,,,,,,,,,,,,,,,,,,,,,,,,,,,,,,,
,,,,020389,001,2024-02-07_22h02.19.607,fluency,2022.2.4,Win32,59.88023952,,,,,,,,,,,,,,,,,,,,,,,,,,,,,,,,,,,,,,,,,,,,,,,,,,,,,,,,,,,,,,,,,,,,,,,,,,,,,,,,,,0,0,0,0,1,,"[""j""]",[1.61879999995233],0,"[""j""]",[1.6187000000476814],,,,,,,,,,,,,,,,,,,,,,,,,,,,,,,,,,,,,,,,,,,,,,,,,,,,,,,,,,,,,,,,,,,,,
,,,,020389,001,2024-02-07_22h02.19.607,fluency,2022.2.4,Win32,59.88023952,,,,,,,,,,,,,,,,,,,,,,,7,4,img/B04_07.jpg,MF,Press J if the face is FEMALE and K if the face is MALE, ,KJ,,,,,,,,,,,,,,,,,,,,,,,,,,,,,,,,4,0.8019,,,,,,,,,,,,,,0,15,15,40,1,,,,,,,,,,,,,space,1.2033,,,,,,,,,,,,,,,,,,,,,,,,,,,,,,,,,,,,,,,,,,,,,,,,,,,,,,,,,,,,,,,,,,,
,,,,020389,001,2024-02-07_22h02.19.607,fluency,2022.2.4,Win32,59.88023952,,,,,,,,,,,,,,,,,,,,,,,10,3,img/B03_10.jpg,MF,Press J if the face is FEMALE and K if the face is MALE, ,KJ,,,,,,,,,,,,,,,,,,,,,,,,,,,,,,,,,,,,,,,,,,,,,,336.1065,0,16,16,32,1,109,0,0,0,0,1,98,,,,,,,,,,,,,,,,,,,,,,,,,,,,,,,,,,,,,,,,,,,,,,,,,,,,,,,,,,,,,,,,,,,,,,,,,,
,,,,020389,001,2024-02-07_22h02.19.607,fluency,2022.2.4,Win32,59.88023952,,,,,,,,,,,,,,,,,,,,,,,,,,,,,,,,,,,,,,,,,,,,,,,,,,,,,,,,,,,,,,,,,,,,,,,,,,,,,,,,,,0,0,0,0,1,,"[""j""]",[1.4972000000477124],0,"[""j""]",[1.4971999998092542],,,,,,,,,,,,,,,,,,,,,,,,,,,,,,,,,,,,,,,,,,,,,,,,,,,,,,,,,,,,,,,,,,,,,
,,,,020389,001,2024-02-07_22h02.19.607,fluency,2022.2.4,Win32,59.88023952,,,,,,,,,,,,,,,,,,,,,,,10,3,img/B03_10.jpg,MF,Press J if the face is FEMALE and K if the face is MALE, ,KJ,,,,,,,,,,,,,,,,,,,,,,,,,,,,,,,,4,0.8862,,,,,,,,,,,,,,0,16,16,32,1,,,,,,,,,,,,,space,0.7973,,,,,,,,,,,,,,,,,,,,,,,,,,,,,,,,,,,,,,,,,,,,,,,,,,,,,,,,,,,,,,,,,,,
,,,,020389,001,2024-02-07_22h02.19.607,fluency,2022.2.4,Win32,59.88023952,,,,,,,,,,,,,,,,,,,,,,,8,2,img/B02_08.jpg,MF,Press J if the face is FEMALE and K if the face is MALE, ,KJ,,,,,,,,,,,,,,,,,,,,,,,,,,,,,,,,,,,,,,,,,,,,,,342.8714,0,17,17,19,1,109,0,0,0,0,1,98,,,,,,,,,,,,,,,,,,,,,,,,,,,,,,,,,,,,,,,,,,,,,,,,,,,,,,,,,,,,,,,,,,,,,,,,,,
,,,,020389,001,2024-02-07_22h02.19.607,fluency,2022.2.4,Win32,59.88023952,,,,,,,,,,,,,,,,,,,,,,,,,,,,,,,,,,,,,,,,,,,,,,,,,,,,,,,,,,,,,,,,,,,,,,,,,,,,,,,,,,0,0,0,0,1,,"[""j""]",[0.6800000000000068],0,"[""j"",""space""]","[0.6800000000000068,2.5409000000953483]",,,,,,,,,,,,,,,,,,,,,,,,,,,,,,,,,,,,,,,,,,,,,,,,,,,,,,,,,,,,,,,,,,,,,
,,,,020389,001,2024-02-07_22h02.19.607,fluency,2022.2.4,Win32,59.88023952,,,,,,,,,,,,,,,,,,,,,,,8,2,img/B02_08.jpg,MF,Press J if the face is FEMALE and K if the face is MALE, ,KJ,,,,,,,,,,,,,,,,,,,,,,,,,,,,,,,,3,0.7102,,,,,,,,,,,,,,0,17,17,19,1,,,,,,,,,,,,,space,0.7824,,,,,,,,,,,,,,,,,,,,,,,,,,,,,,,,,,,,,,,,,,,,,,,,,,,,,,,,,,,,,,,,,,,
,,,,020389,001,2024-02-07_22h02.19.607,fluency,2022.2.4,Win32,59.88023952,,,,,,,,,,,,,,,,,,,,,,,10,2,img/B02_10.jpg,MF,Press J if the face is FEMALE and K if the face is MALE, ,KJ,,,,,,,,,,,,,,,,,,,,,,,,,,,,,,,,,,,,,,,,,,,,,,348.424,0,18,18,21,1,109,0,0,0,0,1,98,,,,,,,,,,,,,,,,,,,,,,,,,,,,,,,,,,,,,,,,,,,,,,,,,,,,,,,,,,,,,,,,,,,,,,,,,,
,,,,020389,001,2024-02-07_22h02.19.607,fluency,2022.2.4,Win32,59.88023952,,,,,,,,,,,,,,,,,,,,,,,,,,,,,,,,,,,,,,,,,,,,,,,,,,,,,,,,,,,,,,,,,,,,,,,,,,,,,,,,,,0,0,0,0,1,,"[""j""]",[0.943899999856967],0,"[""j""]",[0.943899999856967],,,,,,,,,,,,,,,,,,,,,,,,,,,,,,,,,,,,,,,,,,,,,,,,,,,,,,,,,,,,,,,,,,,,,
,,,,020389,001,2024-02-07_22h02.19.607,fluency,2022.2.4,Win32,59.88023952,,,,,,,,,,,,,,,,,,,,,,,10,2,img/B02_10.jpg,MF,Press J if the face is FEMALE and K if the face is MALE, ,KJ,,,,,,,,,,,,,,,,,,,,,,,,,,,,,,,,3,0.7331,,,,,,,,,,,,,,0,18,18,21,1,,,,,,,,,,,,,space,3.4446,,,,,,,,,,,,,,,,,,,,,,,,,,,,,,,,,,,,,,,,,,,,,,,,,,,,,,,,,,,,,,,,,,,
,,,,020389,001,2024-02-07_22h02.19.607,fluency,2022.2.4,Win32,59.88023952,,,,,,,,,,,,,,,,,,,,,,,6,8,img/B08_06.jpg,MF,Press J if the face is FEMALE and K if the face is MALE, ,KJ,,,,,,,,,,,,,,,,,,,,,,,,,,,,,,,,,,,,,,,,,,,,,,357.6976,0,19,19,83,1,109,0,0,0,0,1,98,,,,,,,,,,,,,,,,,,,,,,,,,,,,,,,,,,,,,,,,,,,,,,,,,,,,,,,,,,,,,,,,,,,,,,,,,,
,,,,020389,001,2024-02-07_22h02.19.607,fluency,2022.2.4,Win32,59.88023952,,,,,,,,,,,,,,,,,,,,,,,,,,,,,,,,,,,,,,,,,,,,,,,,,,,,,,,,,,,,,,,,,,,,,,,,,,,,,,,,,,0,0,0,0,1,,"[""k""]",[1.2186999998093029],0,"[""k""]",[1.2187000000477042],,,,,,,,,,,,,,,,,,,,,,,,,,,,,,,,,,,,,,,,,,,,,,,,,,,,,,,,,,,,,,,,,,,,,
,,,,020389,001,2024-02-07_22h02.19.607,fluency,2022.2.4,Win32,59.88023952,,,,,,,,,,,,,,,,,,,,,,,6,8,img/B08_06.jpg,MF,Press J if the face is FEMALE and K if the face is MALE, ,KJ,,,,,,,,,,,,,,,,,,,,,,,,,,,,,,,,2,0.8124,,,,,,,,,,,,,,0,19,19,83,1,,,,,,,,,,,,,space,3.9135,,,,,,,,,,,,,,,,,,,,,,,,,,,,,,,,,,,,,,,,,,,,,,,,,,,,,,,,,,,,,,,,,,,
,,,,020389,001,2024-02-07_22h02.19.607,fluency,2022.2.4,Win32,59.88023952,,,,,,,,,,,,,,,,,,,,,,,0,10,img/B10_00.jpg,MF,Press J if the face is FEMALE and K if the face is MALE, ,KJ,,,,,,,,,,,,,,,,,,,,,,,,,,,,,,,,,,,,,,,,,,,,,,367.5052,0,20,20,99,1,109,0,0,0,0,1,98,,,,,,,,,,,,,,,,,,,,,,,,,,,,,,,,,,,,,,,,,,,,,,,,,,,,,,,,,,,,,,,,,,,,,,,,,,
,,,,020389,001,2024-02-07_22h02.19.607,fluency,2022.2.4,Win32,59.88023952,,,,,,,,,,,,,,,,,,,,,,,,,,,,,,,,,,,,,,,,,,,,,,,,,,,,,,,,,,,,,,,,,,,,,,,,,,,,,,,,,,0,0,0,0,1,,"[""k""]",[1.0822999999523404],0,"[""k""]",[1.0822999999523404],,,,,,,,,,,,,,,,,,,,,,,,,,,,,,,,,,,,,,,,,,,,,,,,,,,,,,,,,,,,,,,,,,,,,
,,,,020389,001,2024-02-07_22h02.19.607,fluency,2022.2.4,Win32,59.88023952,,,,,,,,,,,,,,,,,,,,,,,0,10,img/B10_00.jpg,MF,Press J if the face is FEMALE and K if the face is MALE, ,KJ,,,,,,,,,,,,,,,,,,,,,,,,,,,,,,,,7,0.5126,,,,,,,,,,,,,,0,20,20,99,1,,,,,,,,,,,,,space,3.4904,,,,,,,,,,,,,,,,,,,,,,,,,,,,,,,,,,,,,,,,,,,,,,,,,,,,,,,,,,,,,,,,,,,
,,,,020389,001,2024-02-07_22h02.19.607,fluency,2022.2.4,Win32,59.88023952,,,,,,,,,,,,,,,,,,,,,,,8,6,img/B06_08.jpg,MF,Press J if the face is FEMALE and K if the face is MALE, ,KJ,,,,,,,,,,,,,,,,,,,,,,,,,,,,,,,,,,,,,,,,,,,,,,376.5771,0,21,21,63,1,109,0,0,0,0,1,98,,,,,,,,,,,,,,,,,,,,,,,,,,,,,,,,,,,,,,,,,,,,,,,,,,,,,,,,,,,,,,,,,,,,,,,,,,
,,,,020389,001,2024-02-07_22h02.19.607,fluency,2022.2.4,Win32,59.88023952,,,,,,,,,,,,,,,,,,,,,,,,,,,,,,,,,,,,,,,,,,,,,,,,,,,,,,,,,,,,,,,,,,,,,,,,,,,,,,,,,,0,0,0,0,1,,"[""j""]",[1.4975999999046508],0,"[""j""]",[1.497600000143052],,,,,,,,,,,,,,,,,,,,,,,,,,,,,,,,,,,,,,,,,,,,,,,,,,,,,,,,,,,,,,,,,,,,,
,,,,020389,001,2024-02-07_22h02.19.607,fluency,2022.2.4,Win32,59.88023952,,,,,,,,,,,,,,,,,,,,,,,8,6,img/B06_08.jpg,MF,Press J if the face is FEMALE and K if the face is MALE, ,KJ,,,,,,,,,,,,,,,,,,,,,,,,,,,,,,,,5,1.0369,,,,,,,,,,,,,,0,21,21,63,1,,,,,,,,,,,,,space,1.7302,,,,,,,,,,,,,,,,,,,,,,,,,,,,,,,,,,,,,,,,,,,,,,,,,,,,,,,,,,,,,,,,,,,
,,,,020389,001,2024-02-07_22h02.19.607,fluency,2022.2.4,Win32,59.88023952,,,,,,,,,,,,,,,,,,,,,,,6,9,img/B09_06.jpg,MF,Press J if the face is FEMALE and K if the face is MALE, ,KJ,,,,,,,,,,,,,,,,,,,,,,,,,,,,,,,,,,,,,,,,,,,,,,384.3887,0,22,22,94,1,109,0,0,0,0,1,98,,,,,,,,,,,,,,,,,,,,,,,,,,,,,,,,,,,,,,,,,,,,,,,,,,,,,,,,,,,,,,,,,,,,,,,,,,
,,,,020389,001,2024-02-07_22h02.19.607,fluency,2022.2.4,Win32,59.88023952,,,,,,,,,,,,,,,,,,,,,,,,,,,,,,,,,,,,,,,,,,,,,,,,,,,,,,,,,,,,,,,,,,,,,,,,,,,,,,,,,,0,0,0,0,1,,"[""j""]",[1.4547000000476942],0,"[""j""]",[1.4546000001431025],,,,,,,,,,,,,,,,,,,,,,,,,,,,,,,,,,,,,,,,,,,,,,,,,,,,,,,,,,,,,,,,,,,,,
,,,,020389,001,2024-02-07_22h02.19.607,fluency,2022.2.4,Win32,59.88023952,,,,,,,,,,,,,,,,,,,,,,,6,9,img/B09_06.jpg,MF,Press J if the face is FEMALE and K if the face is MALE, ,KJ,,,,,,,,,,,,,,,,,,,,,,,,,,,,,,,,3,0.0568,,,,,,,,,,,,,,0,22,22,94,1,,,,,,,,,,,,,space,1.4847,,,,,,,,,,,,,,,,,,,,,,,,,,,,,,,,,,,,,,,,,,,,,,,,,,,,,,,,,,,,,,,,,,,
,,,,020389,001,2024-02-07_22h02.19.607,fluency,2022.2.4,Win32,59.88023952,,,,,,,,,,,,,,,,,,,,,,,2,3,img/B03_02.jpg,MF,Press J if the face is FEMALE and K if the face is MALE, ,KJ,,,,,,,,,,,,,,,,,,,,,,,,,,,,,,,,,,,,,,,,,,,,,,390.9971,0,23,23,24,1,109,0,0,0,0,1,98,,,,,,,,,,,,,,,,,,,,,,,,,,,,,,,,,,,,,,,,,,,,,,,,,,,,,,,,,,,,,,,,,,,,,,,,,,
,,,,020389,001,2024-02-07_22h02.19.607,fluency,2022.2.4,Win32,59.88023952,,,,,,,,,,,,,,,,,,,,,,,,,,,,,,,,,,,,,,,,,,,,,,,,,,,,,,,,,,,,,,,,,,,,,,,,,,,,,,,,,,0,0,0,0,1,,"[""k""]",[0.7954000000953556],0,"[""k"",""5""]","[0.7952999999523058,2.824299999952302]",,,,,,,,,,,,,,,,,,,,,,,,,,,,,,,,,,,,,,,,,,,,,,,,,,,,,,,,,,,,,,,,,,,,,
,,,,020389,001,2024-02-07_22h02.19.607,fluency,2022.2.4,Win32,59.88023952,,,,,,,,,,,,,,,,,,,,,,,2,3,img/B03_02.jpg,MF,Press J if the face is FEMALE and K if the face is MALE, ,KJ,,,,,,,,,,,,,,,,,,,,,,,,,,,,,,,,5,1.8688,,,,,,,,,,,,,,0,23,23,24,1,,,,,,,,,,,,,space,0.9019,,,,,,,,,,,,,,,,,,,,,,,,,,,,,,,,,,,,,,,,,,,,,,,,,,,,,,,,,,,,,,,,,,,
,,,,020389,001,2024-02-07_22h02.19.607,fluency,2022.2.4,Win32,59.88023952,,,,,,,,,,,,,,,,,,,,,,,5,10,img/B10_05.jpg,MF,Press J if the face is FEMALE and K if the face is MALE, ,KJ,,,,,,,,,,,,,,,,,,,,,,,,,,,,,,,,,,,,,,,,,,,,,,398.8326,0,24,24,104,1,109,0,0,0,0,1,98,,,,,,,,,,,,,,,,,,,,,,,,,,,,,,,,,,,,,,,,,,,,,,,,,,,,,,,,,,,,,,,,,,,,,,,,,,
,,,,020389,001,2024-02-07_22h02.19.607,fluency,2022.2.4,Win32,59.88023952,,,,,,,,,,,,,,,,,,,,,,,,,,,,,,,,,,,,,,,,,,,,,,,,,,,,,,,,,,,,,,,,,,,,,,,,,,,,,,,,,,,,,,,,,,1,,,,,space,6.3023,0,0,0,0,1,,,,,,,,,,,,,,,,,,,,,,,,,,,,,,,,,,,,,,,,,,,,,,,,,,,,,,,,,,,,
,,,,020389,001,2024-02-07_22h02.19.607,fluency,2022.2.4,Win32,59.88023952,,,,,,,,,,,,,,,,,,,,,,,,,,,,,,,,,,,,,,,,,,,,,,,,,,,,,,,,,,,,,,,,,,,,,,,,,,,,,,,,,,0,0,0,0,1,,,,,,,,,,,,,,,,,,,,,,,,,,,,,,,,,,,,,,,,,,,,,,,,,,,,,,,,,,,,,,,,,,,,,,,,,,,
,,,,020389,001,2024-02-07_22h02.19.607,fluency,2022.2.4,Win32,59.88023952,,,,,,,,,,,,,,,,,,,,,,,5,10,img/B10_05.jpg,MF,Press J if the face is FEMALE and K if the face is MALE, ,KJ,,,,,,,,,,,,,,,,,,,,,,,,,,,,,,,,,,,,,,,,,,,,,,409.1904,0,24,24,104,1,109,1,0,1,0,1,98,,,,,,,,,,,,,,,,,,,,,,,,,,,,,,,,,,,,,,,,,,,,,,,,,,,,,,,,,,,,,,,,,,,,,,,,,,
,,,,020389,001,2024-02-07_22h02.19.607,fluency,2022.2.4,Win32,59.88023952,,,,,,,,,,,,,,,,,,,,,,,,,,,,,,,,,,,,,,,,,,,,,,,,,,,,,,,,,,,,,,,,,,,,,,,,,,,,,,,,,,1,0,1,0,1,,"[""k""]",[0.6679000000953579],1,"[""k""]",[0.6678999998569566],,,,,,,,,,,,,,,,,,,,,,,,,,,,,,,,,,,,,,,,,,,,,,,,,,,,,,,,,,,,,,,,,,,,,
,,,,020389,001,2024-02-07_22h02.19.607,fluency,2022.2.4,Win32,59.88023952,,,,,,,,,,,,,,,,,,,,,,,5,10,img/B10_05.jpg,MF,Press J if the face is FEMALE and K if the face is MALE, ,KJ,,,,,,,,,,,,,,,,,,,,,,,,,,,,,,,,4,2.9544,,,,,,,,,,,,,,0,24,24,104,1,,,,,,,,,,,,,space,0.9304,,,,,,,,,,,,,,,,,,,,,,,,,,,,,,,,,,,,,,,,,,,,,,,,,,,,,,,,,,,,,,,,,,,
,,,,020389,001,2024-02-07_22h02.19.607,fluency,2022.2.4,Win32,59.88023952,,,,,,,,,,,,,,,,,,,,,,,5,7,img/B07_05.jpg,MF,Press J if the face is FEMALE and K if the face is MALE, ,KJ,,,,,,,,,,,,,,,,,,,,,,,,,,,,,,,,,,,,,,,,,,,,,,418.163,0,25,25,71,1,109,0,0,0,0,1,98,,,,,,,,,,,,,,,,,,,,,,,,,,,,,,,,,,,,,,,,,,,,,,,,,,,,,,,,,,,,,,,,,,,,,,,,,,
,,,,020389,001,2024-02-07_22h02.19.607,fluency,2022.2.4,Win32,59.88023952,,,,,,,,,,,,,,,,,,,,,,,,,,,,,,,,,,,,,,,,,,,,,,,,,,,,,,,,,,,,,,,,,,,,,,,,,,,,,,,,,,0,0,0,0,1,,"[""j""]",[2.089099999904647],1,"[""j""]",[2.089099999904647],,,,,,,,,,,,,,,,,,,,,,,,,,,,,,,,,,,,,,,,,,,,,,,,,,,,,,,,,,,,,,,,,,,,,
,,,,020389,001,2024-02-07_22h02.19.607,fluency,2022.2.4,Win32,59.88023952,,,,,,,,,,,,,,,,,,,,,,,5,7,img/B07_05.jpg,MF,Press J if the face is FEMALE and K if the face is MALE, ,KJ,,,,,,,,,,,,,,,,,,,,,,,,,,,,,,,,1,1.0917,,,,,,,,,,,,,,0,25,25,71,1,,,,,,,,,,,,,space,1.2706,,,,,,,,,,,,,,,,,,,,,,,,,,,,,,,,,,,,,,,,,,,,,,,,,,,,,,,,,,,,,,,,,,,
,,,,020389,001,2024-02-07_22h02.19.607,fluency,2022.2.4,Win32,59.88023952,,,,,,,,,,,,,,,,,,,,,,,7,2,img/B02_07.jpg,MF,Press J if the face is FEMALE and K if the face is MALE, ,KJ,,,,,,,,,,,,,,,,,,,,,,,,,,,,,,,,,,,,,,,,,,,,,,425.5931,0,26,26,18,1,109,0,0,0,0,1,98,,,,,,,,,,,,,,,,,,,,,,,,,,,,,,,,,,,,,,,,,,,,,,,,,,,,,,,,,,,,,,,,,,,,,,,,,,
,,,,020389,001,2024-02-07_22h02.19.607,fluency,2022.2.4,Win32,59.88023952,,,,,,,,,,,,,,,,,,,,,,,,,,,,,,,,,,,,,,,,,,,,,,,,,,,,,,,,,,,,,,,,,,,,,,,,,,,,,,,,,,0,0,0,0,1,,"[""j""]",[0.8315000000000055],1,"[""j"",""space""]","[0.8316000001430552,2.8097000000477124]",,,,,,,,,,,,,,,,,,,,,,,,,,,,,,,,,,,,,,,,,,,,,,,,,,,,,,,,,,,,,,,,,,,,,
,,,,020389,001,2024-02-07_22h02.19.607,fluency,2022.2.4,Win32,59.88023952,,,,,,,,,,,,,,,,,,,,,,,7,2,img/B02_07.jpg,MF,Press J if the face is FEMALE and K if the face is MALE, ,KJ,,,,,,,,,,,,,,,,,,,,,,,,,,,,,,,,3,0.5306,,,,,,,,,,,,,,0,26,26,18,1,,,,,,,,,,,,,space,0.6536,,,,,,,,,,,,,,,,,,,,,,,,,,,,,,,,,,,,,,,,,,,,,,,,,,,,,,,,,,,,,,,,,,,
,,,,020389,001,2024-02-07_22h02.19.607,fluency,2022.2.4,Win32,59.88023952,,,,,,,,,,,,,,,,,,,,,,,3,6,img/B06_03.jpg,MF,Press J if the face is FEMALE and K if the face is MALE, ,KJ,,,,,,,,,,,,,,,,,,,,,,,,,,,,,,,,,,,,,,,,,,,,,,430.8481,0,27,27,58,1,109,0,0,0,0,1,98,,,,,,,,,,,,,,,,,,,,,,,,,,,,,,,,,,,,,,,,,,,,,,,,,,,,,,,,,,,,,,,,,,,,,,,,,,
,,,,020389,001,2024-02-07_22h02.19.607,fluency,2022.2.4,Win32,59.88023952,,,,,,,,,,,,,,,,,,,,,,,,,,,,,,,,,,,,,,,,,,,,,,,,,,,,,,,,,,,,,,,,,,,,,,,,,,,,,,,,,,0,0,0,0,1,,"[""k""]",[0.7537999999523208],1,"[""k"",""space""]","[0.7537999999523208,2.529099999904645]",,,,,,,,,,,,,,,,,,,,,,,,,,,,,,,,,,,,,,,,,,,,,,,,,,,,,,,,,,,,,,,,,,,,,
,,,,020389,001,2024-02-07_22h02.19.607,fluency,2022.2.4,Win32,59.88023952,,,,,,,,,,,,,,,,,,,,,,,3,6,img/B06_03.jpg,MF,Press J if the face is FEMALE and K if the face is MALE, ,KJ,,,,,,,,,,,,,,,,,,,,,,,,,,,,,,,,5,1.2016,,,,,,,,,,,,,,0,27,27,58,1,,,,,,,,,,,,,space,0.6866,,,,,,,,,,,,,,,,,,,,,,,,,,,,,,,,,,,,,,,,,,,,,,,,,,,,,,,,,,,,,,,,,,,
,,,,020389,001,2024-02-07_22h02.19.607,fluency,2022.2.4,Win32,59.88023952,,,,,,,,,,,,,,,,,,,,,,,0,5,img/B05_00.jpg,MF,Press J if the face is FEMALE and K if the face is MALE, ,KJ,,,,,,,,,,,,,,,,,,,,,,,,,,,,,,,,,,,,,,,,,,,,,,436.7957,0,28,28,44,1,109,0,0,0,0,1,98,,,,,,,,,,,,,,,,,,,,,,,,,,,,,,,,,,,,,,,,,,,,,,,,,,,,,,,,,,,,,,,,,,,,,,,,,,
,,,,020389,001,2024-02-07_22h02.19.607,fluency,2022.2.4,Win32,59.88023952,,,,,,,,,,,,,,,,,,,,,,,,,,,,,,,,,,,,,,,,,,,,,,,,,,,,,,,,,,,,,,,,,,,,,,,,,,,,,,,,,,0,0,0,0,1,,"[""k""]",[0.7981999998092988],1,"[""k"",""space""]","[0.7982000000477001,1.6667999999523317]",,,,,,,,,,,,,,,,,,,,,,,,,,,,,,,,,,,,,,,,,,,,,,,,,,,,,,,,,,,,,,,,,,,,,
,,,,020389,001,2024-02-07_22h02.19.607,fluency,2022.2.4,Win32,59.88023952,,,,,,,,,,,,,,,,,,,,,,,0,5,img/B05_00.jpg,MF,Press J if the face is FEMALE and K if the face is MALE, ,KJ,,,,,,,,,,,,,,,,,,,,,,,,,,,,,,,,3,0.1795,,,,,,,,,,,,,,0,28,28,44,1,,,,,,,,,,,,,space,1.0608,,,,,,,,,,,,,,,,,,,,,,,,,,,,,,,,,,,,,,,,,,,,,,,,,,,,,,,,,,,,,,,,,,,
,,,,020389,001,2024-02-07_22h02.19.607,fluency,2022.2.4,Win32,59.88023952,,,,,,,,,,,,,,,,,,,,,,,9,6,img/B06_09.jpg,MF,Press J if the face is FEMALE and K if the face is MALE, ,KJ,,,,,,,,,,,,,,,,,,,,,,,,,,,,,,,,,,,,,,,,,,,,,,442.0979,0,29,29,64,1,109,0,0,0,0,1,98,,,,,,,,,,,,,,,,,,,,,,,,,,,,,,,,,,,,,,,,,,,,,,,,,,,,,,,,,,,,,,,,,,,,,,,,,,
,,,,020389,001,2024-02-07_22h02.19.607,fluency,2022.2.4,Win32,59.88023952,,,,,,,,,,,,,,,,,,,,,,,,,,,,,,,,,,,,,,,,,,,,,,,,,,,,,,,,,,,,,,,,,,,,,,,,,,,,,,,,,,0,0,0,0,1,,"[""j""]",[0.8990000000000009],1,"[""j"",""4""]","[0.8990000000000009,2.4447000000476464]",,,,,,,,,,,,,,,,,,,,,,,,,,,,,,,,,,,,,,,,,,,,,,,,,,,,,,,,,,,,,,,,,,,,,
,,,,020389,001,2024-02-07_22h02.19.607,fluency,2022.2.4,Win32,59.88023952,,,,,,,,,,,,,,,,,,,,,,,9,6,img/B06_09.jpg,MF,Press J if the face is FEMALE and K if the face is MALE, ,KJ,,,,,,,,,,,,,,,,,,,,,,,,,,,,,,,,4,1.692,,,,,,,,,,,,,,0,29,29,64,1,,,,,,,,,,,,,space,3.9066,,,,,,,,,,,,,,,,,,,,,,,,,,,,,,,,,,,,,,,,,,,,,,,,,,,,,,,,,,,,,,,,,,,
,,,,020389,001,2024-02-07_22h02.19.607,fluency,2022.2.4,Win32,59.88023952,,,,,,,,,,,,,,,,,,,,,,,9,1,img/B01_09.jpg,MF,Press J if the face is FEMALE and K if the face is MALE, ,KJ,,,,,,,,,,,,,,,,,,,,,,,,,,,,,,,,,,,,,,,,,,,,,,452.7714,0,30,30,9,1,109,0,0,0,0,1,98,,,,,,,,,,,,,,,,,,,,,,,,,,,,,,,,,,,,,,,,,,,,,,,,,,,,,,,,,,,,,,,,,,,,,,,,,,
,,,,020389,001,2024-02-07_22h02.19.607,fluency,2022.2.4,Win32,59.88023952,,,,,,,,,,,,,,,,,,,,,,,,,,,,,,,,,,,,,,,,,,,,,,,,,,,,,,,,,,,,,,,,,,,,,,,,,,,,,,,,,,0,0,0,0,1,,"[""j""]",[0.7644000000953497],1,"[""j"",""4""]","[0.7644000000953497,2.922200000047667]",,,,,,,,,,,,,,,,,,,,,,,,,,,,,,,,,,,,,,,,,,,,,,,,,,,,,,,,,,,,,,,,,,,,,
,,,,020389,001,2024-02-07_22h02.19.607,fluency,2022.2.4,Win32,59.88023952,,,,,,,,,,,,,,,,,,,,,,,9,1,img/B01_09.jpg,MF,Press J if the face is FEMALE and K if the face is MALE, ,KJ,,,,,,,,,,,,,,,,,,,,,,,,,,,,,,,,4,1.3311,,,,,,,,,,,,,,0,30,30,9,1,,,,,,,,,,,,,space,1.2317,,,,,,,,,,,,,,,,,,,,,,,,,,,,,,,,,,,,,,,,,,,,,,,,,,,,,,,,,,,,,,,,,,,
,,,,020389,001,2024-02-07_22h02.19.607,fluency,2022.2.4,Win32,59.88023952,,,,,,,,,,,,,,,,,,,,,,,1,10,img/B10_01.jpg,MF,Press J if the face is FEMALE and K if the face is MALE, ,KJ,,,,,,,,,,,,,,,,,,,,,,,,,,,,,,,,,,,,,,,,,,,,,,460.3813,0,31,31,100,1,109,0,0,0,0,1,98,,,,,,,,,,,,,,,,,,,,,,,,,,,,,,,,,,,,,,,,,,,,,,,,,,,,,,,,,,,,,,,,,,,,,,,,,,
,,,,020389,001,2024-02-07_22h02.19.607,fluency,2022.2.4,Win32,59.88023952,,,,,,,,,,,,,,,,,,,,,,,,,,,,,,,,,,,,,,,,,,,,,,,,,,,,,,,,,,,,,,,,,,,,,,,,,,,,,,,,,,0,0,0,0,1,,"[""k""]",[1.5356000001430061],1,"[""k"",""space""]","[1.5356000001430061,2.3836000001430193]",,,,,,,,,,,,,,,,,,,,,,,,,,,,,,,,,,,,,,,,,,,,,,,,,,,,,,,,,,,,,,,,,,,,,
,,,,020389,001,2024-02-07_22h02.19.607,fluency,2022.2.4,Win32,59.88023952,,,,,,,,,,,,,,,,,,,,,,,1,10,img/B10_01.jpg,MF,Press J if the face is FEMALE and K if the face is MALE, ,KJ,,,,,,,,,,,,,,,,,,,,,,,,,,,,,,,,7,1.7749,,,,,,,,,,,,,,0,31,31,100,1,,,,,,,,,,,,,space,1.7477,,,,,,,,,,,,,,,,,,,,,,,,,,,,,,,,,,,,,,,,,,,,,,,,,,,,,,,,,,,,,,,,,,,
,,,,020389,001,2024-02-07_22h02.19.607,fluency,2022.2.4,Win32,59.88023952,,,,,,,,,,,,,,,,,,,,,,,2,2,img/B02_02.jpg,MF,Press J if the face is FEMALE and K if the face is MALE, ,KJ,,,,,,,,,,,,,,,,,,,,,,,,,,,,,,,,,,,,,,,,,,,,,,468.9577,0,32,32,13,1,109,0,0,0,0,1,98,,,,,,,,,,,,,,,,,,,,,,,,,,,,,,,,,,,,,,,,,,,,,,,,,,,,,,,,,,,,,,,,,,,,,,,,,,
,,,,020389,001,2024-02-07_22h02.19.607,fluency,2022.2.4,Win32,59.88023952,,,,,,,,,,,,,,,,,,,,,,,,,,,,,,,,,,,,,,,,,,,,,,,,,,,,,,,,,,,,,,,,,,,,,,,,,,,,,,,,,,0,0,0,0,1,,"[""k""]",[1.5966000001430984],1,"[""k""]",[1.59670000004769],,,,,,,,,,,,,,,,,,,,,,,,,,,,,,,,,,,,,,,,,,,,,,,,,,,,,,,,,,,,,,,,,,,,,
,,,,020389,001,2024-02-07_22h02.19.607,fluency,2022.2.4,Win32,59.88023952,,,,,,,,,,,,,,,,,,,,,,,2,2,img/B02_02.jpg,MF,Press J if the face is FEMALE and K if the face is MALE, ,KJ,,,,,,,,,,,,,,,,,,,,,,,,,,,,,,,,3,1.6937,,,,,,,,,,,,,,0,32,32,13,1,,,,,,,,,,,,,space,1.8297,,,,,,,,,,,,,,,,,,,,,,,,,,,,,,,,,,,,,,,,,,,,,,,,,,,,,,,,,,,,,,,,,,,
,,,,020389,001,2024-02-07_22h02.19.607,fluency,2022.2.4,Win32,59.88023952,,,,,,,,,,,,,,,,,,,,,,,2,6,img/B06_02.jpg,MF,Press J if the face is FEMALE and K if the face is MALE, ,KJ,,,,,,,,,,,,,,,,,,,,,,,,,,,,,,,,,,,,,,,,,,,,,,476.5532,0,33,33,57,1,109,0,0,0,0,1,98,,,,,,,,,,,,,,,,,,,,,,,,,,,,,,,,,,,,,,,,,,,,,,,,,,,,,,,,,,,,,,,,,,,,,,,,,,
,,,,020389,001,2024-02-07_22h02.19.607,fluency,2022.2.4,Win32,59.88023952,,,,,,,,,,,,,,,,,,,,,,,,,,,,,,,,,,,,,,,,,,,,,,,,,,,,,,,,,,,,,,,,,,,,,,,,,,,,,,,,,,0,0,0,0,1,,"[""k""]",[1.1889000000953729],1,"[""k"",""space""]","[1.1889000000953729,2.357200000047669]",,,,,,,,,,,,,,,,,,,,,,,,,,,,,,,,,,,,,,,,,,,,,,,,,,,,,,,,,,,,,,,,,,,,,
,,,,020389,001,2024-02-07_22h02.19.607,fluency,2022.2.4,Win32,59.88023952,,,,,,,,,,,,,,,,,,,,,,,2,6,img/B06_02.jpg,MF,Press J if the face is FEMALE and K if the face is MALE, ,KJ,,,,,,,,,,,,,,,,,,,,,,,,,,,,,,,,5,1.4511,,,,,,,,,,,,,,0,33,33,57,1,,,,,,,,,,,,,space,1.1818,,,,,,,,,,,,,,,,,,,,,,,,,,,,,,,,,,,,,,,,,,,,,,,,,,,,,,,,,,,,,,,,,,,
,,,,020389,001,2024-02-07_22h02.19.607,fluency,2022.2.4,Win32,59.88023952,,,,,,,,,,,,,,,,,,,,,,,1,6,img/B06_01.jpg,MF,Press J if the face is FEMALE and K if the face is MALE, ,KJ,,,,,,,,,,,,,,,,,,,,,,,,,,,,,,,,,,,,,,,,,,,,,,484.2496,0,34,34,56,1,109,0,0,0,0,1,98,,,,,,,,,,,,,,,,,,,,,,,,,,,,,,,,,,,,,,,,,,,,,,,,,,,,,,,,,,,,,,,,,,,,,,,,,,
,,,,020389,001,2024-02-07_22h02.19.607,fluency,2022.2.4,Win32,59.88023952,,,,,,,,,,,,,,,,,,,,,,,,,,,,,,,,,,,,,,,,,,,,,,,,,,,,,,,,,,,,,,,,,,,,,,,,,,,,,,,,,,0,0,0,0,1,,"[""k""]",[1.6840999999046744],1,"[""k"",""space""]","[1.683999999999969,2.8435999999046544]",,,,,,,,,,,,,,,,,,,,,,,,,,,,,,,,,,,,,,,,,,,,,,,,,,,,,,,,,,,,,,,,,,,,,
,,,,020389,001,2024-02-07_22h02.19.607,fluency,2022.2.4,Win32,59.88023952,,,,,,,,,,,,,,,,,,,,,,,1,6,img/B06_01.jpg,MF,Press J if the face is FEMALE and K if the face is MALE, ,KJ,,,,,,,,,,,,,,,,,,,,,,,,,,,,,,,,5,0.7611,,,,,,,,,,,,,,0,34,34,56,1,,,,,,,,,,,,,space,0.7489,,,,,,,,,,,,,,,,,,,,,,,,,,,,,,,,,,,,,,,,,,,,,,,,,,,,,,,,,,,,,,,,,,,
,,,,020389,001,2024-02-07_22h02.19.607,fluency,2022.2.4,Win32,59.88023952,,,,,,,,,,,,,,,,,,,,,,,3,7,img/B07_03.jpg,MF,Press J if the face is FEMALE and K if the face is MALE, ,KJ,,,,,,,,,,,,,,,,,,,,,,,,,,,,,,,,,,,,,,,,,,,,,,490.8151,0,35,35,69,1,109,0,0,0,0,1,98,,,,,,,,,,,,,,,,,,,,,,,,,,,,,,,,,,,,,,,,,,,,,,,,,,,,,,,,,,,,,,,,,,,,,,,,,,
,,,,020389,001,2024-02-07_22h02.19.607,fluency,2022.2.4,Win32,59.88023952,,,,,,,,,,,,,,,,,,,,,,,,,,,,,,,,,,,,,,,,,,,,,,,,,,,,,,,,,,,,,,,,,,,,,,,,,,,,,,,,,,0,0,0,0,1,,"[""k""]",[2.7237999999522344],1,"[""k""]",[2.7237999999522344],,,,,,,,,,,,,,,,,,,,,,,,,,,,,,,,,,,,,,,,,,,,,,,,,,,,,,,,,,,,,,,,,,,,,
,,,,020389,001,2024-02-07_22h02.19.607,fluency,2022.2.4,Win32,59.88023952,,,,,,,,,,,,,,,,,,,,,,,3,7,img/B07_03.jpg,MF,Press J if the face is FEMALE and K if the face is MALE, ,KJ,,,,,,,,,,,,,,,,,,,,,,,,,,,,,,,,3,1.6252,,,,,,,,,,,,,,0,35,35,69,1,,,,,,,,,,,,,space,1.9625,,,,,,,,,,,,,,,,,,,,,,,,,,,,,,,,,,,,,,,,,,,,,,,,,,,,,,,,,,,,,,,,,,,
,,,,020389,001,2024-02-07_22h02.19.607,fluency,2022.2.4,Win32,59.88023952,,,,,,,,,,,,,,,,,,,,,,,10,8,img/B08_10.jpg,MF,Press J if the face is FEMALE and K if the face is MALE, ,KJ,,,,,,,,,,,,,,,,,,,,,,,,,,,,,,,,,,,,,,,,,,,,,,499.4656,0,36,36,87,1,109,0,0,0,0,1,98,,,,,,,,,,,,,,,,,,,,,,,,,,,,,,,,,,,,,,,,,,,,,,,,,,,,,,,,,,,,,,,,,,,,,,,,,,
,,,,020389,001,2024-02-07_22h02.19.607,fluency,2022.2.4,Win32,59.88023952,,,,,,,,,,,,,,,,,,,,,,,,,,,,,,,,,,,,,,,,,,,,,,,,,,,,,,,,,,,,,,,,,,,,,,,,,,,,,,,,,,0,0,0,0,1,,"[""k""]",[0.941600000143012],1,"[""k"",""space""]","[0.9415000000000191,2.186099999904627]",,,,,,,,,,,,,,,,,,,,,,,,,,,,,,,,,,,,,,,,,,,,,,,,,,,,,,,,,,,,,,,,,,,,,
,,,,020389,001,2024-02-07_22h02.19.607,fluency,2022.2.4,Win32,59.88023952,,,,,,,,,,,,,,,,,,,,,,,10,8,img/B08_10.jpg,MF,Press J if the face is FEMALE and K if the face is MALE, ,KJ,,,,,,,,,,,,,,,,,,,,,,,,,,,,,,,,2,0.7119,,,,,,,,,,,,,,0,36,36,87,1,,,,,,,,,,,,,space,0.851,,,,,,,,,,,,,,,,,,,,,,,,,,,,,,,,,,,,,,,,,,,,,,,,,,,,,,,,,,,,,,,,,,,
,,,,020389,001,2024-02-07_22h02.19.607,fluency,2022.2.4,Win32,59.88023952,,,,,,,,,,,,,,,,,,,,,,,1,3,img/B03_01.jpg,MF,Press J if the face is FEMALE and K if the face is MALE, ,KJ,,,,,,,,,,,,,,,,,,,,,,,,,,,,,,,,,,,,,,,,,,,,,,506.092,0,37,37,23,1,109,0,0,0,0,1,98,,,,,,,,,,,,,,,,,,,,,,,,,,,,,,,,,,,,,,,,,,,,,,,,,,,,,,,,,,,,,,,,,,,,,,,,,,
,,,,020389,001,2024-02-07_22h02.19.607,fluency,2022.2.4,Win32,59.88023952,,,,,,,,,,,,,,,,,,,,,,,,,,,,,,,,,,,,,,,,,,,,,,,,,,,,,,,,,,,,,,,,,,,,,,,,,,,,,,,,,,0,0,0,0,1,,"[""k""]",[0.8097999999523608],1,"[""k"",""space""]","[0.8098000001907621,2.2892000000476855]",,,,,,,,,,,,,,,,,,,,,,,,,,,,,,,,,,,,,,,,,,,,,,,,,,,,,,,,,,,,,,,,,,,,,
,,,,020389,001,2024-02-07_22h02.19.607,fluency,2022.2.4,Win32,59.88023952,,,,,,,,,,,,,,,,,,,,,,,1,3,img/B03_01.jpg,MF,Press J if the face is FEMALE and K if the face is MALE, ,KJ,,,,,,,,,,,,,,,,,,,,,,,,,,,,,,,,6,1.1917,,,,,,,,,,,,,,0,37,37,23,1,,,,,,,,,,,,,space,0.7825,,,,,,,,,,,,,,,,,,,,,,,,,,,,,,,,,,,,,,,,,,,,,,,,,,,,,,,,,,,,,,,,,,,
,,,,020389,001,2024-02-07_22h02.19.607,fluency,2022.2.4,Win32,59.88023952,,,,,,,,,,,,,,,,,,,,,,,3,8,img/B08_03.jpg,MF,Press J if the face is FEMALE and K if the face is MALE, ,KJ,,,,,,,,,,,,,,,,,,,,,,,,,,,,,,,,,,,,,,,,,,,,,,513.1136,0,38,38,80,1,109,0,0,0,0,1,98,,,,,,,,,,,,,,,,,,,,,,,,,,,,,,,,,,,,,,,,,,,,,,,,,,,,,,,,,,,,,,,,,,,,,,,,,,
,,,,020389,001,2024-02-07_22h02.19.607,fluency,2022.2.4,Win32,59.88023952,,,,,,,,,,,,,,,,,,,,,,,,,,,,,,,,,,,,,,,,,,,,,,,,,,,,,,,,,,,,,,,,,,,,,,,,,,,,,,,,,,0,0,0,0,1,,"[""j""]",[0.8147999999523563],1,"[""j""]",[0.8149000000953492],,,,,,,,,,,,,,,,,,,,,,,,,,,,,,,,,,,,,,,,,,,,,,,,,,,,,,,,,,,,,,,,,,,,,
,,,,020389,001,2024-02-07_22h02.19.607,fluency,2022.2.4,Win32,59.88023952,,,,,,,,,,,,,,,,,,,,,,,3,8,img/B08_03.jpg,MF,Press J if the face is FEMALE and K if the face is MALE, ,KJ,,,,,,,,,,,,,,,,,,,,,,,,,,,,,,,,4,0.7149,,,,,,,,,,,,,,0,38,38,80,1,,,,,,,,,,,,,space,2.0954,,,,,,,,,,,,,,,,,,,,,,,,,,,,,,,,,,,,,,,,,,,,,,,,,,,,,,,,,,,,,,,,,,,
,,,,020389,001,2024-02-07_22h02.19.607,fluency,2022.2.4,Win32,59.88023952,,,,,,,,,,,,,,,,,,,,,,,3,2,img/B02_03.jpg,MF,Press J if the face is FEMALE and K if the face is MALE, ,KJ,,,,,,,,,,,,,,,,,,,,,,,,,,,,,,,,,,,,,,,,,,,,,,520.9989,0,39,39,14,1,109,0,0,0,0,1,98,,,,,,,,,,,,,,,,,,,,,,,,,,,,,,,,,,,,,,,,,,,,,,,,,,,,,,,,,,,,,,,,,,,,,,,,,,
,,,,020389,001,2024-02-07_22h02.19.607,fluency,2022.2.4,Win32,59.88023952,,,,,,,,,,,,,,,,,,,,,,,,,,,,,,,,,,,,,,,,,,,,,,,,,,,,,,,,,,,,,,,,,,,,,,,,,,,,,,,,,,0,0,0,0,1,,"[""k""]",[2.036600000143153],1,"[""k""]",[2.036599999904638],,,,,,,,,,,,,,,,,,,,,,,,,,,,,,,,,,,,,,,,,,,,,,,,,,,,,,,,,,,,,,,,,,,,,
,,,,020389,001,2024-02-07_22h02.19.607,fluency,2022.2.4,Win32,59.88023952,,,,,,,,,,,,,,,,,,,,,,,3,2,img/B02_03.jpg,MF,Press J if the face is FEMALE and K if the face is MALE, ,KJ,,,,,,,,,,,,,,,,,,,,,,,,,,,,,,,,3,1.3566,,,,,,,,,,,,,,0,39,39,14,1,,,,,,,,,,,,,space,0.6291,,,,,,,,,,,,,,,,,,,,,,,,,,,,,,,,,,,,,,,,,,,,,,,,,,,,,,,,,,,,,,,,,,,
,,,,020389,001,2024-02-07_22h02.19.607,fluency,2022.2.4,Win32,59.88023952,,,,,,,,,,,,,,,,,,,,,,,9,4,img/B04_09.jpg,MF,Press J if the face is FEMALE and K if the face is MALE, ,KJ,,,,,,,,,,,,,,,,,,,,,,,,,,,,,,,,,,,,,,,,,,,,,,528.0293,0,40,40,42,1,109,0,0,0,0,1,98,,,,,,,,,,,,,,,,,,,,,,,,,,,,,,,,,,,,,,,,,,,,,,,,,,,,,,,,,,,,,,,,,,,,,,,,,,
,,,,020389,001,2024-02-07_22h02.19.607,fluency,2022.2.4,Win32,59.88023952,,,,,,,,,,,,,,,,,,,,,,,,,,,,,,,,,,,,,,,,,,,,,,,,,,,,,,,,,,,,,,,,,,,,,,,,,,,,,,,,,,0,0,0,0,1,,"[""j""]",[0.7034999999999627],1,"[""j"",""space""]","[0.7034999999999627,2.373099999904639]",,,,,,,,,,,,,,,,,,,,,,,,,,,,,,,,,,,,,,,,,,,,,,,,,,,,,,,,,,,,,,,,,,,,,
,,,,020389,001,2024-02-07_22h02.19.607,fluency,2022.2.4,Win32,59.88023952,,,,,,,,,,,,,,,,,,,,,,,9,4,img/B04_09.jpg,MF,Press J if the face is FEMALE and K if the face is MALE, ,KJ,,,,,,,,,,,,,,,,,,,,,,,,,,,,,,,,4,0.8688,,,,,,,,,,,,,,0,40,40,42,1,,,,,,,,,,,,,space,0.5998,,,,,,,,,,,,,,,,,,,,,,,,,,,,,,,,,,,,,,,,,,,,,,,,,,,,,,,,,,,,,,,,,,,
,,,,020389,001,2024-02-07_22h02.19.607,fluency,2022.2.4,Win32,59.88023952,,,,,,,,,,,,,,,,,,,,,,,3,10,img/B10_03.jpg,MF,Press J if the face is FEMALE and K if the face is MALE, ,KJ,,,,,,,,,,,,,,,,,,,,,,,,,,,,,,,,,,,,,,,,,,,,,,534.549,0,41,41,102,1,109,0,0,0,0,1,98,,,,,,,,,,,,,,,,,,,,,,,,,,,,,,,,,,,,,,,,,,,,,,,,,,,,,,,,,,,,,,,,,,,,,,,,,,
,,,,020389,001,2024-02-07_22h02.19.607,fluency,2022.2.4,Win32,59.88023952,,,,,,,,,,,,,,,,,,,,,,,,,,,,,,,,,,,,,,,,,,,,,,,,,,,,,,,,,,,,,,,,,,,,,,,,,,,,,,,,,,0,0,0,0,1,,"[""k""]",[1.1635999999045907],1,"[""k""]",[1.163499999999999],,,,,,,,,,,,,,,,,,,,,,,,,,,,,,,,,,,,,,,,,,,,,,,,,,,,,,,,,,,,,,,,,,,,,
,,,,020389,001,2024-02-07_22h02.19.607,fluency,2022.2.4,Win32,59.88023952,,,,,,,,,,,,,,,,,,,,,,,3,10,img/B10_03.jpg,MF,Press J if the face is FEMALE and K if the face is MALE, ,KJ,,,,,,,,,,,,,,,,,,,,,,,,,,,,,,,,7,1.1989,,,,,,,,,,,,,,0,41,41,102,1,,,,,,,,,,,,,space,1.0147,,,,,,,,,,,,,,,,,,,,,,,,,,,,,,,,,,,,,,,,,,,,,,,,,,,,,,,,,,,,,,,,,,,
,,,,020389,001,2024-02-07_22h02.19.607,fluency,2022.2.4,Win32,59.88023952,,,,,,,,,,,,,,,,,,,,,,,5,5,img/B05_05.jpg,MF,Press J if the face is FEMALE and K if the face is MALE, ,KJ,,,,,,,,,,,,,,,,,,,,,,,,,,,,,,,,,,,,,,,,,,,,,,540.8442,0,42,42,49,1,109,0,0,0,0,1,98,,,,,,,,,,,,,,,,,,,,,,,,,,,,,,,,,,,,,,,,,,,,,,,,,,,,,,,,,,,,,,,,,,,,,,,,,,
,,,,020389,001,2024-02-07_22h02.19.607,fluency,2022.2.4,Win32,59.88023952,,,,,,,,,,,,,,,,,,,,,,,,,,,,,,,,,,,,,,,,,,,,,,,,,,,,,,,,,,,,,,,,,,,,,,,,,,,,,,,,,,0,0,0,0,1,,"[""j""]",[0.6591999998092888],1,"[""j"",""space""]","[0.6590999999045835,2.3870999999045353]",,,,,,,,,,,,,,,,,,,,,,,,,,,,,,,,,,,,,,,,,,,,,,,,,,,,,,,,,,,,,,,,,,,,,
,,,,020389,001,2024-02-07_22h02.19.607,fluency,2022.2.4,Win32,59.88023952,,,,,,,,,,,,,,,,,,,,,,,5,5,img/B05_05.jpg,MF,Press J if the face is FEMALE and K if the face is MALE, ,KJ,,,,,,,,,,,,,,,,,,,,,,,,,,,,,,,,2,1.6433,,,,,,,,,,,,,,0,42,42,49,1,,,,,,,,,,,,,space,0.4504,,,,,,,,,,,,,,,,,,,,,,,,,,,,,,,,,,,,,,,,,,,,,,,,,,,,,,,,,,,,,,,,,,,
,,,,020389,001,2024-02-07_22h02.19.607,fluency,2022.2.4,Win32,59.88023952,,,,,,,,,,,,,,,,,,,,,,,6,4,img/B04_06.jpg,MF,Press J if the face is FEMALE and K if the face is MALE, ,KJ,,,,,,,,,,,,,,,,,,,,,,,,,,,,,,,,,,,,,,,,,,,,,,546.9974,0,43,43,39,1,109,0,0,0,0,1,98,,,,,,,,,,,,,,,,,,,,,,,,,,,,,,,,,,,,,,,,,,,,,,,,,,,,,,,,,,,,,,,,,,,,,,,,,,
,,,,020389,001,2024-02-07_22h02.19.607,fluency,2022.2.4,Win32,59.88023952,,,,,,,,,,,,,,,,,,,,,,,,,,,,,,,,,,,,,,,,,,,,,,,,,,,,,,,,,,,,,,,,,,,,,,,,,,,,,,,,,,0,0,0,0,1,,"[""j""]",[0.8497000000476191],1,"[""j"",""space""]","[0.8495999999046262,2.948500000000081]",,,,,,,,,,,,,,,,,,,,,,,,,,,,,,,,,,,,,,,,,,,,,,,,,,,,,,,,,,,,,,,,,,,,,
,,,,020389,001,2024-02-07_22h02.19.607,fluency,2022.2.4,Win32,59.88023952,,,,,,,,,,,,,,,,,,,,,,,6,4,img/B04_06.jpg,MF,Press J if the face is FEMALE and K if the face is MALE, ,KJ,,,,,,,,,,,,,,,,,,,,,,,,,,,,,,,,5,1.1451,,,,,,,,,,,,,,0,43,43,39,1,,,,,,,,,,,,,space,0.7692,,,,,,,,,,,,,,,,,,,,,,,,,,,,,,,,,,,,,,,,,,,,,,,,,,,,,,,,,,,,,,,,,,,
,,,,020389,001,2024-02-07_22h02.19.607,fluency,2022.2.4,Win32,59.88023952,,,,,,,,,,,,,,,,,,,,,,,0,6,img/B06_00.jpg,MF,Press J if the face is FEMALE and K if the face is MALE, ,KJ,,,,,,,,,,,,,,,,,,,,,,,,,,,,,,,,,,,,,,,,,,,,,,552.9615,0,44,44,55,1,109,0,0,0,0,1,98,,,,,,,,,,,,,,,,,,,,,,,,,,,,,,,,,,,,,,,,,,,,,,,,,,,,,,,,,,,,,,,,,,,,,,,,,,
,,,,020389,001,2024-02-07_22h02.19.607,fluency,2022.2.4,Win32,59.88023952,,,,,,,,,,,,,,,,,,,,,,,,,,,,,,,,,,,,,,,,,,,,,,,,,,,,,,,,,,,,,,,,,,,,,,,,,,,,,,,,,,0,0,0,0,1,,"[""k""]",[0.8542000000476264],1,"[""k"",""space""]","[0.8542000000476264,2.2200000000000273]",,,,,,,,,,,,,,,,,,,,,,,,,,,,,,,,,,,,,,,,,,,,,,,,,,,,,,,,,,,,,,,,,,,,,
,,,,020389,001,2024-02-07_22h02.19.607,fluency,2022.2.4,Win32,59.88023952,,,,,,,,,,,,,,,,,,,,,,,0,6,img/B06_00.jpg,MF,Press J if the face is FEMALE and K if the face is MALE, ,KJ,,,,,,,,,,,,,,,,,,,,,,,,,,,,,,,,6,1.9291,,,,,,,,,,,,,,0,44,44,55,1,,,,,,,,,,,,,space,0.7684,,,,,,,,,,,,,,,,,,,,,,,,,,,,,,,,,,,,,,,,,,,,,,,,,,,,,,,,,,,,,,,,,,,
,,,,020389,001,2024-02-07_22h02.19.607,fluency,2022.2.4,Win32,59.88023952,,,,,,,,,,,,,,,,,,,,,,,9,8,img/B08_09.jpg,MF,Press J if the face is FEMALE and K if the face is MALE, ,KJ,,,,,,,,,,,,,,,,,,,,,,,,,,,,,,,,,,,,,,,,,,,,,,559.7457,0,45,45,86,1,109,0,0,0,0,1,98,,,,,,,,,,,,,,,,,,,,,,,,,,,,,,,,,,,,,,,,,,,,,,,,,,,,,,,,,,,,,,,,,,,,,,,,,,
,,,,020389,001,2024-02-07_22h02.19.607,fluency,2022.2.4,Win32,59.88023952,,,,,,,,,,,,,,,,,,,,,,,,,,,,,,,,,,,,,,,,,,,,,,,,,,,,,,,,,,,,,,,,,,,,,,,,,,,,,,,,,,0,0,0,0,1,,"[""k""]",[1.5659000000953256],1,"[""k""]",[1.5659999999999172],,,,,,,,,,,,,,,,,,,,,,,,,,,,,,,,,,,,,,,,,,,,,,,,,,,,,,,,,,,,,,,,,,,,,
,,,,020389,001,2024-02-07_22h02.19.607,fluency,2022.2.4,Win32,59.88023952,,,,,,,,,,,,,,,,,,,,,,,9,8,img/B08_09.jpg,MF,Press J if the face is FEMALE and K if the face is MALE, ,KJ,,,,,,,,,,,,,,,,,,,,,,,,,,,,,,,,2,0.8281,,,,,,,,,,,,,,0,45,45,86,1,,,,,,,,,,,,,space,0.5822,,,,,,,,,,,,,,,,,,,,,,,,,,,,,,,,,,,,,,,,,,,,,,,,,,,,,,,,,,,,,,,,,,,
,,,,020389,001,2024-02-07_22h02.19.607,fluency,2022.2.4,Win32,59.88023952,,,,,,,,,,,,,,,,,,,,,,,8,1,img/B01_08.jpg,MF,Press J if the face is FEMALE and K if the face is MALE, ,KJ,,,,,,,,,,,,,,,,,,,,,,,,,,,,,,,,,,,,,,,,,,,,,,566.2348,0,46,46,8,1,109,0,0,0,0,1,98,,,,,,,,,,,,,,,,,,,,,,,,,,,,,,,,,,,,,,,,,,,,,,,,,,,,,,,,,,,,,,,,,,,,,,,,,,
,,,,020389,001,2024-02-07_22h02.19.607,fluency,2022.2.4,Win32,59.88023952,,,,,,,,,,,,,,,,,,,,,,,,,,,,,,,,,,,,,,,,,,,,,,,,,,,,,,,,,,,,,,,,,,,,,,,,,,,,,,,,,,0,0,0,0,1,,"[""j""]",[0.9085000000000036],1,"[""j"",""space""]","[0.9082999999523054,2.176400000095441]",,,,,,,,,,,,,,,,,,,,,,,,,,,,,,,,,,,,,,,,,,,,,,,,,,,,,,,,,,,,,,,,,,,,,
,,,,020389,001,2024-02-07_22h02.19.607,fluency,2022.2.4,Win32,59.88023952,,,,,,,,,,,,,,,,,,,,,,,8,1,img/B01_08.jpg,MF,Press J if the face is FEMALE and K if the face is MALE, ,KJ,,,,,,,,,,,,,,,,,,,,,,,,,,,,,,,,5,0.6123,,,,,,,,,,,,,,0,46,46,8,1,,,,,,,,,,,,,space,0.7165,,,,,,,,,,,,,,,,,,,,,,,,,,,,,,,,,,,,,,,,,,,,,,,,,,,,,,,,,,,,,,,,,,,
,,,,020389,001,2024-02-07_22h02.19.607,fluency,2022.2.4,Win32,59.88023952,,,,,,,,,,,,,,,,,,,,,,,5,8,img/B08_05.jpg,MF,Press J if the face is FEMALE and K if the face is MALE, ,KJ,,,,,,,,,,,,,,,,,,,,,,,,,,,,,,,,,,,,,,,,,,,,,,572.6345,0,47,47,82,1,109,0,0,0,0,1,98,,,,,,,,,,,,,,,,,,,,,,,,,,,,,,,,,,,,,,,,,,,,,,,,,,,,,,,,,,,,,,,,,,,,,,,,,,
,,,,020389,001,2024-02-07_22h02.19.607,fluency,2022.2.4,Win32,59.88023952,,,,,,,,,,,,,,,,,,,,,,,,,,,,,,,,,,,,,,,,,,,,,,,,,,,,,,,,,,,,,,,,,,,,,,,,,,,,,,,,,,0,0,0,0,1,,"[""j""]",[1.6678000001907094],1,"[""j""]",[1.667799999952308],,,,,,,,,,,,,,,,,,,,,,,,,,,,,,,,,,,,,,,,,,,,,,,,,,,,,,,,,,,,,,,,,,,,,
,,,,020389,001,2024-02-07_22h02.19.607,fluency,2022.2.4,Win32,59.88023952,,,,,,,,,,,,,,,,,,,,,,,5,8,img/B08_05.jpg,MF,Press J if the face is FEMALE and K if the face is MALE, ,KJ,,,,,,,,,,,,,,,,,,,,,,,,,,,,,,,,2,1.8242,,,,,,,,,,,,,,0,47,47,82,1,,,,,,,,,,,,,space,0.4672,,,,,,,,,,,,,,,,,,,,,,,,,,,,,,,,,,,,,,,,,,,,,,,,,,,,,,,,,,,,,,,,,,,
,,,,020389,001,2024-02-07_22h02.19.607,fluency,2022.2.4,Win32,59.88023952,,,,,,,,,,,,,,,,,,,,,,,4,9,img/B09_04.jpg,MF,Press J if the face is FEMALE and K if the face is MALE, ,KJ,,,,,,,,,,,,,,,,,,,,,,,,,,,,,,,,,,,,,,,,,,,,,,579.9809,0,48,48,92,1,109,0,0,0,0,1,98,,,,,,,,,,,,,,,,,,,,,,,,,,,,,,,,,,,,,,,,,,,,,,,,,,,,,,,,,,,,,,,,,,,,,,,,,,
,,,,020389,001,2024-02-07_22h02.19.607,fluency,2022.2.4,Win32,59.88023952,,,,,,,,,,,,,,,,,,,,,,,,,,,,,,,,,,,,,,,,,,,,,,,,,,,,,,,,,,,,,,,,,,,,,,,,,,,,,,,,,,0,0,0,0,1,,"[""j""]",[1.427500000000009],1,"[""j""]",[1.4273999998569025],,,,,,,,,,,,,,,,,,,,,,,,,,,,,,,,,,,,,,,,,,,,,,,,,,,,,,,,,,,,,,,,,,,,,
,,,,020389,001,2024-02-07_22h02.19.607,fluency,2022.2.4,Win32,59.88023952,,,,,,,,,,,,,,,,,,,,,,,4,9,img/B09_04.jpg,MF,Press J if the face is FEMALE and K if the face is MALE, ,KJ,,,,,,,,,,,,,,,,,,,,,,,,,,,,,,,,3,1.3124,,,,,,,,,,,,,,0,48,48,92,1,,,,,,,,,,,,,space,0.4677,,,,,,,,,,,,,,,,,,,,,,,,,,,,,,,,,,,,,,,,,,,,,,,,,,,,,,,,,,,,,,,,,,,
,,,,020389,001,2024-02-07_22h02.19.607,fluency,2022.2.4,Win32,59.88023952,,,,,,,,,,,,,,,,,,,,,,,8,8,img/B08_08.jpg,MF,Press J if the face is FEMALE and K if the face is MALE, ,KJ,,,,,,,,,,,,,,,,,,,,,,,,,,,,,,,,,,,,,,,,,,,,,,585.8246,0,49,49,85,1,109,0,0,0,0,1,98,,,,,,,,,,,,,,,,,,,,,,,,,,,,,,,,,,,,,,,,,,,,,,,,,,,,,,,,,,,,,,,,,,,,,,,,,,
,,,,020389,001,2024-02-07_22h02.19.607,fluency,2022.2.4,Win32,59.88023952,,,,,,,,,,,,,,,,,,,,,,,,,,,,,,,,,,,,,,,,,,,,,,,,,,,,,,,,,,,,,,,,,,,,,,,,,,,,,,,,,,0,0,0,0,1,,"[""k""]",[1.59699999999998],1,"[""k"",""space""]","[1.5967999999522817,2.5113999998569625]",,,,,,,,,,,,,,,,,,,,,,,,,,,,,,,,,,,,,,,,,,,,,,,,,,,,,,,,,,,,,,,,,,,,,
,,,,020389,001,2024-02-07_22h02.19.607,fluency,2022.2.4,Win32,59.88023952,,,,,,,,,,,,,,,,,,,,,,,8,8,img/B08_08.jpg,MF,Press J if the face is FEMALE and K if the face is MALE, ,KJ,,,,,,,,,,,,,,,,,,,,,,,,,,,,,,,,3,2.3533,,,,,,,,,,,,,,0,49,49,85,1,,,,,,,,,,,,,space,0.5018,,,,,,,,,,,,,,,,,,,,,,,,,,,,,,,,,,,,,,,,,,,,,,,,,,,,,,,,,,,,,,,,,,,
,,,,020389,001,2024-02-07_22h02.19.607,fluency,2022.2.4,Win32,59.88023952,,,,,,,,,,,,,,,,,,,,,,,2,5,img/B05_02.jpg,MF,Press J if the face is FEMALE and K if the face is MALE, ,KJ,,,,,,,,,,,,,,,,,,,,,,,,,,,,,,,,,,,,,,,,,,,,,,593.7339,0,50,50,46,1,109,0,0,0,0,1,98,,,,,,,,,,,,,,,,,,,,,,,,,,,,,,,,,,,,,,,,,,,,,,,,,,,,,,,,,,,,,,,,,,,,,,,,,,
,,,,020389,001,2024-02-07_22h02.19.607,fluency,2022.2.4,Win32,59.88023952,,,,,,,,,,,,,,,,,,,,,,,,,,,,,,,,,,,,,,,,,,,,,,,,,,,,,,,,,,,,,,,,,,,,,,,,,,,,,,,,,,0,0,0,0,1,,"[""k""]",[1.9868999998569734],1,"[""k"",""space""]","[1.9868999998569734,2.862500000000068]",,,,,,,,,,,,,,,,,,,,,,,,,,,,,,,,,,,,,,,,,,,,,,,,,,,,,,,,,,,,,,,,,,,,,
,,,,020389,001,2024-02-07_22h02.19.607,fluency,2022.2.4,Win32,59.88023952,,,,,,,,,,,,,,,,,,,,,,,2,5,img/B05_02.jpg,MF,Press J if the face is FEMALE and K if the face is MALE, ,KJ,,,,,,,,,,,,,,,,,,,,,,,,,,,,,,,,4,2.0246,,,,,,,,,,,,,,0,50,50,46,1,,,,,,,,,,,,,space,1.0158,,,,,,,,,,,,,,,,,,,,,,,,,,,,,,,,,,,,,,,,,,,,,,,,,,,,,,,,,,,,,,,,,,,
,,,,020389,001,2024-02-07_22h02.19.607,fluency,2022.2.4,Win32,59.88023952,,,,,,,,,,,,,,,,,,,,,,,2,4,img/B04_02.jpg,MF,Press J if the face is FEMALE and K if the face is MALE, ,KJ,,,,,,,,,,,,,,,,,,,,,,,,,,,,,,,,,,,,,,,,,,,,,,600.8487,0,51,51,35,1,109,0,0,0,0,1,98,,,,,,,,,,,,,,,,,,,,,,,,,,,,,,,,,,,,,,,,,,,,,,,,,,,,,,,,,,,,,,,,,,,,,,,,,,
,,,,020389,001,2024-02-07_22h02.19.607,fluency,2022.2.4,Win32,59.88023952,,,,,,,,,,,,,,,,,,,,,,,,,,,,,,,,,,,,,,,,,,,,,,,,,,,,,,,,,,,,,,,,,,,,,,,,,,,,,,,,,,0,0,0,0,1,,"[""k""]",[0.9648999998570389],1,"[""k"",""space""]","[0.9647999999523336,2.261299999952257]",,,,,,,,,,,,,,,,,,,,,,,,,,,,,,,,,,,,,,,,,,,,,,,,,,,,,,,,,,,,,,,,,,,,,
,,,,020389,001,2024-02-07_22h02.19.607,fluency,2022.2.4,Win32,59.88023952,,,,,,,,,,,,,,,,,,,,,,,2,4,img/B04_02.jpg,MF,Press J if the face is FEMALE and K if the face is MALE, ,KJ,,,,,,,,,,,,,,,,,,,,,,,,,,,,,,,,7,0.7558,,,,,,,,,,,,,,0,51,51,35,1,,,,,,,,,,,,,space,0.7162,,,,,,,,,,,,,,,,,,,,,,,,,,,,,,,,,,,,,,,,,,,,,,,,,,,,,,,,,,,,,,,,,,,
,,,,020389,001,2024-02-07_22h02.19.607,fluency,2022.2.4,Win32,59.88023952,,,,,,,,,,,,,,,,,,,,,,,5,4,img/B04_05.jpg,MF,Press J if the face is FEMALE and K if the face is MALE, ,KJ,,,,,,,,,,,,,,,,,,,,,,,,,,,,,,,,,,,,,,,,,,,,,,606.3824,0,52,52,38,1,109,0,0,0,0,1,98,,,,,,,,,,,,,,,,,,,,,,,,,,,,,,,,,,,,,,,,,,,,,,,,,,,,,,,,,,,,,,,,,,,,,,,,,,
,,,,020389,001,2024-02-07_22h02.19.607,fluency,2022.2.4,Win32,59.88023952,,,,,,,,,,,,,,,,,,,,,,,,,,,,,,,,,,,,,,,,,,,,,,,,,,,,,,,,,,,,,,,,,,,,,,,,,,,,,,,,,,0,0,0,0,1,,"[""j""]",[1.1808999998569334],1,"[""j"",""space""]","[1.1808999998569334,1.880099999904587]",,,,,,,,,,,,,,,,,,,,,,,,,,,,,,,,,,,,,,,,,,,,,,,,,,,,,,,,,,,,,,,,,,,,,
,,,,020389,001,2024-02-07_22h02.19.607,fluency,2022.2.4,Win32,59.88023952,,,,,,,,,,,,,,,,,,,,,,,5,4,img/B04_05.jpg,MF,Press J if the face is FEMALE and K if the face is MALE, ,KJ,,,,,,,,,,,,,,,,,,,,,,,,,,,,,,,,5,0.5401,,,,,,,,,,,,,,0,52,52,38,1,,,,,,,,,,,,,space,0.9331,,,,,,,,,,,,,,,,,,,,,,,,,,,,,,,,,,,,,,,,,,,,,,,,,,,,,,,,,,,,,,,,,,,
,,,,020389,001,2024-02-07_22h02.19.607,fluency,2022.2.4,Win32,59.88023952,,,,,,,,,,,,,,,,,,,,,,,6,2,img/B02_06.jpg,MF,Press J if the face is FEMALE and K if the face is MALE, ,KJ,,,,,,,,,,,,,,,,,,,,,,,,,,,,,,,,,,,,,,,,,,,,,,612.8979,0,53,53,17,1,109,0,0,0,0,1,98,,,,,,,,,,,,,,,,,,,,,,,,,,,,,,,,,,,,,,,,,,,,,,,,,,,,,,,,,,,,,,,,,,,,,,,,,,
,,,,020389,001,2024-02-07_22h02.19.607,fluency,2022.2.4,Win32,59.88023952,,,,,,,,,,,,,,,,,,,,,,,,,,,,,,,,,,,,,,,,,,,,,,,,,,,,,,,,,,,,,,,,,,,,,,,,,,,,,,,,,,0,0,0,0,1,,"[""j""]",[0.853300000190643],1,"[""j"",""space""]","[0.8532000000476501,1.4500000000000455]",,,,,,,,,,,,,,,,,,,,,,,,,,,,,,,,,,,,,,,,,,,,,,,,,,,,,,,,,,,,,,,,,,,,,
,,,,020389,001,2024-02-07_22h02.19.607,fluency,2022.2.4,Win32,59.88023952,,,,,,,,,,,,,,,,,,,,,,,6,2,img/B02_06.jpg,MF,Press J if the face is FEMALE and K if the face is MALE, ,KJ,,,,,,,,,,,,,,,,,,,,,,,,,,,,,,,,3,0.5064,,,,,,,,,,,,,,0,53,53,17,1,,,,,,,,,,,,,space,0.8987,,,,,,,,,,,,,,,,,,,,,,,,,,,,,,,,,,,,,,,,,,,,,,,,,,,,,,,,,,,,,,,,,,,
,,,,020389,001,2024-02-07_22h02.19.607,fluency,2022.2.4,Win32,59.88023952,,,,,,,,,,,,,,,,,,,,,,,7,5,img/B05_07.jpg,MF,Press J if the face is FEMALE and K if the face is MALE, ,KJ,,,,,,,,,,,,,,,,,,,,,,,,,,,,,,,,,,,,,,,,,,,,,,619.3491,0,54,54,51,1,109,0,0,0,0,1,98,,,,,,,,,,,,,,,,,,,,,,,,,,,,,,,,,,,,,,,,,,,,,,,,,,,,,,,,,,,,,,,,,,,,,,,,,,
,,,,020389,001,2024-02-07_22h02.19.607,fluency,2022.2.4,Win32,59.88023952,,,,,,,,,,,,,,,,,,,,,,,,,,,,,,,,,,,,,,,,,,,,,,,,,,,,,,,,,,,,,,,,,,,,,,,,,,,,,,,,,,0,0,0,0,1,,"[""j""]",[1.300400000095351],1,"[""j"",""space""]","[1.3002999999523581,2.2940000000000964]",,,,,,,,,,,,,,,,,,,,,,,,,,,,,,,,,,,,,,,,,,,,,,,,,,,,,,,,,,,,,,,,,,,,,
,,,,020389,001,2024-02-07_22h02.19.607,fluency,2022.2.4,Win32,59.88023952,,,,,,,,,,,,,,,,,,,,,,,7,5,img/B05_07.jpg,MF,Press J if the face is FEMALE and K if the face is MALE, ,KJ,,,,,,,,,,,,,,,,,,,,,,,,,,,,,,,,2,0.8172,,,,,,,,,,,,,,0,54,54,51,1,,,,,,,,,,,,,space,1.0821,,,,,,,,,,,,,,,,,,,,,,,,,,,,,,,,,,,,,,,,,,,,,,,,,,,,,,,,,,,,,,,,,,,
,,,,020389,001,2024-02-07_22h02.19.607,fluency,2022.2.4,Win32,59.88023952,,,,,,,,,,,,,,,,,,,,,,,9,7,img/B07_09.jpg,MF,Press J if the face is FEMALE and K if the face is MALE, ,KJ,,,,,,,,,,,,,,,,,,,,,,,,,,,,,,,,,,,,,,,,,,,,,,625.3156,0,55,55,75,1,109,0,0,0,0,1,98,,,,,,,,,,,,,,,,,,,,,,,,,,,,,,,,,,,,,,,,,,,,,,,,,,,,,,,,,,,,,,,,,,,,,,,,,,
,,,,020389,001,2024-02-07_22h02.19.607,fluency,2022.2.4,Win32,59.88023952,,,,,,,,,,,,,,,,,,,,,,,,,,,,,,,,,,,,,,,,,,,,,,,,,,,,,,,,,,,,,,,,,,,,,,,,,,,,,,,,,,0,0,0,0,1,,"[""j""]",[1.2647999999524018],1,"[""j"",""space""]","[1.264799999952288,2.348900000095341]",,,,,,,,,,,,,,,,,,,,,,,,,,,,,,,,,,,,,,,,,,,,,,,,,,,,,,,,,,,,,,,,,,,,,
,,,,020389,001,2024-02-07_22h02.19.607,fluency,2022.2.4,Win32,59.88023952,,,,,,,,,,,,,,,,,,,,,,,9,7,img/B07_09.jpg,MF,Press J if the face is FEMALE and K if the face is MALE, ,KJ,,,,,,,,,,,,,,,,,,,,,,,,,,,,,,,,4,1.2939,,,,,,,,,,,,,,0,55,55,75,1,,,,,,,,,,,,,space,0.916,,,,,,,,,,,,,,,,,,,,,,,,,,,,,,,,,,,,,,,,,,,,,,,,,,,,,,,,,,,,,,,,,,,
,,,,020389,001,2024-02-07_22h02.19.607,fluency,2022.2.4,Win32,59.88023952,,,,,,,,,,,,,,,,,,,,,,,4,1,img/B01_04.jpg,MF,Press J if the face is FEMALE and K if the face is MALE, ,KJ,,,,,,,,,,,,,,,,,,,,,,,,,,,,,,,,,,,,,,,,,,,,,,632.6179,0,56,56,4,1,109,0,0,0,0,1,98,,,,,,,,,,,,,,,,,,,,,,,,,,,,,,,,,,,,,,,,,,,,,,,,,,,,,,,,,,,,,,,,,,,,,,,,,,
,,,,020389,001,2024-02-07_22h02.19.607,fluency,2022.2.4,Win32,59.88023952,,,,,,,,,,,,,,,,,,,,,,,,,,,,,,,,,,,,,,,,,,,,,,,,,,,,,,,,,,,,,,,,,,,,,,,,,,,,,,,,,,0,0,0,0,1,,"[""k""]",[1.85320000004765],1,"[""k""]",[1.8532999999522417],,,,,,,,,,,,,,,,,,,,,,,,,,,,,,,,,,,,,,,,,,,,,,,,,,,,,,,,,,,,,,,,,,,,,
,,,,020389,001,2024-02-07_22h02.19.607,fluency,2022.2.4,Win32,59.88023952,,,,,,,,,,,,,,,,,,,,,,,4,1,img/B01_04.jpg,MF,Press J if the face is FEMALE and K if the face is MALE, ,KJ,,,,,,,,,,,,,,,,,,,,,,,,,,,,,,,,6,1.9298,,,,,,,,,,,,,,0,56,56,4,1,,,,,,,,,,,,,space,0.8146,,,,,,,,,,,,,,,,,,,,,,,,,,,,,,,,,,,,,,,,,,,,,,,,,,,,,,,,,,,,,,,,,,,
,,,,020389,001,2024-02-07_22h02.19.607,fluency,2022.2.4,Win32,59.88023952,,,,,,,,,,,,,,,,,,,,,,,10,10,img/B10_10.jpg,MF,Press J if the face is FEMALE and K if the face is MALE, ,KJ,,,,,,,,,,,,,,,,,,,,,,,,,,,,,,,,,,,,,,,,,,,,,,639.4273,0,57,57,109,1,109,0,0,0,0,1,98,,,,,,,,,,,,,,,,,,,,,,,,,,,,,,,,,,,,,,,,,,,,,,,,,,,,,,,,,,,,,,,,,,,,,,,,,,
,,,,020389,001,2024-02-07_22h02.19.607,fluency,2022.2.4,Win32,59.88023952,,,,,,,,,,,,,,,,,,,,,,,,,,,,,,,,,,,,,,,,,,,,,,,,,,,,,,,,,,,,,,,,,,,,,,,,,,,,,,,,,,0,0,0,0,1,,"[""j""]",[1.4810999999045862],1,"[""j""]",[1.4810999999045862],,,,,,,,,,,,,,,,,,,,,,,,,,,,,,,,,,,,,,,,,,,,,,,,,,,,,,,,,,,,,,,,,,,,,
,,,,020389,001,2024-02-07_22h02.19.607,fluency,2022.2.4,Win32,59.88023952,,,,,,,,,,,,,,,,,,,,,,,10,10,img/B10_10.jpg,MF,Press J if the face is FEMALE and K if the face is MALE, ,KJ,,,,,,,,,,,,,,,,,,,,,,,,,,,,,,,,8,1.5081,,,,,,,,,,,,,,0,57,57,109,1,,,,,,,,,,,,,space,0.9496,,,,,,,,,,,,,,,,,,,,,,,,,,,,,,,,,,,,,,,,,,,,,,,,,,,,,,,,,,,,,,,,,,,
,,,,020389,001,2024-02-07_22h02.19.607,fluency,2022.2.4,Win32,59.88023952,,,,,,,,,,,,,,,,,,,,,,,3,1,img/B01_03.jpg,MF,Press J if the face is FEMALE and K if the face is MALE, ,KJ,,,,,,,,,,,,,,,,,,,,,,,,,,,,,,,,,,,,,,,,,,,,,,645.9414,0,58,58,3,1,109,0,0,0,0,1,98,,,,,,,,,,,,,,,,,,,,,,,,,,,,,,,,,,,,,,,,,,,,,,,,,,,,,,,,,,,,,,,,,,,,,,,,,,
,,,,020389,001,2024-02-07_22h02.19.607,fluency,2022.2.4,Win32,59.88023952,,,,,,,,,,,,,,,,,,,,,,,,,,,,,,,,,,,,,,,,,,,,,,,,,,,,,,,,,,,,,,,,,,,,,,,,,,,,,,,,,,0,0,0,0,1,,"[""k""]",[1.5479000000954102],1,"[""k"",""space""]","[1.5477999999523036,2.061700000047722]",,,,,,,,,,,,,,,,,,,,,,,,,,,,,,,,,,,,,,,,,,,,,,,,,,,,,,,,,,,,,,,,,,,,,
,,,,020389,001,2024-02-07_22h02.19.607,fluency,2022.2.4,Win32,59.88023952,,,,,,,,,,,,,,,,,,,,,,,3,1,img/B01_03.jpg,MF,Press J if the face is FEMALE and K if the face is MALE, ,KJ,,,,,,,,,,,,,,,,,,,,,,,,,,,,,,,,6,1.0354,,,,,,,,,,,,,,0,58,58,3,1,,,,,,,,,,,,,space,0.9003,,,,,,,,,,,,,,,,,,,,,,,,,,,,,,,,,,,,,,,,,,,,,,,,,,,,,,,,,,,,,,,,,,,
,,,,020389,001,2024-02-07_22h02.19.607,fluency,2022.2.4,Win32,59.88023952,,,,,,,,,,,,,,,,,,,,,,,2,10,img/B10_02.jpg,MF,Press J if the face is FEMALE and K if the face is MALE, ,KJ,,,,,,,,,,,,,,,,,,,,,,,,,,,,,,,,,,,,,,,,,,,,,,651.9414,0,59,59,101,1,109,0,0,0,0,1,98,,,,,,,,,,,,,,,,,,,,,,,,,,,,,,,,,,,,,,,,,,,,,,,,,,,,,,,,,,,,,,,,,,,,,,,,,,
,,,,020389,001,2024-02-07_22h02.19.607,fluency,2022.2.4,Win32,59.88023952,,,,,,,,,,,,,,,,,,,,,,,,,,,,,,,,,,,,,,,,,,,,,,,,,,,,,,,,,,,,,,,,,,,,,,,,,,,,,,,,,,0,0,0,0,1,,"[""k""]",[0.9825999999046644],1,"[""k"",""space""]","[0.9823999998569661,2.2032999999522644]",,,,,,,,,,,,,,,,,,,,,,,,,,,,,,,,,,,,,,,,,,,,,,,,,,,,,,,,,,,,,,,,,,,,,
,,,,020389,001,2024-02-07_22h02.19.607,fluency,2022.2.4,Win32,59.88023952,,,,,,,,,,,,,,,,,,,,,,,2,10,img/B10_02.jpg,MF,Press J if the face is FEMALE and K if the face is MALE, ,KJ,,,,,,,,,,,,,,,,,,,,,,,,,,,,,,,,8,0.8589,,,,,,,,,,,,,,0,59,59,101,1,,,,,,,,,,,,,space,0.6517,,,,,,,,,,,,,,,,,,,,,,,,,,,,,,,,,,,,,,,,,,,,,,,,,,,,,,,,,,,,,,,,,,,
,,,,020389,001,2024-02-07_22h02.19.607,fluency,2022.2.4,Win32,59.88023952,,,,,,,,,,,,,,,,,,,,,,,5,2,img/B02_05.jpg,MF,Press J if the face is FEMALE and K if the face is MALE, ,KJ,,,,,,,,,,,,,,,,,,,,,,,,,,,,,,,,,,,,,,,,,,,,,,658.508,0,60,60,16,1,109,0,0,0,0,1,98,,,,,,,,,,,,,,,,,,,,,,,,,,,,,,,,,,,,,,,,,,,,,,,,,,,,,,,,,,,,,,,,,,,,,,,,,,
,,,,020389,001,2024-02-07_22h02.19.607,fluency,2022.2.4,Win32,59.88023952,,,,,,,,,,,,,,,,,,,,,,,,,,,,,,,,,,,,,,,,,,,,,,,,,,,,,,,,,,,,,,,,,,,,,,,,,,,,,,,,,,0,0,0,0,1,,"[""j""]",[0.8066999998093252],1,"[""j"",""space""]","[0.8067000000477265,1.4354000000954557]",,,,,,,,,,,,,,,,,,,,,,,,,,,,,,,,,,,,,,,,,,,,,,,,,,,,,,,,,,,,,,,,,,,,,
,,,,020389,001,2024-02-07_22h02.19.607,fluency,2022.2.4,Win32,59.88023952,,,,,,,,,,,,,,,,,,,,,,,5,2,img/B02_05.jpg,MF,Press J if the face is FEMALE and K if the face is MALE, ,KJ,,,,,,,,,,,,,,,,,,,,,,,,,,,,,,,,3,0.6711,,,,,,,,,,,,,,0,60,60,16,1,,,,,,,,,,,,,space,0.7305,,,,,,,,,,,,,,,,,,,,,,,,,,,,,,,,,,,,,,,,,,,,,,,,,,,,,,,,,,,,,,,,,,,
,,,,020389,001,2024-02-07_22h02.19.607,fluency,2022.2.4,Win32,59.88023952,,,,,,,,,,,,,,,,,,,,,,,8,10,img/B10_08.jpg,MF,Press J if the face is FEMALE and K if the face is MALE, ,KJ,,,,,,,,,,,,,,,,,,,,,,,,,,,,,,,,,,,,,,,,,,,,,,664.9558,0,61,61,107,1,109,0,0,0,0,1,98,,,,,,,,,,,,,,,,,,,,,,,,,,,,,,,,,,,,,,,,,,,,,,,,,,,,,,,,,,,,,,,,,,,,,,,,,,
,,,,020389,001,2024-02-07_22h02.19.607,fluency,2022.2.4,Win32,59.88023952,,,,,,,,,,,,,,,,,,,,,,,,,,,,,,,,,,,,,,,,,,,,,,,,,,,,,,,,,,,,,,,,,,,,,,,,,,,,,,,,,,0,0,0,0,1,,"[""j""]",[1.0412000000476382],1,"[""j""]",[1.0412000000476382],,,,,,,,,,,,,,,,,,,,,,,,,,,,,,,,,,,,,,,,,,,,,,,,,,,,,,,,,,,,,,,,,,,,,
,,,,020389,001,2024-02-07_22h02.19.607,fluency,2022.2.4,Win32,59.88023952,,,,,,,,,,,,,,,,,,,,,,,8,10,img/B10_08.jpg,MF,Press J if the face is FEMALE and K if the face is MALE, ,KJ,,,,,,,,,,,,,,,,,,,,,,,,,,,,,,,,8,0.6518,,,,,,,,,,,,,,0,61,61,107,1,,,,,,,,,,,,,space,0.6988,,,,,,,,,,,,,,,,,,,,,,,,,,,,,,,,,,,,,,,,,,,,,,,,,,,,,,,,,,,,,,,,,,,
,,,,020389,001,2024-02-07_22h02.19.607,fluency,2022.2.4,Win32,59.88023952,,,,,,,,,,,,,,,,,,,,,,,4,2,img/B02_04.jpg,MF,Press J if the face is FEMALE and K if the face is MALE, ,KJ,,,,,,,,,,,,,,,,,,,,,,,,,,,,,,,,,,,,,,,,,,,,,,670.3598,0,62,62,15,1,109,0,0,0,0,1,98,,,,,,,,,,,,,,,,,,,,,,,,,,,,,,,,,,,,,,,,,,,,,,,,,,,,,,,,,,,,,,,,,,,,,,,,,,
,,,,020389,001,2024-02-07_22h02.19.607,fluency,2022.2.4,Win32,59.88023952,,,,,,,,,,,,,,,,,,,,,,,,,,,,,,,,,,,,,,,,,,,,,,,,,,,,,,,,,,,,,,,,,,,,,,,,,,,,,,,,,,0,0,0,0,1,,"[""j""]",[2.45859999990455],1,"[""j"",""space""]","[2.45859999990455,2.949999999999932]",,,,,,,,,,,,,,,,,,,,,,,,,,,,,,,,,,,,,,,,,,,,,,,,,,,,,,,,,,,,,,,,,,,,,
,,,,020389,001,2024-02-07_22h02.19.607,fluency,2022.2.4,Win32,59.88023952,,,,,,,,,,,,,,,,,,,,,,,4,2,img/B02_04.jpg,MF,Press J if the face is FEMALE and K if the face is MALE, ,KJ,,,,,,,,,,,,,,,,,,,,,,,,,,,,,,,,2,1.9793,,,,,,,,,,,,,,0,62,62,15,1,,,,,,,,,,,,,space,0.4846,,,,,,,,,,,,,,,,,,,,,,,,,,,,,,,,,,,,,,,,,,,,,,,,,,,,,,,,,,,,,,,,,,,
,,,,020389,001,2024-02-07_22h02.19.607,fluency,2022.2.4,Win32,59.88023952,,,,,,,,,,,,,,,,,,,,,,,6,1,img/B01_06.jpg,MF,Press J if the face is FEMALE and K if the face is MALE, ,KJ,,,,,,,,,,,,,,,,,,,,,,,,,,,,,,,,,,,,,,,,,,,,,,676.8745,0,63,63,6,1,109,0,0,0,0,1,98,,,,,,,,,,,,,,,,,,,,,,,,,,,,,,,,,,,,,,,,,,,,,,,,,,,,,,,,,,,,,,,,,,,,,,,,,,
,,,,020389,001,2024-02-07_22h02.19.607,fluency,2022.2.4,Win32,59.88023952,,,,,,,,,,,,,,,,,,,,,,,,,,,,,,,,,,,,,,,,,,,,,,,,,,,,,,,,,,,,,,,,,,,,,,,,,,,,,,,,,,,,,,,,,,2,,,,,space,1.7624,0,0,0,0,1,,,,,,,,,,,,,,,,,,,,,,,,,,,,,,,,,,,,,,,,,,,,,,,,,,,,,,,,,,,,
,,,,020389,001,2024-02-07_22h02.19.607,fluency,2022.2.4,Win32,59.88023952,,,,,,,,,,,,,,,,,,,,,,,,,,,,,,,,,,,,,,,,,,,,,,,,,,,,,,,,,,,,,,,,,,,,,,,,,,,,,,,,,,0,0,0,0,1,,,,,,,,,,,,,,,,,,,,,,,,,,,,,,,,,,,,,,,,,,,,,,,,,,,,,,,,,,,,,,,,,,,,,,,,,,,
,,,,020389,001,2024-02-07_22h02.19.607,fluency,2022.2.4,Win32,59.88023952,,,,,,,,,,,,,,,,,,,,,,,6,1,img/B01_06.jpg,MF,Press J if the face is FEMALE and K if the face is MALE, ,KJ,,,,,,,,,,,,,,,,,,,,,,,,,,,,,,,,,,,,,,,,,,,,,,682.675,0,63,63,6,1,109,1,0,1,0,1,98,,,,,,,,,,,,,,,,,,,,,,,,,,,,,,,,,,,,,,,,,,,,,,,,,,,,,,,,,,,,,,,,,,,,,,,,,,
,,,,020389,001,2024-02-07_22h02.19.607,fluency,2022.2.4,Win32,59.88023952,,,,,,,,,,,,,,,,,,,,,,,,,,,,,,,,,,,,,,,,,,,,,,,,,,,,,,,,,,,,,,,,,,,,,,,,,,,,,,,,,,1,0,1,0,1,,"[""j""]",[1.4862000000476883],2,"[""j""]",[1.4862000000476883],,,,,,,,,,,,,,,,,,,,,,,,,,,,,,,,,,,,,,,,,,,,,,,,,,,,,,,,,,,,,,,,,,,,,
,,,,020389,001,2024-02-07_22h02.19.607,fluency,2022.2.4,Win32,59.88023952,,,,,,,,,,,,,,,,,,,,,,,6,1,img/B01_06.jpg,MF,Press J if the face is FEMALE and K if the face is MALE, ,KJ,,,,,,,,,,,,,,,,,,,,,,,,,,,,,,,,3,0.7112,,,,,,,,,,,,,,0,63,63,6,1,,,,,,,,,,,,,space,0.6671,,,,,,,,,,,,,,,,,,,,,,,,,,,,,,,,,,,,,,,,,,,,,,,,,,,,,,,,,,,,,,,,,,,
,,,,020389,001,2024-02-07_22h02.19.607,fluency,2022.2.4,Win32,59.88023952,,,,,,,,,,,,,,,,,,,,,,,4,8,img/B08_04.jpg,MF,Press J if the face is FEMALE and K if the face is MALE, ,KJ,,,,,,,,,,,,,,,,,,,,,,,,,,,,,,,,,,,,,,,,,,,,,,689.1076,0,64,64,81,1,109,0,0,0,0,1,98,,,,,,,,,,,,,,,,,,,,,,,,,,,,,,,,,,,,,,,,,,,,,,,,,,,,,,,,,,,,,,,,,,,,,,,,,,
,,,,020389,001,2024-02-07_22h02.19.607,fluency,2022.2.4,Win32,59.88023952,,,,,,,,,,,,,,,,,,,,,,,,,,,,,,,,,,,,,,,,,,,,,,,,,,,,,,,,,,,,,,,,,,,,,,,,,,,,,,,,,,0,0,0,0,1,,"[""j""]",[1.3805999999045753],2,"[""j"",""space""]","[1.3806000001430903,2.1953000001907412]",,,,,,,,,,,,,,,,,,,,,,,,,,,,,,,,,,,,,,,,,,,,,,,,,,,,,,,,,,,,,,,,,,,,,
,,,,020389,001,2024-02-07_22h02.19.607,fluency,2022.2.4,Win32,59.88023952,,,,,,,,,,,,,,,,,,,,,,,4,8,img/B08_04.jpg,MF,Press J if the face is FEMALE and K if the face is MALE, ,KJ,,,,,,,,,,,,,,,,,,,,,,,,,,,,,,,,2,1.3274,,,,,,,,,,,,,,0,64,64,81,1,,,,,,,,,,,,,space,0.4004,,,,,,,,,,,,,,,,,,,,,,,,,,,,,,,,,,,,,,,,,,,,,,,,,,,,,,,,,,,,,,,,,,,
,,,,020389,001,2024-02-07_22h02.19.607,fluency,2022.2.4,Win32,59.88023952,,,,,,,,,,,,,,,,,,,,,,,1,5,img/B05_01.jpg,MF,Press J if the face is FEMALE and K if the face is MALE, ,KJ,,,,,,,,,,,,,,,,,,,,,,,,,,,,,,,,,,,,,,,,,,,,,,695.8878,0,65,65,45,1,109,0,0,0,0,1,98,,,,,,,,,,,,,,,,,,,,,,,,,,,,,,,,,,,,,,,,,,,,,,,,,,,,,,,,,,,,,,,,,,,,,,,,,,
,,,,020389,001,2024-02-07_22h02.19.607,fluency,2022.2.4,Win32,59.88023952,,,,,,,,,,,,,,,,,,,,,,,,,,,,,,,,,,,,,,,,,,,,,,,,,,,,,,,,,,,,,,,,,,,,,,,,,,,,,,,,,,0,0,0,0,1,,"[""k""]",[1.0317999999523408],2,"[""k"",""space""]","[1.0317000000477492,1.8501000001431294]",,,,,,,,,,,,,,,,,,,,,,,,,,,,,,,,,,,,,,,,,,,,,,,,,,,,,,,,,,,,,,,,,,,,,
,,,,020389,001,2024-02-07_22h02.19.607,fluency,2022.2.4,Win32,59.88023952,,,,,,,,,,,,,,,,,,,,,,,1,5,img/B05_01.jpg,MF,Press J if the face is FEMALE and K if the face is MALE, ,KJ,,,,,,,,,,,,,,,,,,,,,,,,,,,,,,,,4,0.7835,,,,,,,,,,,,,,0,65,65,45,1,,,,,,,,,,,,,space,0.6154,,,,,,,,,,,,,,,,,,,,,,,,,,,,,,,,,,,,,,,,,,,,,,,,,,,,,,,,,,,,,,,,,,,
,,,,020389,001,2024-02-07_22h02.19.607,fluency,2022.2.4,Win32,59.88023952,,,,,,,,,,,,,,,,,,,,,,,2,9,img/B09_02.jpg,MF,Press J if the face is FEMALE and K if the face is MALE, ,KJ,,,,,,,,,,,,,,,,,,,,,,,,,,,,,,,,,,,,,,,,,,,,,,701.347,0,66,66,90,1,109,0,0,0,0,1,98,,,,,,,,,,,,,,,,,,,,,,,,,,,,,,,,,,,,,,,,,,,,,,,,,,,,,,,,,,,,,,,,,,,,,,,,,,
,,,,020389,001,2024-02-07_22h02.19.607,fluency,2022.2.4,Win32,59.88023952,,,,,,,,,,,,,,,,,,,,,,,,,,,,,,,,,,,,,,,,,,,,,,,,,,,,,,,,,,,,,,,,,,,,,,,,,,,,,,,,,,0,0,0,0,1,,"[""k""]",[1.1277000000477528],2,"[""k"",""space""]","[1.1275999999046462,2.441799999952309]",,,,,,,,,,,,,,,,,,,,,,,,,,,,,,,,,,,,,,,,,,,,,,,,,,,,,,,,,,,,,,,,,,,,,
,,,,020389,001,2024-02-07_22h02.19.607,fluency,2022.2.4,Win32,59.88023952,,,,,,,,,,,,,,,,,,,,,,,2,9,img/B09_02.jpg,MF,Press J if the face is FEMALE and K if the face is MALE, ,KJ,,,,,,,,,,,,,,,,,,,,,,,,,,,,,,,,6,0.3515,,,,,,,,,,,,,,0,66,66,90,1,,,,,,,,,,,,,space,0.5829,,,,,,,,,,,,,,,,,,,,,,,,,,,,,,,,,,,,,,,,,,,,,,,,,,,,,,,,,,,,,,,,,,,
,,,,020389,001,2024-02-07_22h02.19.607,fluency,2022.2.4,Win32,59.88023952,,,,,,,,,,,,,,,,,,,,,,,8,7,img/B07_08.jpg,MF,Press J if the face is FEMALE and K if the face is MALE, ,KJ,,,,,,,,,,,,,,,,,,,,,,,,,,,,,,,,,,,,,,,,,,,,,,707.3327,0,67,67,74,1,109,0,0,0,0,1,98,,,,,,,,,,,,,,,,,,,,,,,,,,,,,,,,,,,,,,,,,,,,,,,,,,,,,,,,,,,,,,,,,,,,,,,,,,
,,,,020389,001,2024-02-07_22h02.19.607,fluency,2022.2.4,Win32,59.88023952,,,,,,,,,,,,,,,,,,,,,,,,,,,,,,,,,,,,,,,,,,,,,,,,,,,,,,,,,,,,,,,,,,,,,,,,,,,,,,,,,,0,0,0,0,1,,"[""j""]",[0.9733999998569516],2,"[""j"",""space""]","[0.9732999999523599,1.4941000001431348]",,,,,,,,,,,,,,,,,,,,,,,,,,,,,,,,,,,,,,,,,,,,,,,,,,,,,,,,,,,,,,,,,,,,,
,,,,020389,001,2024-02-07_22h02.19.607,fluency,2022.2.4,Win32,59.88023952,,,,,,,,,,,,,,,,,,,,,,,8,7,img/B07_08.jpg,MF,Press J if the face is FEMALE and K if the face is MALE, ,KJ,,,,,,,,,,,,,,,,,,,,,,,,,,,,,,,,2,1.2448,,,,,,,,,,,,,,0,67,67,74,1,,,,,,,,,,,,,space,0.5005,,,,,,,,,,,,,,,,,,,,,,,,,,,,,,,,,,,,,,,,,,,,,,,,,,,,,,,,,,,,,,,,,,,
,,,,020389,001,2024-02-07_22h02.19.607,fluency,2022.2.4,Win32,59.88023952,,,,,,,,,,,,,,,,,,,,,,,7,7,img/B07_07.jpg,MF,Press J if the face is FEMALE and K if the face is MALE, ,KJ,,,,,,,,,,,,,,,,,,,,,,,,,,,,,,,,,,,,,,,,,,,,,,713.1263,0,68,68,73,1,109,0,0,0,0,1,98,,,,,,,,,,,,,,,,,,,,,,,,,,,,,,,,,,,,,,,,,,,,,,,,,,,,,,,,,,,,,,,,,,,,,,,,,,
,,,,020389,001,2024-02-07_22h02.19.607,fluency,2022.2.4,Win32,59.88023952,,,,,,,,,,,,,,,,,,,,,,,,,,,,,,,,,,,,,,,,,,,,,,,,,,,,,,,,,,,,,,,,,,,,,,,,,,,,,,,,,,0,0,0,0,1,,"[""j""]",[1.1977999999522808],2,"[""j"",""space""]","[1.1977999999522808,2.475199999809206]",,,,,,,,,,,,,,,,,,,,,,,,,,,,,,,,,,,,,,,,,,,,,,,,,,,,,,,,,,,,,,,,,,,,,
,,,,020389,001,2024-02-07_22h02.19.607,fluency,2022.2.4,Win32,59.88023952,,,,,,,,,,,,,,,,,,,,,,,7,7,img/B07_07.jpg,MF,Press J if the face is FEMALE and K if the face is MALE, ,KJ,,,,,,,,,,,,,,,,,,,,,,,,,,,,,,,,2,0.6264,,,,,,,,,,,,,,0,68,68,73,1,,,,,,,,,,,,,space,0.7171,,,,,,,,,,,,,,,,,,,,,,,,,,,,,,,,,,,,,,,,,,,,,,,,,,,,,,,,,,,,,,,,,,,
,,,,020389,001,2024-02-07_22h02.19.607,fluency,2022.2.4,Win32,59.88023952,,,,,,,,,,,,,,,,,,,,,,,9,10,img/B10_09.jpg,MF,Press J if the face is FEMALE and K if the face is MALE, ,KJ,,,,,,,,,,,,,,,,,,,,,,,,,,,,,,,,,,,,,,,,,,,,,,719.5256,0,69,69,108,1,109,0,0,0,0,1,98,,,,,,,,,,,,,,,,,,,,,,,,,,,,,,,,,,,,,,,,,,,,,,,,,,,,,,,,,,,,,,,,,,,,,,,,,,
,,,,020389,001,2024-02-07_22h02.19.607,fluency,2022.2.4,Win32,59.88023952,,,,,,,,,,,,,,,,,,,,,,,,,,,,,,,,,,,,,,,,,,,,,,,,,,,,,,,,,,,,,,,,,,,,,,,,,,,,,,,,,,0,0,0,0,1,,"[""j""]",[0.8802000000476937],2,"[""j"",""space""]","[0.8802000000476937,2.2083999998569652]",,,,,,,,,,,,,,,,,,,,,,,,,,,,,,,,,,,,,,,,,,,,,,,,,,,,,,,,,,,,,,,,,,,,,
,,,,020389,001,2024-02-07_22h02.19.607,fluency,2022.2.4,Win32,59.88023952,,,,,,,,,,,,,,,,,,,,,,,9,10,img/B10_09.jpg,MF,Press J if the face is FEMALE and K if the face is MALE, ,KJ,,,,,,,,,,,,,,,,,,,,,,,,,,,,,,,,8,0.6417,,,,,,,,,,,,,,0,69,69,108,1,,,,,,,,,,,,,space,0.4672,,,,,,,,,,,,,,,,,,,,,,,,,,,,,,,,,,,,,,,,,,,,,,,,,,,,,,,,,,,,,,,,,,,
,,,,020389,001,2024-02-07_22h02.19.607,fluency,2022.2.4,Win32,59.88023952,,,,,,,,,,,,,,,,,,,,,,,10,6,img/B06_10.jpg,MF,Press J if the face is FEMALE and K if the face is MALE, ,KJ,,,,,,,,,,,,,,,,,,,,,,,,,,,,,,,,,,,,,,,,,,,,,,725.6993,0,70,70,65,1,109,0,0,0,0,1,98,,,,,,,,,,,,,,,,,,,,,,,,,,,,,,,,,,,,,,,,,,,,,,,,,,,,,,,,,,,,,,,,,,,,,,,,,,
,,,,020389,001,2024-02-07_22h02.19.607,fluency,2022.2.4,Win32,59.88023952,,,,,,,,,,,,,,,,,,,,,,,,,,,,,,,,,,,,,,,,,,,,,,,,,,,,,,,,,,,,,,,,,,,,,,,,,,,,,,,,,,0,0,0,0,1,,"[""j""]",[1.3497999999523245],2,"[""j"",""space""]","[1.3497999999523245,2.157599999904619]",,,,,,,,,,,,,,,,,,,,,,,,,,,,,,,,,,,,,,,,,,,,,,,,,,,,,,,,,,,,,,,,,,,,,
,,,,020389,001,2024-02-07_22h02.19.607,fluency,2022.2.4,Win32,59.88023952,,,,,,,,,,,,,,,,,,,,,,,10,6,img/B06_10.jpg,MF,Press J if the face is FEMALE and K if the face is MALE, ,KJ,,,,,,,,,,,,,,,,,,,,,,,,,,,,,,,,3,1.2937,,,,,,,,,,,,,,0,70,70,65,1,,,,,,,,,,,,,space,0.7167,,,,,,,,,,,,,,,,,,,,,,,,,,,,,,,,,,,,,,,,,,,,,,,,,,,,,,,,,,,,,,,,,,,
,,,,020389,001,2024-02-07_22h02.19.607,fluency,2022.2.4,Win32,59.88023952,,,,,,,,,,,,,,,,,,,,,,,2,1,img/B01_02.jpg,MF,Press J if the face is FEMALE and K if the face is MALE, ,KJ,,,,,,,,,,,,,,,,,,,,,,,,,,,,,,,,,,,,,,,,,,,,,,731.7587,0,71,71,2,1,109,0,0,0,0,1,98,,,,,,,,,,,,,,,,,,,,,,,,,,,,,,,,,,,,,,,,,,,,,,,,,,,,,,,,,,,,,,,,,,,,,,,,,,
,,,,020389,001,2024-02-07_22h02.19.607,fluency,2022.2.4,Win32,59.88023952,,,,,,,,,,,,,,,,,,,,,,,,,,,,,,,,,,,,,,,,,,,,,,,,,,,,,,,,,,,,,,,,,,,,,,,,,,,,,,,,,,0,0,0,0,1,,"[""k""]",[1.4132999999523008],2,"[""k"",""space""]","[1.4132999999523008,1.895199999809165]",,,,,,,,,,,,,,,,,,,,,,,,,,,,,,,,,,,,,,,,,,,,,,,,,,,,,,,,,,,,,,,,,,,,,
,,,,020389,001,2024-02-07_22h02.19.607,fluency,2022.2.4,Win32,59.88023952,,,,,,,,,,,,,,,,,,,,,,,2,1,img/B01_02.jpg,MF,Press J if the face is FEMALE and K if the face is MALE, ,KJ,,,,,,,,,,,,,,,,,,,,,,,,,,,,,,,,6,2.34,,,,,,,,,,,,,,0,71,71,2,1,,,,,,,,,,,,,space,0.4307,,,,,,,,,,,,,,,,,,,,,,,,,,,,,,,,,,,,,,,,,,,,,,,,,,,,,,,,,,,,,,,,,,,
,,,,020389,001,2024-02-07_22h02.19.607,fluency,2022.2.4,Win32,59.88023952,,,,,,,,,,,,,,,,,,,,,,,7,10,img/B10_07.jpg,MF,Press J if the face is FEMALE and K if the face is MALE, ,KJ,,,,,,,,,,,,,,,,,,,,,,,,,,,,,,,,,,,,,,,,,,,,,,738.6047,0,72,72,106,1,109,0,0,0,0,1,98,,,,,,,,,,,,,,,,,,,,,,,,,,,,,,,,,,,,,,,,,,,,,,,,,,,,,,,,,,,,,,,,,,,,,,,,,,
,,,,020389,001,2024-02-07_22h02.19.607,fluency,2022.2.4,Win32,59.88023952,,,,,,,,,,,,,,,,,,,,,,,,,,,,,,,,,,,,,,,,,,,,,,,,,,,,,,,,,,,,,,,,,,,,,,,,,,,,,,,,,,0,0,0,0,1,,"[""j""]",[1.507600000143043],2,"[""j"",""space""]","[1.507600000143043,1.9716000001430984]",,,,,,,,,,,,,,,,,,,,,,,,,,,,,,,,,,,,,,,,,,,,,,,,,,,,,,,,,,,,,,,,,,,,,
,,,,020389,001,2024-02-07_22h02.19.607,fluency,2022.2.4,Win32,59.88023952,,,,,,,,,,,,,,,,,,,,,,,7,10,img/B10_07.jpg,MF,Press J if the face is FEMALE and K if the face is MALE, ,KJ,,,,,,,,,,,,,,,,,,,,,,,,,,,,,,,,8,0.0775,,,,,,,,,,,,,,0,72,72,106,1,,,,,,,,,,,,,space,1.2649,,,,,,,,,,,,,,,,,,,,,,,,,,,,,,,,,,,,,,,,,,,,,,,,,,,,,,,,,,,,,,,,,,,
,,,,020389,001,2024-02-07_22h02.19.607,fluency,2022.2.4,Win32,59.88023952,,,,,,,,,,,,,,,,,,,,,,,1,1,img/B01_01.jpg,MF,Press J if the face is FEMALE and K if the face is MALE, ,KJ,,,,,,,,,,,,,,,,,,,,,,,,,,,,,,,,,,,,,,,,,,,,,,744.9967,0,73,73,1,1,109,0,0,0,0,1,98,,,,,,,,,,,,,,,,,,,,,,,,,,,,,,,,,,,,,,,,,,,,,,,,,,,,,,,,,,,,,,,,,,,,,,,,,,
,,,,020389,001,2024-02-07_22h02.19.607,fluency,2022.2.4,Win32,59.88023952,,,,,,,,,,,,,,,,,,,,,,,,,,,,,,,,,,,,,,,,,,,,,,,,,,,,,,,,,,,,,,,,,,,,,,,,,,,,,,,,,,0,0,0,0,1,,"[""k""]",[0.8737000000477337],2,"[""k"",""space""]","[0.8736000001430284,2.1619000000953292]",,,,,,,,,,,,,,,,,,,,,,,,,,,,,,,,,,,,,,,,,,,,,,,,,,,,,,,,,,,,,,,,,,,,,
,,,,020389,001,2024-02-07_22h02.19.607,fluency,2022.2.4,Win32,59.88023952,,,,,,,,,,,,,,,,,,,,,,,1,1,img/B01_01.jpg,MF,Press J if the face is FEMALE and K if the face is MALE, ,KJ,,,,,,,,,,,,,,,,,,,,,,,,,,,,,,,,5,1.1414,,,,,,,,,,,,,,0,73,73,1,1,,,,,,,,,,,,,space,1.0817,,,,,,,,,,,,,,,,,,,,,,,,,,,,,,,,,,,,,,,,,,,,,,,,,,,,,,,,,,,,,,,,,,,
,,,,020389,001,2024-02-07_22h02.19.607,fluency,2022.2.4,Win32,59.88023952,,,,,,,,,,,,,,,,,,,,,,,8,3,img/B03_08.jpg,MF,Press J if the face is FEMALE and K if the face is MALE, ,KJ,,,,,,,,,,,,,,,,,,,,,,,,,,,,,,,,,,,,,,,,,,,,,,752.2765,0,74,74,30,1,109,0,0,0,0,1,98,,,,,,,,,,,,,,,,,,,,,,,,,,,,,,,,,,,,,,,,,,,,,,,,,,,,,,,,,,,,,,,,,,,,,,,,,,
,,,,020389,001,2024-02-07_22h02.19.607,fluency,2022.2.4,Win32,59.88023952,,,,,,,,,,,,,,,,,,,,,,,,,,,,,,,,,,,,,,,,,,,,,,,,,,,,,,,,,,,,,,,,,,,,,,,,,,,,,,,,,,0,0,0,0,1,,"[""j""]",[1.0065999999046653],2,"[""j"",""space""]","[1.0065999999046653,1.9679000000953693]",,,,,,,,,,,,,,,,,,,,,,,,,,,,,,,,,,,,,,,,,,,,,,,,,,,,,,,,,,,,,,,,,,,,,
,,,,020389,001,2024-02-07_22h02.19.607,fluency,2022.2.4,Win32,59.88023952,,,,,,,,,,,,,,,,,,,,,,,8,3,img/B03_08.jpg,MF,Press J if the face is FEMALE and K if the face is MALE, ,KJ,,,,,,,,,,,,,,,,,,,,,,,,,,,,,,,,3,0.6171,,,,,,,,,,,,,,0,74,74,30,1,,,,,,,,,,,,,space,0.5534,,,,,,,,,,,,,,,,,,,,,,,,,,,,,,,,,,,,,,,,,,,,,,,,,,,,,,,,,,,,,,,,,,,
,,,,020389,001,2024-02-07_22h02.19.607,fluency,2022.2.4,Win32,59.88023952,,,,,,,,,,,,,,,,,,,,,,,9,5,img/B05_09.jpg,MF,Press J if the face is FEMALE and K if the face is MALE, ,KJ,,,,,,,,,,,,,,,,,,,,,,,,,,,,,,,,,,,,,,,,,,,,,,758.543,0,75,75,53,1,109,0,0,0,0,1,98,,,,,,,,,,,,,,,,,,,,,,,,,,,,,,,,,,,,,,,,,,,,,,,,,,,,,,,,,,,,,,,,,,,,,,,,,,
,,,,020389,001,2024-02-07_22h02.19.607,fluency,2022.2.4,Win32,59.88023952,,,,,,,,,,,,,,,,,,,,,,,,,,,,,,,,,,,,,,,,,,,,,,,,,,,,,,,,,,,,,,,,,,,,,,,,,,,,,,,,,,0,0,0,0,1,,"[""j""]",[0.7608999998568606],2,"[""j"",""space"",""space""]","[0.7608999998568606,1.2869999999999209,2.823599999904559]",,,,,,,,,,,,,,,,,,,,,,,,,,,,,,,,,,,,,,,,,,,,,,,,,,,,,,,,,,,,,,,,,,,,,
,,,,020389,001,2024-02-07_22h02.19.607,fluency,2022.2.4,Win32,59.88023952,,,,,,,,,,,,,,,,,,,,,,,9,5,img/B05_09.jpg,MF,Press J if the face is FEMALE and K if the face is MALE, ,KJ,,,,,,,,,,,,,,,,,,,,,,,,,,,,,,,,2,0.5341,,,,,,,,,,,,,,0,75,75,53,1,,,,,,,,,,,,,space,0.6994,,,,,,,,,,,,,,,,,,,,,,,,,,,,,,,,,,,,,,,,,,,,,,,,,,,,,,,,,,,,,,,,,,,
,,,,020389,001,2024-02-07_22h02.19.607,fluency,2022.2.4,Win32,59.88023952,,,,,,,,,,,,,,,,,,,,,,,10,5,img/B05_10.jpg,MF,Press J if the face is FEMALE and K if the face is MALE, ,KJ,,,,,,,,,,,,,,,,,,,,,,,,,,,,,,,,,,,,,,,,,,,,,,763.8374,0,76,76,54,1,109,0,0,0,0,1,98,,,,,,,,,,,,,,,,,,,,,,,,,,,,,,,,,,,,,,,,,,,,,,,,,,,,,,,,,,,,,,,,,,,,,,,,,,
,,,,020389,001,2024-02-07_22h02.19.607,fluency,2022.2.4,Win32,59.88023952,,,,,,,,,,,,,,,,,,,,,,,,,,,,,,,,,,,,,,,,,,,,,,,,,,,,,,,,,,,,,,,,,,,,,,,,,,,,,,,,,,0,0,0,0,1,,"[""j""]",[0.8082999999522826],2,"[""j"",""space""]","[0.8082999999522826,1.6226999998092424]",,,,,,,,,,,,,,,,,,,,,,,,,,,,,,,,,,,,,,,,,,,,,,,,,,,,,,,,,,,,,,,,,,,,,
,,,,020389,001,2024-02-07_22h02.19.607,fluency,2022.2.4,Win32,59.88023952,,,,,,,,,,,,,,,,,,,,,,,10,5,img/B05_10.jpg,MF,Press J if the face is FEMALE and K if the face is MALE, ,KJ,,,,,,,,,,,,,,,,,,,,,,,,,,,,,,,,2,0.6834,,,,,,,,,,,,,,0,76,76,54,1,,,,,,,,,,,,,space,0.8203,,,,,,,,,,,,,,,,,,,,,,,,,,,,,,,,,,,,,,,,,,,,,,,,,,,,,,,,,,,,,,,,,,,
,,,,020389,001,2024-02-07_22h02.19.607,fluency,2022.2.4,Win32,59.88023952,,,,,,,,,,,,,,,,,,,,,,,7,9,img/B09_07.jpg,MF,Press J if the face is FEMALE and K if the face is MALE, ,KJ,,,,,,,,,,,,,,,,,,,,,,,,,,,,,,,,,,,,,,,,,,,,,,770.3845,0,77,77,95,1,109,0,0,0,0,1,98,,,,,,,,,,,,,,,,,,,,,,,,,,,,,,,,,,,,,,,,,,,,,,,,,,,,,,,,,,,,,,,,,,,,,,,,,,
,,,,020389,001,2024-02-07_22h02.19.607,fluency,2022.2.4,Win32,59.88023952,,,,,,,,,,,,,,,,,,,,,,,,,,,,,,,,,,,,,,,,,,,,,,,,,,,,,,,,,,,,,,,,,,,,,,,,,,,,,,,,,,0,0,0,0,1,,"[""j""]",[1.188299999952278],2,"[""j"",""space""]","[1.1883999998569834,1.8526999998092606]",,,,,,,,,,,,,,,,,,,,,,,,,,,,,,,,,,,,,,,,,,,,,,,,,,,,,,,,,,,,,,,,,,,,,
,,,,020389,001,2024-02-07_22h02.19.607,fluency,2022.2.4,Win32,59.88023952,,,,,,,,,,,,,,,,,,,,,,,7,9,img/B09_07.jpg,MF,Press J if the face is FEMALE and K if the face is MALE, ,KJ,,,,,,,,,,,,,,,,,,,,,,,,,,,,,,,,3,0.19,,,,,,,,,,,,,,0,77,77,95,1,,,,,,,,,,,,,space,0.6655,,,,,,,,,,,,,,,,,,,,,,,,,,,,,,,,,,,,,,,,,,,,,,,,,,,,,,,,,,,,,,,,,,,
,,,,020389,001,2024-02-07_22h02.19.607,fluency,2022.2.4,Win32,59.88023952,,,,,,,,,,,,,,,,,,,,,,,0,1,img/B01_00.jpg,MF,Press J if the face is FEMALE and K if the face is MALE, ,KJ,,,,,,,,,,,,,,,,,,,,,,,,,,,,,,,,,,,,,,,,,,,,,,775.3074,0,78,78,0,1,109,0,0,0,0,1,98,,,,,,,,,,,,,,,,,,,,,,,,,,,,,,,,,,,,,,,,,,,,,,,,,,,,,,,,,,,,,,,,,,,,,,,,,,
,,,,020389,001,2024-02-07_22h02.19.607,fluency,2022.2.4,Win32,59.88023952,,,,,,,,,,,,,,,,,,,,,,,,,,,,,,,,,,,,,,,,,,,,,,,,,,,,,,,,,,,,,,,,,,,,,,,,,,,,,,,,,,0,0,0,0,1,,"[""k""]",[0.8203999998569316],2,"[""k"",""space""]","[0.8202999999522262,1.7129999999999654]",,,,,,,,,,,,,,,,,,,,,,,,,,,,,,,,,,,,,,,,,,,,,,,,,,,,,,,,,,,,,,,,,,,,,
,,,,020389,001,2024-02-07_22h02.19.607,fluency,2022.2.4,Win32,59.88023952,,,,,,,,,,,,,,,,,,,,,,,0,1,img/B01_00.jpg,MF,Press J if the face is FEMALE and K if the face is MALE, ,KJ,,,,,,,,,,,,,,,,,,,,,,,,,,,,,,,,6,1.301,,,,,,,,,,,,,,0,78,78,0,1,,,,,,,,,,,,,space,0.3176,,,,,,,,,,,,,,,,,,,,,,,,,,,,,,,,,,,,,,,,,,,,,,,,,,,,,,,,,,,,,,,,,,,
,,,,020389,001,2024-02-07_22h02.19.607,fluency,2022.2.4,Win32,59.88023952,,,,,,,,,,,,,,,,,,,,,,,0,2,img/B02_00.jpg,MF,Press J if the face is FEMALE and K if the face is MALE, ,KJ,,,,,,,,,,,,,,,,,,,,,,,,,,,,,,,,,,,,,,,,,,,,,,780.9923,0,79,79,11,1,109,0,0,0,0,1,98,,,,,,,,,,,,,,,,,,,,,,,,,,,,,,,,,,,,,,,,,,,,,,,,,,,,,,,,,,,,,,,,,,,,,,,,,,
,,,,020389,001,2024-02-07_22h02.19.607,fluency,2022.2.4,Win32,59.88023952,,,,,,,,,,,,,,,,,,,,,,,,,,,,,,,,,,,,,,,,,,,,,,,,,,,,,,,,,,,,,,,,,,,,,,,,,,,,,,,,,,0,0,0,0,1,,"[""k""]",[2.328400000095371],2,"[""k"",""space""]","[2.328400000095371,2.8597999999523154]",,,,,,,,,,,,,,,,,,,,,,,,,,,,,,,,,,,,,,,,,,,,,,,,,,,,,,,,,,,,,,,,,,,,,
,,,,020389,001,2024-02-07_22h02.19.607,fluency,2022.2.4,Win32,59.88023952,,,,,,,,,,,,,,,,,,,,,,,0,2,img/B02_00.jpg,MF,Press J if the face is FEMALE and K if the face is MALE, ,KJ,,,,,,,,,,,,,,,,,,,,,,,,,,,,,,,,1,1.3999,,,,,,,,,,,,,,0,79,79,11,1,,,,,,,,,,,,,space,0.4308,,,,,,,,,,,,,,,,,,,,,,,,,,,,,,,,,,,,,,,,,,,,,,,,,,,,,,,,,,,,,,,,,,,
,,,,020389,001,2024-02-07_22h02.19.607,fluency,2022.2.4,Win32,59.88023952,,,,,,,,,,,,,,,,,,,,,,,0,7,img/B07_00.jpg,MF,Press J if the face is FEMALE and K if the face is MALE, ,KJ,,,,,,,,,,,,,,,,,,,,,,,,,,,,,,,,,,,,,,,,,,,,,,787.8967,0,80,80,66,1,109,0,0,0,0,1,98,,,,,,,,,,,,,,,,,,,,,,,,,,,,,,,,,,,,,,,,,,,,,,,,,,,,,,,,,,,,,,,,,,,,,,,,,,
,,,,020389,001,2024-02-07_22h02.19.607,fluency,2022.2.4,Win32,59.88023952,,,,,,,,,,,,,,,,,,,,,,,,,,,,,,,,,,,,,,,,,,,,,,,,,,,,,,,,,,,,,,,,,,,,,,,,,,,,,,,,,,0,0,0,0,1,,"[""k""]",[1.7904000000953602],2,"[""k"",""space""]","[1.7902000000476619,2.621299999952271]",,,,,,,,,,,,,,,,,,,,,,,,,,,,,,,,,,,,,,,,,,,,,,,,,,,,,,,,,,,,,,,,,,,,,
,,,,020389,001,2024-02-07_22h02.19.607,fluency,2022.2.4,Win32,59.88023952,,,,,,,,,,,,,,,,,,,,,,,0,7,img/B07_00.jpg,MF,Press J if the face is FEMALE and K if the face is MALE, ,KJ,,,,,,,,,,,,,,,,,,,,,,,,,,,,,,,,5,1.8648,,,,,,,,,,,,,,0,80,80,66,1,,,,,,,,,,,,,space,1.0158,,,,,,,,,,,,,,,,,,,,,,,,,,,,,,,,,,,,,,,,,,,,,,,,,,,,,,,,,,,,,,,,,,,
,,,,020389,001,2024-02-07_22h02.19.607,fluency,2022.2.4,Win32,59.88023952,,,,,,,,,,,,,,,,,,,,,,,9,2,img/B02_09.jpg,MF,Press J if the face is FEMALE and K if the face is MALE, ,KJ,,,,,,,,,,,,,,,,,,,,,,,,,,,,,,,,,,,,,,,,,,,,,,795.8479,0,81,81,20,1,109,0,0,0,0,1,98,,,,,,,,,,,,,,,,,,,,,,,,,,,,,,,,,,,,,,,,,,,,,,,,,,,,,,,,,,,,,,,,,,,,,,,,,,
,,,,020389,001,2024-02-07_22h02.19.607,fluency,2022.2.4,Win32,59.88023952,,,,,,,,,,,,,,,,,,,,,,,,,,,,,,,,,,,,,,,,,,,,,,,,,,,,,,,,,,,,,,,,,,,,,,,,,,,,,,,,,,0,0,0,0,1,,"[""j""]",[0.8557999999522963],2,"[""j"",""space""]","[0.855700000047591,2.0862000000475973]",,,,,,,,,,,,,,,,,,,,,,,,,,,,,,,,,,,,,,,,,,,,,,,,,,,,,,,,,,,,,,,,,,,,,
,,,,020389,001,2024-02-07_22h02.19.607,fluency,2022.2.4,Win32,59.88023952,,,,,,,,,,,,,,,,,,,,,,,9,2,img/B02_09.jpg,MF,Press J if the face is FEMALE and K if the face is MALE, ,KJ,,,,,,,,,,,,,,,,,,,,,,,,,,,,,,,,4,1.449,,,,,,,,,,,,,,0,81,81,20,1,,,,,,,,,,,,,space,0.6986,,,,,,,,,,,,,,,,,,,,,,,,,,,,,,,,,,,,,,,,,,,,,,,,,,,,,,,,,,,,,,,,,,,
,,,,020389,001,2024-02-07_22h02.19.607,fluency,2022.2.4,Win32,59.88023952,,,,,,,,,,,,,,,,,,,,,,,1,4,img/B04_01.jpg,MF,Press J if the face is FEMALE and K if the face is MALE, ,KJ,,,,,,,,,,,,,,,,,,,,,,,,,,,,,,,,,,,,,,,,,,,,,,803.0481,0,82,82,34,1,109,0,0,0,0,1,98,,,,,,,,,,,,,,,,,,,,,,,,,,,,,,,,,,,,,,,,,,,,,,,,,,,,,,,,,,,,,,,,,,,,,,,,,,
,,,,020389,001,2024-02-07_22h02.19.607,fluency,2022.2.4,Win32,59.88023952,,,,,,,,,,,,,,,,,,,,,,,,,,,,,,,,,,,,,,,,,,,,,,,,,,,,,,,,,,,,,,,,,,,,,,,,,,,,,,,,,,0,0,0,0,1,,"[""k""]",[0.782299999952329],2,"[""k"",""space""]","[0.782299999952329,1.961999999999989]",,,,,,,,,,,,,,,,,,,,,,,,,,,,,,,,,,,,,,,,,,,,,,,,,,,,,,,,,,,,,,,,,,,,,
,,,,020389,001,2024-02-07_22h02.19.607,fluency,2022.2.4,Win32,59.88023952,,,,,,,,,,,,,,,,,,,,,,,1,4,img/B04_01.jpg,MF,Press J if the face is FEMALE and K if the face is MALE, ,KJ,,,,,,,,,,,,,,,,,,,,,,,,,,,,,,,,6,0.4418,,,,,,,,,,,,,,0,82,82,34,1,,,,,,,,,,,,,space,0.6687,,,,,,,,,,,,,,,,,,,,,,,,,,,,,,,,,,,,,,,,,,,,,,,,,,,,,,,,,,,,,,,,,,,
,,,,020389,001,2024-02-07_22h02.19.607,fluency,2022.2.4,Win32,59.88023952,,,,,,,,,,,,,,,,,,,,,,,3,5,img/B05_03.jpg,MF,Press J if the face is FEMALE and K if the face is MALE, ,KJ,,,,,,,,,,,,,,,,,,,,,,,,,,,,,,,,,,,,,,,,,,,,,,809.2116,0,83,83,47,1,109,0,0,0,0,1,98,,,,,,,,,,,,,,,,,,,,,,,,,,,,,,,,,,,,,,,,,,,,,,,,,,,,,,,,,,,,,,,,,,,,,,,,,,
,,,,020389,001,2024-02-07_22h02.19.607,fluency,2022.2.4,Win32,59.88023952,,,,,,,,,,,,,,,,,,,,,,,,,,,,,,,,,,,,,,,,,,,,,,,,,,,,,,,,,,,,,,,,,,,,,,,,,,,,,,,,,,0,0,0,0,1,,"[""j""]",[1.7551000001429884],2,"[""j"",""space""]","[1.7549999999999955,2.6326999998092333]",,,,,,,,,,,,,,,,,,,,,,,,,,,,,,,,,,,,,,,,,,,,,,,,,,,,,,,,,,,,,,,,,,,,,
,,,,020389,001,2024-02-07_22h02.19.607,fluency,2022.2.4,Win32,59.88023952,,,,,,,,,,,,,,,,,,,,,,,3,5,img/B05_03.jpg,MF,Press J if the face is FEMALE and K if the face is MALE, ,KJ,,,,,,,,,,,,,,,,,,,,,,,,,,,,,,,,2,0.5275,,,,,,,,,,,,,,0,83,83,47,1,,,,,,,,,,,,,space,0.5173,,,,,,,,,,,,,,,,,,,,,,,,,,,,,,,,,,,,,,,,,,,,,,,,,,,,,,,,,,,,,,,,,,,
,,,,020389,001,2024-02-07_22h02.19.607,fluency,2022.2.4,Win32,59.88023952,,,,,,,,,,,,,,,,,,,,,,,4,5,img/B05_04.jpg,MF,Press J if the face is FEMALE and K if the face is MALE, ,KJ,,,,,,,,,,,,,,,,,,,,,,,,,,,,,,,,,,,,,,,,,,,,,,815.3115,0,84,84,48,1,109,0,0,0,0,1,98,,,,,,,,,,,,,,,,,,,,,,,,,,,,,,,,,,,,,,,,,,,,,,,,,,,,,,,,,,,,,,,,,,,,,,,,,,
,,,,020389,001,2024-02-07_22h02.19.607,fluency,2022.2.4,Win32,59.88023952,,,,,,,,,,,,,,,,,,,,,,,,,,,,,,,,,,,,,,,,,,,,,,,,,,,,,,,,,,,,,,,,,,,,,,,,,,,,,,,,,,0,0,0,0,1,,"[""j""]",[0.7707999999523736],2,"[""j"",""space""]","[0.7709000000953665,1.6591000001430984]",,,,,,,,,,,,,,,,,,,,,,,,,,,,,,,,,,,,,,,,,,,,,,,,,,,,,,,,,,,,,,,,,,,,,
,,,,020389,001,2024-02-07_22h02.19.607,fluency,2022.2.4,Win32,59.88023952,,,,,,,,,,,,,,,,,,,,,,,4,5,img/B05_04.jpg,MF,Press J if the face is FEMALE and K if the face is MALE, ,KJ,,,,,,,,,,,,,,,,,,,,,,,,,,,,,,,,2,1.0192,,,,,,,,,,,,,,0,84,84,48,1,,,,,,,,,,,,,space,0.4002,,,,,,,,,,,,,,,,,,,,,,,,,,,,,,,,,,,,,,,,,,,,,,,,,,,,,,,,,,,,,,,,,,,
,,,,020389,001,2024-02-07_22h02.19.607,fluency,2022.2.4,Win32,59.88023952,,,,,,,,,,,,,,,,,,,,,,,7,3,img/B03_07.jpg,MF,Press J if the face is FEMALE and K if the face is MALE, ,KJ,,,,,,,,,,,,,,,,,,,,,,,,,,,,,,,,,,,,,,,,,,,,,,820.7796,0,85,85,29,1,109,0,0,0,0,1,98,,,,,,,,,,,,,,,,,,,,,,,,,,,,,,,,,,,,,,,,,,,,,,,,,,,,,,,,,,,,,,,,,,,,,,,,,,
,,,,020389,001,2024-02-07_22h02.19.607,fluency,2022.2.4,Win32,59.88023952,,,,,,,,,,,,,,,,,,,,,,,,,,,,,,,,,,,,,,,,,,,,,,,,,,,,,,,,,,,,,,,,,,,,,,,,,,,,,,,,,,0,0,0,0,1,,"[""j""]",[0.8850999999046962],2,"[""j""]",[0.8850999999046962],,,,,,,,,,,,,,,,,,,,,,,,,,,,,,,,,,,,,,,,,,,,,,,,,,,,,,,,,,,,,,,,,,,,,
,,,,020389,001,2024-02-07_22h02.19.607,fluency,2022.2.4,Win32,59.88023952,,,,,,,,,,,,,,,,,,,,,,,7,3,img/B03_07.jpg,MF,Press J if the face is FEMALE and K if the face is MALE, ,KJ,,,,,,,,,,,,,,,,,,,,,,,,,,,,,,,,4,1.9284,,,,,,,,,,,,,,0,85,85,29,1,,,,,,,,,,,,,space,2.8789,,,,,,,,,,,,,,,,,,,,,,,,,,,,,,,,,,,,,,,,,,,,,,,,,,,,,,,,,,,,,,,,,,,
,,,,020389,001,2024-02-07_22h02.19.607,fluency,2022.2.4,Win32,59.88023952,,,,,,,,,,,,,,,,,,,,,,,7,8,img/B08_07.jpg,MF,Press J if the face is FEMALE and K if the face is MALE, ,KJ,,,,,,,,,,,,,,,,,,,,,,,,,,,,,,,,,,,,,,,,,,,,,,829.6559,0,86,86,84,1,109,0,0,0,0,1,98,,,,,,,,,,,,,,,,,,,,,,,,,,,,,,,,,,,,,,,,,,,,,,,,,,,,,,,,,,,,,,,,,,,,,,,,,,
,,,,020389,001,2024-02-07_22h02.19.607,fluency,2022.2.4,Win32,59.88023952,,,,,,,,,,,,,,,,,,,,,,,,,,,,,,,,,,,,,,,,,,,,,,,,,,,,,,,,,,,,,,,,,,,,,,,,,,,,,,,,,,0,0,0,0,1,,"[""k""]",[1.31870000004767],2,"[""k"",""space""]","[1.31870000004767,2.6964000000953092]",,,,,,,,,,,,,,,,,,,,,,,,,,,,,,,,,,,,,,,,,,,,,,,,,,,,,,,,,,,,,,,,,,,,,
,,,,020389,001,2024-02-07_22h02.19.607,fluency,2022.2.4,Win32,59.88023952,,,,,,,,,,,,,,,,,,,,,,,7,8,img/B08_07.jpg,MF,Press J if the face is FEMALE and K if the face is MALE, ,KJ,,,,,,,,,,,,,,,,,,,,,,,,,,,,,,,,3,0.6868,,,,,,,,,,,,,,0,86,86,84,1,,,,,,,,,,,,,space,0.4046,,,,,,,,,,,,,,,,,,,,,,,,,,,,,,,,,,,,,,,,,,,,,,,,,,,,,,,,,,,,,,,,,,,
,,,,020389,001,2024-02-07_22h02.19.607,fluency,2022.2.4,Win32,59.88023952,,,,,,,,,,,,,,,,,,,,,,,3,9,img/B09_03.jpg,MF,Press J if the face is FEMALE and K if the face is MALE, ,KJ,,,,,,,,,,,,,,,,,,,,,,,,,,,,,,,,,,,,,,,,,,,,,,834.7916,0,87,87,91,1,109,0,0,0,0,1,98,,,,,,,,,,,,,,,,,,,,,,,,,,,,,,,,,,,,,,,,,,,,,,,,,,,,,,,,,,,,,,,,,,,,,,,,,,
,,,,020389,001,2024-02-07_22h02.19.607,fluency,2022.2.4,Win32,59.88023952,,,,,,,,,,,,,,,,,,,,,,,,,,,,,,,,,,,,,,,,,,,,,,,,,,,,,,,,,,,,,,,,,,,,,,,,,,,,,,,,,,0,0,0,0,1,,"[""k""]",[0.8842000000477128],2,"[""k"",""space"",""space""]","[0.8841000001430075,1.4294999999999618,2.1847000000476555]",,,,,,,,,,,,,,,,,,,,,,,,,,,,,,,,,,,,,,,,,,,,,,,,,,,,,,,,,,,,,,,,,,,,,
,,,,020389,001,2024-02-07_22h02.19.607,fluency,2022.2.4,Win32,59.88023952,,,,,,,,,,,,,,,,,,,,,,,3,9,img/B09_03.jpg,MF,Press J if the face is FEMALE and K if the face is MALE, ,KJ,,,,,,,,,,,,,,,,,,,,,,,,,,,,,,,,4,1.4679,,,,,,,,,,,,,,0,87,87,91,1,,,,,,,,,,,,,space,0.8668,,,,,,,,,,,,,,,,,,,,,,,,,,,,,,,,,,,,,,,,,,,,,,,,,,,,,,,,,,,,,,,,,,,
,,,,020389,001,2024-02-07_22h02.19.607,fluency,2022.2.4,Win32,59.88023952,,,,,,,,,,,,,,,,,,,,,,,7,6,img/B06_07.jpg,MF,Press J if the face is FEMALE and K if the face is MALE, ,KJ,,,,,,,,,,,,,,,,,,,,,,,,,,,,,,,,,,,,,,,,,,,,,,842.1715,0,88,88,62,1,109,0,0,0,0,1,98,,,,,,,,,,,,,,,,,,,,,,,,,,,,,,,,,,,,,,,,,,,,,,,,,,,,,,,,,,,,,,,,,,,,,,,,,,
,,,,020389,001,2024-02-07_22h02.19.607,fluency,2022.2.4,Win32,59.88023952,,,,,,,,,,,,,,,,,,,,,,,,,,,,,,,,,,,,,,,,,,,,,,,,,,,,,,,,,,,,,,,,,,,,,,,,,,,,,,,,,,0,0,0,0,1,,"[""j""]",[1.003300000190734],2,"[""j"",""space""]","[1.0034000000953256,1.4736000001430511]",,,,,,,,,,,,,,,,,,,,,,,,,,,,,,,,,,,,,,,,,,,,,,,,,,,,,,,,,,,,,,,,,,,,,
,,,,020389,001,2024-02-07_22h02.19.607,fluency,2022.2.4,Win32,59.88023952,,,,,,,,,,,,,,,,,,,,,,,7,6,img/B06_07.jpg,MF,Press J if the face is FEMALE and K if the face is MALE, ,KJ,,,,,,,,,,,,,,,,,,,,,,,,,,,,,,,,4,1.0836,,,,,,,,,,,,,,0,88,88,62,1,,,,,,,,,,,,,space,0.3514,,,,,,,,,,,,,,,,,,,,,,,,,,,,,,,,,,,,,,,,,,,,,,,,,,,,,,,,,,,,,,,,,,,
,,,,020389,001,2024-02-07_22h02.19.607,fluency,2022.2.4,Win32,59.88023952,,,,,,,,,,,,,,,,,,,,,,,4,3,img/B03_04.jpg,MF,Press J if the face is FEMALE and K if the face is MALE, ,KJ,,,,,,,,,,,,,,,,,,,,,,,,,,,,,,,,,,,,,,,,,,,,,,848.6537,0,89,89,26,1,109,0,0,0,0,1,98,,,,,,,,,,,,,,,,,,,,,,,,,,,,,,,,,,,,,,,,,,,,,,,,,,,,,,,,,,,,,,,,,,,,,,,,,,
,,,,020389,001,2024-02-07_22h02.19.607,fluency,2022.2.4,Win32,59.88023952,,,,,,,,,,,,,,,,,,,,,,,,,,,,,,,,,,,,,,,,,,,,,,,,,,,,,,,,,,,,,,,,,,,,,,,,,,,,,,,,,,0,0,0,0,1,,"[""k""]",[2.5679000000952783],2,"[""k""]",[2.5677999999522854],,,,,,,,,,,,,,,,,,,,,,,,,,,,,,,,,,,,,,,,,,,,,,,,,,,,,,,,,,,,,,,,,,,,,
,,,,020389,001,2024-02-07_22h02.19.607,fluency,2022.2.4,Win32,59.88023952,,,,,,,,,,,,,,,,,,,,,,,4,3,img/B03_04.jpg,MF,Press J if the face is FEMALE and K if the face is MALE, ,KJ,,,,,,,,,,,,,,,,,,,,,,,,,,,,,,,,7,1.9936,,,,,,,,,,,,,,0,89,89,26,1,,,,,,,,,,,,,space,0.4004,,,,,,,,,,,,,,,,,,,,,,,,,,,,,,,,,,,,,,,,,,,,,,,,,,,,,,,,,,,,,,,,,,,
,,,,020389,001,2024-02-07_22h02.19.607,fluency,2022.2.4,Win32,59.88023952,,,,,,,,,,,,,,,,,,,,,,,6,7,img/B07_06.jpg,MF,Press J if the face is FEMALE and K if the face is MALE, ,KJ,,,,,,,,,,,,,,,,,,,,,,,,,,,,,,,,,,,,,,,,,,,,,,855.1226,0,90,90,72,1,109,0,0,0,0,1,98,,,,,,,,,,,,,,,,,,,,,,,,,,,,,,,,,,,,,,,,,,,,,,,,,,,,,,,,,,,,,,,,,,,,,,,,,,
,,,,020389,001,2024-02-07_22h02.19.607,fluency,2022.2.4,Win32,59.88023952,,,,,,,,,,,,,,,,,,,,,,,,,,,,,,,,,,,,,,,,,,,,,,,,,,,,,,,,,,,,,,,,,,,,,,,,,,,,,,,,,,0,0,0,0,1,,"[""j""]",[1.6485000000000127],2,"[""j"",""space""]","[1.648499999999899,2.1481000001430175]",,,,,,,,,,,,,,,,,,,,,,,,,,,,,,,,,,,,,,,,,,,,,,,,,,,,,,,,,,,,,,,,,,,,,
,,,,020389,001,2024-02-07_22h02.19.607,fluency,2022.2.4,Win32,59.88023952,,,,,,,,,,,,,,,,,,,,,,,6,7,img/B07_06.jpg,MF,Press J if the face is FEMALE and K if the face is MALE, ,KJ,,,,,,,,,,,,,,,,,,,,,,,,,,,,,,,,2,0.558,,,,,,,,,,,,,,0,90,90,72,1,,,,,,,,,,,,,space,0.649,,,,,,,,,,,,,,,,,,,,,,,,,,,,,,,,,,,,,,,,,,,,,,,,,,,,,,,,,,,,,,,,,,,
,,,,020389,001,2024-02-07_22h02.19.607,fluency,2022.2.4,Win32,59.88023952,,,,,,,,,,,,,,,,,,,,,,,2,7,img/B07_02.jpg,MF,Press J if the face is FEMALE and K if the face is MALE, ,KJ,,,,,,,,,,,,,,,,,,,,,,,,,,,,,,,,,,,,,,,,,,,,,,860.3887,0,91,91,68,1,109,0,0,0,0,1,98,,,,,,,,,,,,,,,,,,,,,,,,,,,,,,,,,,,,,,,,,,,,,,,,,,,,,,,,,,,,,,,,,,,,,,,,,,
,,,,020389,001,2024-02-07_22h02.19.607,fluency,2022.2.4,Win32,59.88023952,,,,,,,,,,,,,,,,,,,,,,,,,,,,,,,,,,,,,,,,,,,,,,,,,,,,,,,,,,,,,,,,,,,,,,,,,,,,,,,,,,0,0,0,0,1,,"[""k""]",[1.8325999999046871],2,"[""k"",""space""]","[1.8325999999046871,2.5142999999523]",,,,,,,,,,,,,,,,,,,,,,,,,,,,,,,,,,,,,,,,,,,,,,,,,,,,,,,,,,,,,,,,,,,,,
,,,,020389,001,2024-02-07_22h02.19.607,fluency,2022.2.4,Win32,59.88023952,,,,,,,,,,,,,,,,,,,,,,,2,7,img/B07_02.jpg,MF,Press J if the face is FEMALE and K if the face is MALE, ,KJ,,,,,,,,,,,,,,,,,,,,,,,,,,,,,,,,5,2.078,,,,,,,,,,,,,,0,91,91,68,1,,,,,,,,,,,,,space,0.4458,,,,,,,,,,,,,,,,,,,,,,,,,,,,,,,,,,,,,,,,,,,,,,,,,,,,,,,,,,,,,,,,,,,
,,,,020389,001,2024-02-07_22h02.19.607,fluency,2022.2.4,Win32,59.88023952,,,,,,,,,,,,,,,,,,,,,,,4,6,img/B06_04.jpg,MF,Press J if the face is FEMALE and K if the face is MALE, ,KJ,,,,,,,,,,,,,,,,,,,,,,,,,,,,,,,,,,,,,,,,,,,,,,867.9769,0,92,92,59,1,109,0,0,0,0,1,98,,,,,,,,,,,,,,,,,,,,,,,,,,,,,,,,,,,,,,,,,,,,,,,,,,,,,,,,,,,,,,,,,,,,,,,,,,
,,,,020389,001,2024-02-07_22h02.19.607,fluency,2022.2.4,Win32,59.88023952,,,,,,,,,,,,,,,,,,,,,,,,,,,,,,,,,,,,,,,,,,,,,,,,,,,,,,,,,,,,,,,,,,,,,,,,,,,,,,,,,,0,0,0,0,1,,"[""k""]",[1.1792999999522635],2,"[""k"",""space""]","[1.179200000047672,2.0562000000477383]",,,,,,,,,,,,,,,,,,,,,,,,,,,,,,,,,,,,,,,,,,,,,,,,,,,,,,,,,,,,,,,,,,,,,
