idTextbox.text,welcomeDone.numClicks,welcomeDone.timesOn,welcomeDone.timesOff,participant,session,date,expName,psychopyVersion,OS,frameRate,consent_advance.keys,consent_advance.rt,consent_advance_2.keys,consent_advance_2.rt,consentClick.x,consentClick.y,consentClick.leftButton,consentClick.midButton,consentClick.rightButton,consentClick.time,consentClick.clicked_name,instr_advance_3.keys,instr_advance_3.rt,spec_instr_adv.keys,spec_instr_adv.rt,spec_instr_adv2.keys,spec_instr_adv2.rt,instrLoop.thisRepN,instrLoop.thisTrialN,instrLoop.thisN,instrLoop.thisIndex,instrLoop.ran,steps,fams,face_file,cond,instr,term,key_map,attnKeyResp1.keys,attnKeyResp1.rt,q1.thisRepN,q1.thisTrialN,q1.thisN,q1.thisIndex,q1.ran,attnKeyResp2.keys,attnKeyResp2.rt,q2.thisRepN,q2.thisTrialN,q2.thisN,q2.thisIndex,q2.ran,attnKeyResp3.keys,attnKeyResp3.rt,q3.thisRepN,q3.thisTrialN,q3.thisN,q3.thisIndex,q3.ran,practiceStart.keys,practiceStart.rt,practiceResp.keys,practiceResp.rt,timesRedone,practiceRepeat.thisRepN,practiceRepeat.thisTrialN,practiceRepeat.thisN,practiceRepeat.thisIndex,practiceRepeat.ran,attrRating.keys,attrRating.rt,practiceTrial.thisRepN,practiceTrial.thisTrialN,practiceTrial.thisN,practiceTrial.thisIndex,practiceTrial.ran,key_resp_3.keys,key_resp_3.rt,attnChecker.thisRepN,attnChecker.thisTrialN,attnChecker.thisN,attnChecker.thisIndex,attnChecker.ran,faceOnsetTime,trials.thisRepN,trials.thisTrialN,trials.thisN,trials.thisIndex,trials.ran,trials.order,repeat_loop.thisRepN,repeat_loop.thisTrialN,repeat_loop.thisN,repeat_loop.thisIndex,repeat_loop.ran,repeat_loop.order,catResp.keys,catResp.rt,globalTimesRedone,catAllKeys.keys,catAllKeys.rt,contResp.keys,contResp.rt,redo_keypress.keys,redo_keypress.rt,redo_feedback_loop.thisRepN,redo_feedback_loop.thisTrialN,redo_feedback_loop.thisN,redo_feedback_loop.thisIndex,redo_feedback_loop.ran,contResp_2.keys,contResp_2.rt,respQ1.response,respQ1.rt,respQ2.response,respQ2.rt,respQ3.response,respQ3.rt,respQ4.response,respQ4.rt,surveyContinue1.numClicks,surveyContinue1.timesOn,surveyContinue1.timesOff,respQ5.response,respQ5.rt,respQ6.response,respQ6.rt,respQ7.response,respQ7.rt,respQ8.response,respQ8.rt,surveyContinue2.numClicks,surveyContinue2.timesOn,surveyContinue2.timesOff,respQ9.response,respQ9.rt,respQ10.response,respQ10.rt,respQ11.response,respQ11.rt,respQ12.response,respQ12.rt,surveyContinue3.numClicks,surveyContinue3.timesOn,surveyContinue3.timesOff,respQ13.response,respQ13.rt,respQ14.response,respQ14.rt,respQ15.response,respQ15.rt,surveyContinue4.numClicks,surveyContinue4.timesOn,surveyContinue4.timesOff,respAge.response,respAge.rt,genderResp1.response,genderResp1.rt,genderResp2.text,demogexitClick.numClicks,demogexitClick.timesOn,demogexitClick.timesOff,textbox.text,openAnswerClick.numClicks,openAnswerClick.timesOn,openAnswerClick.timesOff,debriefEnd.keys,debriefEnd.rt,exitKey.keys,exitKey.rt
5e3abbc3eab8662c57206f96,1,[28.638500000000004],[28.638500000000004],042010,001,2024-02-02_19h38.05.144,fluency,2022.2.5,Win32,6.666666667,,,,,,,,,,,,,,,,,,,,,,,,,,,,,,,,,,,,,,,,,,,,,,,,,,,,,,,,,,,,,,,,,,,,,,,,,,,,,,,,,,,,,,,,,,,,,,,,,,,,,,,,,,,,,,,,,,,,,,,,,,,,,,,,,,,,,,,,,,,,,,,,,,,,,,,,,,,,,,,,,
,,,,042010,001,2024-02-02_19h38.05.144,fluency,2022.2.5,Win32,6.666666667,space,26.7512,,,,,,,,,,,,,,,,,,,,,,,,,,,,,,,,,,,,,,,,,,,,,,,,,,,,,,,,,,,,,,,,,,,,,,,,,,,,,,,,,,,,,,,,,,,,,,,,,,,,,,,,,,,,,,,,,,,,,,,,,,,,,,,,,,,,,,,,,,,,,,,,,,,,,,,,,,,,,,,
,,,,042010,001,2024-02-02_19h38.05.144,fluency,2022.2.5,Win32,6.666666667,,,space,52.5046,,,,,,,,,,,,,,,,,,,,,,,,,,,,,,,,,,,,,,,,,,,,,,,,,,,,,,,,,,,,,,,,,,,,,,,,,,,,,,,,,,,,,,,,,,,,,,,,,,,,,,,,,,,,,,,,,,,,,,,,,,,,,,,,,,,,,,,,,,,,,,,,,,,,,,,,,,,,,
,,,,042010,001,2024-02-02_19h38.05.144,fluency,2022.2.5,Win32,6.666666667,,,,,0.311111111,-0.338888889,1,0,0,30.0968,iAgree,,,,,,,,,,,,,,,,,,,,,,,,,,,,,,,,,,,,,,,,,,,,,,,,,,,,,,,,,,,,,,,,,,,,,,,,,,,,,,,,,,,,,,,,,,,,,,,,,,,,,,,,,,,,,,,,,,,,,,,,,,,,,,,,,,,,,,,,,,,,,,,,,,,,,,
,,,,042010,001,2024-02-02_19h38.05.144,fluency,2022.2.5,Win32,6.666666667,,,,,,,,,,,,space,9.2081,,,,,,,,,,,,,,,,,,,,,,,,,,,,,,,,,,,,,,,,,,,,,,,,,,,,,,,,,,,,,,,,,,,,,,,,,,,,,,,,,,,,,,,,,,,,,,,,,,,,,,,,,,,,,,,,,,,,,,,,,,,,,,,,,,,,,,,,,,,,,,,,,,,,
,,,,042010,001,2024-02-02_19h38.05.144,fluency,2022.2.5,Win32,6.666666667,,,,,,,,,,,,,,space,22.4363,space,7.1982,0,0,0,6,1,6,1,img/B01_06.jpg,GCNB,Press J if the face is NONBINARY and K if the face is GENDER-CONFORMING,Gender-conforming means that the face appears to be a typical example of its gender. Nonbinary means that the face does not conform to any particular gender norms.,KJ,,,,,,,,,,,,,,,,,,,,,,,,,,,,,,,,,,,,,,,,,,,,,,,,,,,,,,,,,,,,,,,,,,,,,,,,,,,,,,,,,,,,,,,,,,,,,,,,,,,,,,,,,,,,,,,,,,,,,,,,,,,,,,,,,,,,
,,,,042010,001,2024-02-02_19h38.05.144,fluency,2022.2.5,Win32,6.666666667,,,,,,,,,,,,,,,,,,,,,,,,,,,,,,c,7.2434,0,0,0,0,1,,,,,,,,,,,,,,,,,,,,,,,,,,,,,,,,,,,,,,,,,,,,,,,,,,,,,,,,,,,,,,,,,,,,,,,,,,,,,,,,,,,,,,,,,,,,,,,,,,,,,,,,,,,,,,,,,,,,,,,,,,,,,
,,,,042010,001,2024-02-02_19h38.05.144,fluency,2022.2.5,Win32,6.666666667,,,,,,,,,,,,,,,,,,,,,,,,,,,,,,,,,,,,,a,4.2543,0,0,0,0,1,,,,,,,,,,,,,,,,,,,,,,,,,,,,,,,,,,,,,,,,,,,,,,,,,,,,,,,,,,,,,,,,,,,,,,,,,,,,,,,,,,,,,,,,,,,,,,,,,,,,,,,,,,,,,,,,,,,,,,
,,,,042010,001,2024-02-02_19h38.05.144,fluency,2022.2.5,Win32,6.666666667,,,,,,,,,,,,,,,,,,,,,,,,,,,,,,,,,,,,,,,,,,,,c,5.0111,0,0,0,0,1,,,,,,,,,,,,,,,,,,,,,,,,,,,,,,,,,,,,,,,,,,,,,,,,,,,,,,,,,,,,,,,,,,,,,,,,,,,,,,,,,,,,,,,,,,,,,,,,,,,,,,,,,,,,,,,
,,,,042010,001,2024-02-02_19h38.05.144,fluency,2022.2.5,Win32,6.666666667,,,,,,,,,,,,,,,,,,,,,,,,,,,,,,,,,,,,,,,,,,,,,,,,,,,space,1.3996,k,1.6746,0,0,0,0,0,1,,,,,,,,,,,,,,,,,,,,,,,,,,,,,,,,,,,,,,,,,,,,,,,,,,,,,,,,,,,,,,,,,,,,,,,,,,,,,,,,,,,,,,,,,,,,,,,,,,,,,
,,,,042010,001,2024-02-02_19h38.05.144,fluency,2022.2.5,Win32,6.666666667,,,,,,,,,,,,,,,,,,,,,,,,,,,,,,,,,,,,,,,,,,,,,,,,,,,,,,,,,,,,,7,4.0172,0,0,0,0,1,,,,,,,,,,,,,,,,,,,,,,,,,,,,,,,,,,,,,,,,,,,,,,,,,,,,,,,,,,,,,,,,,,,,,,,,,,,,,,,,,,,,,,,,,,,,,,
,,,,042010,001,2024-02-02_19h38.05.144,fluency,2022.2.5,Win32,6.666666667,,,,,,,,,,,,,,,,,,,,,,,,,,,,,,,,,,,,,,,,,,,,,,,,,,,,,,,,,,,,,,,,,,,,space,11.716,0,0,0,0,1,,,,,,,,,,,,,,,,,,,,,,,,,,,,,,,,,,,,,,,,,,,,,,,,,,,,,,,,,,,,,,,,,,,,,,,,,,,,,,,,,,,,,,,
,,,,042010,001,2024-02-02_19h38.05.144,fluency,2022.2.5,Win32,6.666666667,,,,,,,,,,,,,,,,,,,,,,,6,4,img/B04_06.jpg,GCNB,Press J if the face is NONBINARY and K if the face is GENDER-CONFORMING,Gender-conforming means that the face appears to be a typical example of its gender. Nonbinary means that the face does not conform to any particular gender norms.,KJ,,,,,,,,,,,,,,,,,,,,,,,,,,,,,,,,,,,,,,,,,,,,,,236.5702,0,0,0,39,1,109,0,0,0,0,1,98,,,,,,,,,,,,,,,,,,,,,,,,,,,,,,,,,,,,,,,,,,,,,,,,,,,,,,,,,,,,,,,,,,,,,,,,,,
,,,,042010,001,2024-02-02_19h38.05.144,fluency,2022.2.5,Win32,6.666666667,,,,,,,,,,,,,,,,,,,,,,,,,,,,,,,,,,,,,,,,,,,,,,,,,,,,,,,,,,,,,,,,,,,,,,,,,,,,,,,,,,0,0,0,0,1,,"[""k""]",[1.488399999856938],0,"[""k""]",[1.4882999999522895],,,,,,,,,,,,,,,,,,,,,,,,,,,,,,,,,,,,,,,,,,,,,,,,,,,,,,,,,,,,,,,,,,,,,
,,,,042010,001,2024-02-02_19h38.05.144,fluency,2022.2.5,Win32,6.666666667,,,,,,,,,,,,,,,,,,,,,,,6,4,img/B04_06.jpg,GCNB,Press J if the face is NONBINARY and K if the face is GENDER-CONFORMING,Gender-conforming means that the face appears to be a typical example of its gender. Nonbinary means that the face does not conform to any particular gender norms.,KJ,,,,,,,,,,,,,,,,,,,,,,,,,,,,,,,,3,1.8475,,,,,,,,,,,,,,0,0,0,39,1,,,,,,,,,,,,,space,5.383,,,,,,,,,,,,,,,,,,,,,,,,,,,,,,,,,,,,,,,,,,,,,,,,,,,,,,,,,,,,,,,,,,,
,,,,042010,001,2024-02-02_19h38.05.144,fluency,2022.2.5,Win32,6.666666667,,,,,,,,,,,,,,,,,,,,,,,10,4,img/B04_10.jpg,GCNB,Press J if the face is NONBINARY and K if the face is GENDER-CONFORMING,Gender-conforming means that the face appears to be a typical example of its gender. Nonbinary means that the face does not conform to any particular gender norms.,KJ,,,,,,,,,,,,,,,,,,,,,,,,,,,,,,,,,,,,,,,,,,,,,,248.2857,0,1,1,43,1,109,0,0,0,0,1,98,,,,,,,,,,,,,,,,,,,,,,,,,,,,,,,,,,,,,,,,,,,,,,,,,,,,,,,,,,,,,,,,,,,,,,,,,,
,,,,042010,001,2024-02-02_19h38.05.144,fluency,2022.2.5,Win32,6.666666667,,,,,,,,,,,,,,,,,,,,,,,,,,,,,,,,,,,,,,,,,,,,,,,,,,,,,,,,,,,,,,,,,,,,,,,,,,,,,,,,,,0,0,0,0,1,,"[""k""]",[1.860200000047655],0,"[""k""]",[1.8602999999523036],,,,,,,,,,,,,,,,,,,,,,,,,,,,,,,,,,,,,,,,,,,,,,,,,,,,,,,,,,,,,,,,,,,,,
,,,,042010,001,2024-02-02_19h38.05.144,fluency,2022.2.5,Win32,6.666666667,,,,,,,,,,,,,,,,,,,,,,,10,4,img/B04_10.jpg,GCNB,Press J if the face is NONBINARY and K if the face is GENDER-CONFORMING,Gender-conforming means that the face appears to be a typical example of its gender. Nonbinary means that the face does not conform to any particular gender norms.,KJ,,,,,,,,,,,,,,,,,,,,,,,,,,,,,,,,4,2.5745,,,,,,,,,,,,,,0,1,1,43,1,,,,,,,,,,,,,space,7.2144,,,,,,,,,,,,,,,,,,,,,,,,,,,,,,,,,,,,,,,,,,,,,,,,,,,,,,,,,,,,,,,,,,,
,,,,042010,001,2024-02-02_19h38.05.144,fluency,2022.2.5,Win32,6.666666667,,,,,,,,,,,,,,,,,,,,,,,0,3,img/B03_00.jpg,GCNB,Press J if the face is NONBINARY and K if the face is GENDER-CONFORMING,Gender-conforming means that the face appears to be a typical example of its gender. Nonbinary means that the face does not conform to any particular gender norms.,KJ,,,,,,,,,,,,,,,,,,,,,,,,,,,,,,,,,,,,,,,,,,,,,,263.4096,0,2,2,22,1,109,0,0,0,0,1,98,,,,,,,,,,,,,,,,,,,,,,,,,,,,,,,,,,,,,,,,,,,,,,,,,,,,,,,,,,,,,,,,,,,,,,,,,,
,,,,042010,001,2024-02-02_19h38.05.144,fluency,2022.2.5,Win32,6.666666667,,,,,,,,,,,,,,,,,,,,,,,,,,,,,,,,,,,,,,,,,,,,,,,,,,,,,,,,,,,,,,,,,,,,,,,,,,,,,,,,,,0,0,0,0,1,,"[""k""]",[1.1664000000953934],0,"[""k""]",[1.166200000047695],,,,,,,,,,,,,,,,,,,,,,,,,,,,,,,,,,,,,,,,,,,,,,,,,,,,,,,,,,,,,,,,,,,,,
,,,,042010,001,2024-02-02_19h38.05.144,fluency,2022.2.5,Win32,6.666666667,,,,,,,,,,,,,,,,,,,,,,,0,3,img/B03_00.jpg,GCNB,Press J if the face is NONBINARY and K if the face is GENDER-CONFORMING,Gender-conforming means that the face appears to be a typical example of its gender. Nonbinary means that the face does not conform to any particular gender norms.,KJ,,,,,,,,,,,,,,,,,,,,,,,,,,,,,,,,8,1.8784,,,,,,,,,,,,,,0,2,2,22,1,,,,,,,,,,,,,space,2.0827,,,,,,,,,,,,,,,,,,,,,,,,,,,,,,,,,,,,,,,,,,,,,,,,,,,,,,,,,,,,,,,,,,,
,,,,042010,001,2024-02-02_19h38.05.144,fluency,2022.2.5,Win32,6.666666667,,,,,,,,,,,,,,,,,,,,,,,6,8,img/B08_06.jpg,GCNB,Press J if the face is NONBINARY and K if the face is GENDER-CONFORMING,Gender-conforming means that the face appears to be a typical example of its gender. Nonbinary means that the face does not conform to any particular gender norms.,KJ,,,,,,,,,,,,,,,,,,,,,,,,,,,,,,,,,,,,,,,,,,,,,,271.8226,0,3,3,83,1,109,0,0,0,0,1,98,,,,,,,,,,,,,,,,,,,,,,,,,,,,,,,,,,,,,,,,,,,,,,,,,,,,,,,,,,,,,,,,,,,,,,,,,,
,,,,042010,001,2024-02-02_19h38.05.144,fluency,2022.2.5,Win32,6.666666667,,,,,,,,,,,,,,,,,,,,,,,,,,,,,,,,,,,,,,,,,,,,,,,,,,,,,,,,,,,,,,,,,,,,,,,,,,,,,,,,,,0,0,0,0,1,,"[""j""]",[1.7300000000000182],0,"[""j""]",[1.7299000000953697],,,,,,,,,,,,,,,,,,,,,,,,,,,,,,,,,,,,,,,,,,,,,,,,,,,,,,,,,,,,,,,,,,,,,
,,,,042010,001,2024-02-02_19h38.05.144,fluency,2022.2.5,Win32,6.666666667,,,,,,,,,,,,,,,,,,,,,,,6,8,img/B08_06.jpg,GCNB,Press J if the face is NONBINARY and K if the face is GENDER-CONFORMING,Gender-conforming means that the face appears to be a typical example of its gender. Nonbinary means that the face does not conform to any particular gender norms.,KJ,,,,,,,,,,,,,,,,,,,,,,,,,,,,,,,,4,3.6831,,,,,,,,,,,,,,0,3,3,83,1,,,,,,,,,,,,,space,14.9507,,,,,,,,,,,,,,,,,,,,,,,,,,,,,,,,,,,,,,,,,,,,,,,,,,,,,,,,,,,,,,,,,,,
,,,,042010,001,2024-02-02_19h38.05.144,fluency,2022.2.5,Win32,6.666666667,,,,,,,,,,,,,,,,,,,,,,,8,2,img/B02_08.jpg,GCNB,Press J if the face is NONBINARY and K if the face is GENDER-CONFORMING,Gender-conforming means that the face appears to be a typical example of its gender. Nonbinary means that the face does not conform to any particular gender norms.,KJ,,,,,,,,,,,,,,,,,,,,,,,,,,,,,,,,,,,,,,,,,,,,,,294.7899,0,4,4,19,1,109,0,0,0,0,1,98,,,,,,,,,,,,,,,,,,,,,,,,,,,,,,,,,,,,,,,,,,,,,,,,,,,,,,,,,,,,,,,,,,,,,,,,,,
,,,,042010,001,2024-02-02_19h38.05.144,fluency,2022.2.5,Win32,6.666666667,,,,,,,,,,,,,,,,,,,,,,,,,,,,,,,,,,,,,,,,,,,,,,,,,,,,,,,,,,,,,,,,,,,,,,,,,,,,,,,,,,0,0,0,0,1,,"[""k""]",[1.6742000000476764],0,"[""k""]",[1.6742000000476764],,,,,,,,,,,,,,,,,,,,,,,,,,,,,,,,,,,,,,,,,,,,,,,,,,,,,,,,,,,,,,,,,,,,,
,,,,042010,001,2024-02-02_19h38.05.144,fluency,2022.2.5,Win32,6.666666667,,,,,,,,,,,,,,,,,,,,,,,8,2,img/B02_08.jpg,GCNB,Press J if the face is NONBINARY and K if the face is GENDER-CONFORMING,Gender-conforming means that the face appears to be a typical example of its gender. Nonbinary means that the face does not conform to any particular gender norms.,KJ,,,,,,,,,,,,,,,,,,,,,,,,,,,,,,,,4,2.1927,,,,,,,,,,,,,,0,4,4,19,1,,,,,,,,,,,,,space,1.1337,,,,,,,,,,,,,,,,,,,,,,,,,,,,,,,,,,,,,,,,,,,,,,,,,,,,,,,,,,,,,,,,,,,
,,,,042010,001,2024-02-02_19h38.05.144,fluency,2022.2.5,Win32,6.666666667,,,,,,,,,,,,,,,,,,,,,,,8,3,img/B03_08.jpg,GCNB,Press J if the face is NONBINARY and K if the face is GENDER-CONFORMING,Gender-conforming means that the face appears to be a typical example of its gender. Nonbinary means that the face does not conform to any particular gender norms.,KJ,,,,,,,,,,,,,,,,,,,,,,,,,,,,,,,,,,,,,,,,,,,,,,302.5164,0,5,5,30,1,109,0,0,0,0,1,98,,,,,,,,,,,,,,,,,,,,,,,,,,,,,,,,,,,,,,,,,,,,,,,,,,,,,,,,,,,,,,,,,,,,,,,,,,
,,,,042010,001,2024-02-02_19h38.05.144,fluency,2022.2.5,Win32,6.666666667,,,,,,,,,,,,,,,,,,,,,,,,,,,,,,,,,,,,,,,,,,,,,,,,,,,,,,,,,,,,,,,,,,,,,,,,,,,,,,,,,,0,0,0,0,1,,"[""k""]",[1.8550000000000182],0,"[""k""]",[1.8548999998569684],,,,,,,,,,,,,,,,,,,,,,,,,,,,,,,,,,,,,,,,,,,,,,,,,,,,,,,,,,,,,,,,,,,,,
,,,,042010,001,2024-02-02_19h38.05.144,fluency,2022.2.5,Win32,6.666666667,,,,,,,,,,,,,,,,,,,,,,,8,3,img/B03_08.jpg,GCNB,Press J if the face is NONBINARY and K if the face is GENDER-CONFORMING,Gender-conforming means that the face appears to be a typical example of its gender. Nonbinary means that the face does not conform to any particular gender norms.,KJ,,,,,,,,,,,,,,,,,,,,,,,,,,,,,,,,3,0.9193,,,,,,,,,,,,,,0,5,5,30,1,,,,,,,,,,,,,space,0.7555,,,,,,,,,,,,,,,,,,,,,,,,,,,,,,,,,,,,,,,,,,,,,,,,,,,,,,,,,,,,,,,,,,,
,,,,042010,001,2024-02-02_19h38.05.144,fluency,2022.2.5,Win32,6.666666667,,,,,,,,,,,,,,,,,,,,,,,0,5,img/B05_00.jpg,GCNB,Press J if the face is NONBINARY and K if the face is GENDER-CONFORMING,Gender-conforming means that the face appears to be a typical example of its gender. Nonbinary means that the face does not conform to any particular gender norms.,KJ,,,,,,,,,,,,,,,,,,,,,,,,,,,,,,,,,,,,,,,,,,,,,,308.5797,0,6,6,44,1,109,0,0,0,0,1,98,,,,,,,,,,,,,,,,,,,,,,,,,,,,,,,,,,,,,,,,,,,,,,,,,,,,,,,,,,,,,,,,,,,,,,,,,,
,,,,042010,001,2024-02-02_19h38.05.144,fluency,2022.2.5,Win32,6.666666667,,,,,,,,,,,,,,,,,,,,,,,,,,,,,,,,,,,,,,,,,,,,,,,,,,,,,,,,,,,,,,,,,,,,,,,,,,,,,,,,,,0,0,0,0,1,,"[""k""]",[1.1294000000953588],0,"[""k""]",[1.1294000000953588],,,,,,,,,,,,,,,,,,,,,,,,,,,,,,,,,,,,,,,,,,,,,,,,,,,,,,,,,,,,,,,,,,,,,
,,,,042010,001,2024-02-02_19h38.05.144,fluency,2022.2.5,Win32,6.666666667,,,,,,,,,,,,,,,,,,,,,,,0,5,img/B05_00.jpg,GCNB,Press J if the face is NONBINARY and K if the face is GENDER-CONFORMING,Gender-conforming means that the face appears to be a typical example of its gender. Nonbinary means that the face does not conform to any particular gender norms.,KJ,,,,,,,,,,,,,,,,,,,,,,,,,,,,,,,,5,1.4613,,,,,,,,,,,,,,0,6,6,44,1,,,,,,,,,,,,,space,1.4843,,,,,,,,,,,,,,,,,,,,,,,,,,,,,,,,,,,,,,,,,,,,,,,,,,,,,,,,,,,,,,,,,,,
,,,,042010,001,2024-02-02_19h38.05.144,fluency,2022.2.5,Win32,6.666666667,,,,,,,,,,,,,,,,,,,,,,,10,10,img/B10_10.jpg,GCNB,Press J if the face is NONBINARY and K if the face is GENDER-CONFORMING,Gender-conforming means that the face appears to be a typical example of its gender. Nonbinary means that the face does not conform to any particular gender norms.,KJ,,,,,,,,,,,,,,,,,,,,,,,,,,,,,,,,,,,,,,,,,,,,,,316.8515,0,7,7,109,1,109,0,0,0,0,1,98,,,,,,,,,,,,,,,,,,,,,,,,,,,,,,,,,,,,,,,,,,,,,,,,,,,,,,,,,,,,,,,,,,,,,,,,,,
,,,,042010,001,2024-02-02_19h38.05.144,fluency,2022.2.5,Win32,6.666666667,,,,,,,,,,,,,,,,,,,,,,,,,,,,,,,,,,,,,,,,,,,,,,,,,,,,,,,,,,,,,,,,,,,,,,,,,,,,,,,,,,0,0,0,0,1,,"[""k""]",[1.1301000001430452],0,"[""k""]",[1.1302000000476937],,,,,,,,,,,,,,,,,,,,,,,,,,,,,,,,,,,,,,,,,,,,,,,,,,,,,,,,,,,,,,,,,,,,,
,,,,042010,001,2024-02-02_19h38.05.144,fluency,2022.2.5,Win32,6.666666667,,,,,,,,,,,,,,,,,,,,,,,10,10,img/B10_10.jpg,GCNB,Press J if the face is NONBINARY and K if the face is GENDER-CONFORMING,Gender-conforming means that the face appears to be a typical example of its gender. Nonbinary means that the face does not conform to any particular gender norms.,KJ,,,,,,,,,,,,,,,,,,,,,,,,,,,,,,,,4,2.3744,,,,,,,,,,,,,,0,7,7,109,1,,,,,,,,,,,,,space,0.7362,,,,,,,,,,,,,,,,,,,,,,,,,,,,,,,,,,,,,,,,,,,,,,,,,,,,,,,,,,,,,,,,,,,
,,,,042010,001,2024-02-02_19h38.05.144,fluency,2022.2.5,Win32,6.666666667,,,,,,,,,,,,,,,,,,,,,,,2,1,img/B01_02.jpg,GCNB,Press J if the face is NONBINARY and K if the face is GENDER-CONFORMING,Gender-conforming means that the face appears to be a typical example of its gender. Nonbinary means that the face does not conform to any particular gender norms.,KJ,,,,,,,,,,,,,,,,,,,,,,,,,,,,,,,,,,,,,,,,,,,,,,325.2775,0,8,8,2,1,109,0,0,0,0,1,98,,,,,,,,,,,,,,,,,,,,,,,,,,,,,,,,,,,,,,,,,,,,,,,,,,,,,,,,,,,,,,,,,,,,,,,,,,
,,,,042010,001,2024-02-02_19h38.05.144,fluency,2022.2.5,Win32,6.666666667,,,,,,,,,,,,,,,,,,,,,,,,,,,,,,,,,,,,,,,,,,,,,,,,,,,,,,,,,,,,,,,,,,,,,,,,,,,,,,,,,,0,0,0,0,1,,"[""k""]",[1.1313000001907767],0,"[""k""]",[1.131200000047727],,,,,,,,,,,,,,,,,,,,,,,,,,,,,,,,,,,,,,,,,,,,,,,,,,,,,,,,,,,,,,,,,,,,,
,,,,042010,001,2024-02-02_19h38.05.144,fluency,2022.2.5,Win32,6.666666667,,,,,,,,,,,,,,,,,,,,,,,2,1,img/B01_02.jpg,GCNB,Press J if the face is NONBINARY and K if the face is GENDER-CONFORMING,Gender-conforming means that the face appears to be a typical example of its gender. Nonbinary means that the face does not conform to any particular gender norms.,KJ,,,,,,,,,,,,,,,,,,,,,,,,,,,,,,,,8,1.2907,,,,,,,,,,,,,,0,8,8,2,1,,,,,,,,,,,,,space,1.8642,,,,,,,,,,,,,,,,,,,,,,,,,,,,,,,,,,,,,,,,,,,,,,,,,,,,,,,,,,,,,,,,,,,
,,,,042010,001,2024-02-02_19h38.05.144,fluency,2022.2.5,Win32,6.666666667,,,,,,,,,,,,,,,,,,,,,,,6,10,img/B10_06.jpg,GCNB,Press J if the face is NONBINARY and K if the face is GENDER-CONFORMING,Gender-conforming means that the face appears to be a typical example of its gender. Nonbinary means that the face does not conform to any particular gender norms.,KJ,,,,,,,,,,,,,,,,,,,,,,,,,,,,,,,,,,,,,,,,,,,,,,332.8875,0,9,9,105,1,109,0,0,0,0,1,98,,,,,,,,,,,,,,,,,,,,,,,,,,,,,,,,,,,,,,,,,,,,,,,,,,,,,,,,,,,,,,,,,,,,,,,,,,
,,,,042010,001,2024-02-02_19h38.05.144,fluency,2022.2.5,Win32,6.666666667,,,,,,,,,,,,,,,,,,,,,,,,,,,,,,,,,,,,,,,,,,,,,,,,,,,,,,,,,,,,,,,,,,,,,,,,,,,,,,,,,,0,0,0,0,1,,"[""j""]",[1.303600000143092],0,"[""j""]",[1.303599999904634],,,,,,,,,,,,,,,,,,,,,,,,,,,,,,,,,,,,,,,,,,,,,,,,,,,,,,,,,,,,,,,,,,,,,
,,,,042010,001,2024-02-02_19h38.05.144,fluency,2022.2.5,Win32,6.666666667,,,,,,,,,,,,,,,,,,,,,,,6,10,img/B10_06.jpg,GCNB,Press J if the face is NONBINARY and K if the face is GENDER-CONFORMING,Gender-conforming means that the face appears to be a typical example of its gender. Nonbinary means that the face does not conform to any particular gender norms.,KJ,,,,,,,,,,,,,,,,,,,,,,,,,,,,,,,,3,2.5577,,,,,,,,,,,,,,0,9,9,105,1,,,,,,,,,,,,,space,0.7484,,,,,,,,,,,,,,,,,,,,,,,,,,,,,,,,,,,,,,,,,,,,,,,,,,,,,,,,,,,,,,,,,,,
,,,,042010,001,2024-02-02_19h38.05.144,fluency,2022.2.5,Win32,6.666666667,,,,,,,,,,,,,,,,,,,,,,,6,2,img/B02_06.jpg,GCNB,Press J if the face is NONBINARY and K if the face is GENDER-CONFORMING,Gender-conforming means that the face appears to be a typical example of its gender. Nonbinary means that the face does not conform to any particular gender norms.,KJ,,,,,,,,,,,,,,,,,,,,,,,,,,,,,,,,,,,,,,,,,,,,,,341.4929,0,10,10,17,1,109,0,0,0,0,1,98,,,,,,,,,,,,,,,,,,,,,,,,,,,,,,,,,,,,,,,,,,,,,,,,,,,,,,,,,,,,,,,,,,,,,,,,,,
,,,,042010,001,2024-02-02_19h38.05.144,fluency,2022.2.5,Win32,6.666666667,,,,,,,,,,,,,,,,,,,,,,,,,,,,,,,,,,,,,,,,,,,,,,,,,,,,,,,,,,,,,,,,,,,,,,,,,,,,,,,,,,0,0,0,0,1,,"[""j""]",[1.858000000000004],0,"[""j""]",[1.8579000000953556],,,,,,,,,,,,,,,,,,,,,,,,,,,,,,,,,,,,,,,,,,,,,,,,,,,,,,,,,,,,,,,,,,,,,
,,,,042010,001,2024-02-02_19h38.05.144,fluency,2022.2.5,Win32,6.666666667,,,,,,,,,,,,,,,,,,,,,,,6,2,img/B02_06.jpg,GCNB,Press J if the face is NONBINARY and K if the face is GENDER-CONFORMING,Gender-conforming means that the face appears to be a typical example of its gender. Nonbinary means that the face does not conform to any particular gender norms.,KJ,,,,,,,,,,,,,,,,,,,,,,,,,,,,,,,,2,1.8441,,,,,,,,,,,,,,0,10,10,17,1,,,,,,,,,,,,,space,0.9278,,,,,,,,,,,,,,,,,,,,,,,,,,,,,,,,,,,,,,,,,,,,,,,,,,,,,,,,,,,,,,,,,,,
,,,,042010,001,2024-02-02_19h38.05.144,fluency,2022.2.5,Win32,6.666666667,,,,,,,,,,,,,,,,,,,,,,,8,6,img/B06_08.jpg,GCNB,Press J if the face is NONBINARY and K if the face is GENDER-CONFORMING,Gender-conforming means that the face appears to be a typical example of its gender. Nonbinary means that the face does not conform to any particular gender norms.,KJ,,,,,,,,,,,,,,,,,,,,,,,,,,,,,,,,,,,,,,,,,,,,,,349.5083,0,11,11,63,1,109,0,0,0,0,1,98,,,,,,,,,,,,,,,,,,,,,,,,,,,,,,,,,,,,,,,,,,,,,,,,,,,,,,,,,,,,,,,,,,,,,,,,,,
,,,,042010,001,2024-02-02_19h38.05.144,fluency,2022.2.5,Win32,6.666666667,,,,,,,,,,,,,,,,,,,,,,,,,,,,,,,,,,,,,,,,,,,,,,,,,,,,,,,,,,,,,,,,,,,,,,,,,,,,,,,,,,0,0,0,0,1,,"[""k""]",[1.2992000000476764],0,"[""k""]",[1.2992000000476764],,,,,,,,,,,,,,,,,,,,,,,,,,,,,,,,,,,,,,,,,,,,,,,,,,,,,,,,,,,,,,,,,,,,,
,,,,042010,001,2024-02-02_19h38.05.144,fluency,2022.2.5,Win32,6.666666667,,,,,,,,,,,,,,,,,,,,,,,8,6,img/B06_08.jpg,GCNB,Press J if the face is NONBINARY and K if the face is GENDER-CONFORMING,Gender-conforming means that the face appears to be a typical example of its gender. Nonbinary means that the face does not conform to any particular gender norms.,KJ,,,,,,,,,,,,,,,,,,,,,,,,,,,,,,,,4,2.5616,,,,,,,,,,,,,,0,11,11,63,1,,,,,,,,,,,,,space,0.7498,,,,,,,,,,,,,,,,,,,,,,,,,,,,,,,,,,,,,,,,,,,,,,,,,,,,,,,,,,,,,,,,,,,
,,,,042010,001,2024-02-02_19h38.05.144,fluency,2022.2.5,Win32,6.666666667,,,,,,,,,,,,,,,,,,,,,,,10,1,img/B01_10.jpg,GCNB,Press J if the face is NONBINARY and K if the face is GENDER-CONFORMING,Gender-conforming means that the face appears to be a typical example of its gender. Nonbinary means that the face does not conform to any particular gender norms.,KJ,,,,,,,,,,,,,,,,,,,,,,,,,,,,,,,,,,,,,,,,,,,,,,357.2574,0,12,12,10,1,109,0,0,0,0,1,98,,,,,,,,,,,,,,,,,,,,,,,,,,,,,,,,,,,,,,,,,,,,,,,,,,,,,,,,,,,,,,,,,,,,,,,,,,
,,,,042010,001,2024-02-02_19h38.05.144,fluency,2022.2.5,Win32,6.666666667,,,,,,,,,,,,,,,,,,,,,,,,,,,,,,,,,,,,,,,,,,,,,,,,,,,,,,,,,,,,,,,,,,,,,,,,,,,,,,,,,,0,0,0,0,1,,"[""j""]",[2.2437000000476814],0,"[""j""]",[2.2435999999046317],,,,,,,,,,,,,,,,,,,,,,,,,,,,,,,,,,,,,,,,,,,,,,,,,,,,,,,,,,,,,,,,,,,,,
,,,,042010,001,2024-02-02_19h38.05.144,fluency,2022.2.5,Win32,6.666666667,,,,,,,,,,,,,,,,,,,,,,,10,1,img/B01_10.jpg,GCNB,Press J if the face is NONBINARY and K if the face is GENDER-CONFORMING,Gender-conforming means that the face appears to be a typical example of its gender. Nonbinary means that the face does not conform to any particular gender norms.,KJ,,,,,,,,,,,,,,,,,,,,,,,,,,,,,,,,2,2.0241,,,,,,,,,,,,,,0,12,12,10,1,,,,,,,,,,,,,space,1.1177,,,,,,,,,,,,,,,,,,,,,,,,,,,,,,,,,,,,,,,,,,,,,,,,,,,,,,,,,,,,,,,,,,,
,,,,042010,001,2024-02-02_19h38.05.144,fluency,2022.2.5,Win32,6.666666667,,,,,,,,,,,,,,,,,,,,,,,8,9,img/B09_08.jpg,GCNB,Press J if the face is NONBINARY and K if the face is GENDER-CONFORMING,Gender-conforming means that the face appears to be a typical example of its gender. Nonbinary means that the face does not conform to any particular gender norms.,KJ,,,,,,,,,,,,,,,,,,,,,,,,,,,,,,,,,,,,,,,,,,,,,,364.9594,0,13,13,96,1,109,0,0,0,0,1,98,,,,,,,,,,,,,,,,,,,,,,,,,,,,,,,,,,,,,,,,,,,,,,,,,,,,,,,,,,,,,,,,,,,,,,,,,,
,,,,042010,001,2024-02-02_19h38.05.144,fluency,2022.2.5,Win32,6.666666667,,,,,,,,,,,,,,,,,,,,,,,,,,,,,,,,,,,,,,,,,,,,,,,,,,,,,,,,,,,,,,,,,,,,,,,,,,,,,,,,,,0,0,0,0,1,,"[""k""]",[1.8746000001430048],0,"[""k""]",[1.874499999999955],,,,,,,,,,,,,,,,,,,,,,,,,,,,,,,,,,,,,,,,,,,,,,,,,,,,,,,,,,,,,,,,,,,,,
,,,,042010,001,2024-02-02_19h38.05.144,fluency,2022.2.5,Win32,6.666666667,,,,,,,,,,,,,,,,,,,,,,,8,9,img/B09_08.jpg,GCNB,Press J if the face is NONBINARY and K if the face is GENDER-CONFORMING,Gender-conforming means that the face appears to be a typical example of its gender. Nonbinary means that the face does not conform to any particular gender norms.,KJ,,,,,,,,,,,,,,,,,,,,,,,,,,,,,,,,3,1.0974,,,,,,,,,,,,,,0,13,13,96,1,,,,,,,,,,,,,space,0.76,,,,,,,,,,,,,,,,,,,,,,,,,,,,,,,,,,,,,,,,,,,,,,,,,,,,,,,,,,,,,,,,,,,
,,,,042010,001,2024-02-02_19h38.05.144,fluency,2022.2.5,Win32,6.666666667,,,,,,,,,,,,,,,,,,,,,,,3,7,img/B07_03.jpg,GCNB,Press J if the face is NONBINARY and K if the face is GENDER-CONFORMING,Gender-conforming means that the face appears to be a typical example of its gender. Nonbinary means that the face does not conform to any particular gender norms.,KJ,,,,,,,,,,,,,,,,,,,,,,,,,,,,,,,,,,,,,,,,,,,,,,371.248,0,14,14,69,1,109,0,0,0,0,1,98,,,,,,,,,,,,,,,,,,,,,,,,,,,,,,,,,,,,,,,,,,,,,,,,,,,,,,,,,,,,,,,,,,,,,,,,,,
,,,,042010,001,2024-02-02_19h38.05.144,fluency,2022.2.5,Win32,6.666666667,,,,,,,,,,,,,,,,,,,,,,,,,,,,,,,,,,,,,,,,,,,,,,,,,,,,,,,,,,,,,,,,,,,,,,,,,,,,,,,,,,0,0,0,0,1,,"[""j""]",[2.581599999904654],0,"[""j""]",[2.5815000000000055],,,,,,,,,,,,,,,,,,,,,,,,,,,,,,,,,,,,,,,,,,,,,,,,,,,,,,,,,,,,,,,,,,,,,
,,,,042010,001,2024-02-02_19h38.05.144,fluency,2022.2.5,Win32,6.666666667,,,,,,,,,,,,,,,,,,,,,,,3,7,img/B07_03.jpg,GCNB,Press J if the face is NONBINARY and K if the face is GENDER-CONFORMING,Gender-conforming means that the face appears to be a typical example of its gender. Nonbinary means that the face does not conform to any particular gender norms.,KJ,,,,,,,,,,,,,,,,,,,,,,,,,,,,,,,,2,3.1242,,,,,,,,,,,,,,0,14,14,69,1,,,,,,,,,,,,,space,1.1157,,,,,,,,,,,,,,,,,,,,,,,,,,,,,,,,,,,,,,,,,,,,,,,,,,,,,,,,,,,,,,,,,,,
,,,,042010,001,2024-02-02_19h38.05.144,fluency,2022.2.5,Win32,6.666666667,,,,,,,,,,,,,,,,,,,,,,,9,7,img/B07_09.jpg,GCNB,Press J if the face is NONBINARY and K if the face is GENDER-CONFORMING,Gender-conforming means that the face appears to be a typical example of its gender. Nonbinary means that the face does not conform to any particular gender norms.,KJ,,,,,,,,,,,,,,,,,,,,,,,,,,,,,,,,,,,,,,,,,,,,,,380.8723,0,15,15,75,1,109,0,0,0,0,1,98,,,,,,,,,,,,,,,,,,,,,,,,,,,,,,,,,,,,,,,,,,,,,,,,,,,,,,,,,,,,,,,,,,,,,,,,,,
,,,,042010,001,2024-02-02_19h38.05.144,fluency,2022.2.5,Win32,6.666666667,,,,,,,,,,,,,,,,,,,,,,,,,,,,,,,,,,,,,,,,,,,,,,,,,,,,,,,,,,,,,,,,,,,,,,,,,,,,,,,,,,0,0,0,0,1,,"[""k""]",[1.3017999999523227],0,"[""k""]",[1.3017999999523227],,,,,,,,,,,,,,,,,,,,,,,,,,,,,,,,,,,,,,,,,,,,,,,,,,,,,,,,,,,,,,,,,,,,,
,,,,042010,001,2024-02-02_19h38.05.144,fluency,2022.2.5,Win32,6.666666667,,,,,,,,,,,,,,,,,,,,,,,9,7,img/B07_09.jpg,GCNB,Press J if the face is NONBINARY and K if the face is GENDER-CONFORMING,Gender-conforming means that the face appears to be a typical example of its gender. Nonbinary means that the face does not conform to any particular gender norms.,KJ,,,,,,,,,,,,,,,,,,,,,,,,,,,,,,,,2,1.2858,,,,,,,,,,,,,,0,15,15,75,1,,,,,,,,,,,,,space,1.3061,,,,,,,,,,,,,,,,,,,,,,,,,,,,,,,,,,,,,,,,,,,,,,,,,,,,,,,,,,,,,,,,,,,
,,,,042010,001,2024-02-02_19h38.05.144,fluency,2022.2.5,Win32,6.666666667,,,,,,,,,,,,,,,,,,,,,,,3,4,img/B04_03.jpg,GCNB,Press J if the face is NONBINARY and K if the face is GENDER-CONFORMING,Gender-conforming means that the face appears to be a typical example of its gender. Nonbinary means that the face does not conform to any particular gender norms.,KJ,,,,,,,,,,,,,,,,,,,,,,,,,,,,,,,,,,,,,,,,,,,,,,388.9304,0,16,16,36,1,109,0,0,0,0,1,98,,,,,,,,,,,,,,,,,,,,,,,,,,,,,,,,,,,,,,,,,,,,,,,,,,,,,,,,,,,,,,,,,,,,,,,,,,
,,,,042010,001,2024-02-02_19h38.05.144,fluency,2022.2.5,Win32,6.666666667,,,,,,,,,,,,,,,,,,,,,,,,,,,,,,,,,,,,,,,,,,,,,,,,,,,,,,,,,,,,,,,,,,,,,,,,,,,,,,,,,,0,0,0,0,1,,"[""k""]",[1.1177999999522967],0,"[""k""]",[1.117700000047705],,,,,,,,,,,,,,,,,,,,,,,,,,,,,,,,,,,,,,,,,,,,,,,,,,,,,,,,,,,,,,,,,,,,,
,,,,042010,001,2024-02-02_19h38.05.144,fluency,2022.2.5,Win32,6.666666667,,,,,,,,,,,,,,,,,,,,,,,3,4,img/B04_03.jpg,GCNB,Press J if the face is NONBINARY and K if the face is GENDER-CONFORMING,Gender-conforming means that the face appears to be a typical example of its gender. Nonbinary means that the face does not conform to any particular gender norms.,KJ,,,,,,,,,,,,,,,,,,,,,,,,,,,,,,,,5,2.1869,,,,,,,,,,,,,,0,16,16,36,1,,,,,,,,,,,,,space,0.9285,,,,,,,,,,,,,,,,,,,,,,,,,,,,,,,,,,,,,,,,,,,,,,,,,,,,,,,,,,,,,,,,,,,
,,,,042010,001,2024-02-02_19h38.05.144,fluency,2022.2.5,Win32,6.666666667,,,,,,,,,,,,,,,,,,,,,,,4,10,img/B10_04.jpg,GCNB,Press J if the face is NONBINARY and K if the face is GENDER-CONFORMING,Gender-conforming means that the face appears to be a typical example of its gender. Nonbinary means that the face does not conform to any particular gender norms.,KJ,,,,,,,,,,,,,,,,,,,,,,,,,,,,,,,,,,,,,,,,,,,,,,397.3374,0,17,17,103,1,109,0,0,0,0,1,98,,,,,,,,,,,,,,,,,,,,,,,,,,,,,,,,,,,,,,,,,,,,,,,,,,,,,,,,,,,,,,,,,,,,,,,,,,
,,,,042010,001,2024-02-02_19h38.05.144,fluency,2022.2.5,Win32,6.666666667,,,,,,,,,,,,,,,,,,,,,,,,,,,,,,,,,,,,,,,,,,,,,,,,,,,,,,,,,,,,,,,,,,,,,,,,,,,,,,,,,,0,0,0,0,1,,"[""j""]",[1.6807000000476364],0,"[""j""]",[1.6807000000476364],,,,,,,,,,,,,,,,,,,,,,,,,,,,,,,,,,,,,,,,,,,,,,,,,,,,,,,,,,,,,,,,,,,,,
,,,,042010,001,2024-02-02_19h38.05.144,fluency,2022.2.5,Win32,6.666666667,,,,,,,,,,,,,,,,,,,,,,,4,10,img/B10_04.jpg,GCNB,Press J if the face is NONBINARY and K if the face is GENDER-CONFORMING,Gender-conforming means that the face appears to be a typical example of its gender. Nonbinary means that the face does not conform to any particular gender norms.,KJ,,,,,,,,,,,,,,,,,,,,,,,,,,,,,,,,2,1.4569,,,,,,,,,,,,,,0,17,17,103,1,,,,,,,,,,,,,space,0.5891,,,,,,,,,,,,,,,,,,,,,,,,,,,,,,,,,,,,,,,,,,,,,,,,,,,,,,,,,,,,,,,,,,,
,,,,042010,001,2024-02-02_19h38.05.144,fluency,2022.2.5,Win32,6.666666667,,,,,,,,,,,,,,,,,,,,,,,2,3,img/B03_02.jpg,GCNB,Press J if the face is NONBINARY and K if the face is GENDER-CONFORMING,Gender-conforming means that the face appears to be a typical example of its gender. Nonbinary means that the face does not conform to any particular gender norms.,KJ,,,,,,,,,,,,,,,,,,,,,,,,,,,,,,,,,,,,,,,,,,,,,,403.6595,0,18,18,24,1,109,0,0,0,0,1,98,,,,,,,,,,,,,,,,,,,,,,,,,,,,,,,,,,,,,,,,,,,,,,,,,,,,,,,,,,,,,,,,,,,,,,,,,,
,,,,042010,001,2024-02-02_19h38.05.144,fluency,2022.2.5,Win32,6.666666667,,,,,,,,,,,,,,,,,,,,,,,,,,,,,,,,,,,,,,,,,,,,,,,,,,,,,,,,,,,,,,,,,,,,,,,,,,,,,,,,,,0,0,0,0,1,,"[""k""]",[1.1147999999523108],0,"[""k""]",[1.1147000000477192],,,,,,,,,,,,,,,,,,,,,,,,,,,,,,,,,,,,,,,,,,,,,,,,,,,,,,,,,,,,,,,,,,,,,
,,,,042010,001,2024-02-02_19h38.05.144,fluency,2022.2.5,Win32,6.666666667,,,,,,,,,,,,,,,,,,,,,,,2,3,img/B03_02.jpg,GCNB,Press J if the face is NONBINARY and K if the face is GENDER-CONFORMING,Gender-conforming means that the face appears to be a typical example of its gender. Nonbinary means that the face does not conform to any particular gender norms.,KJ,,,,,,,,,,,,,,,,,,,,,,,,,,,,,,,,8,1.1025,,,,,,,,,,,,,,0,18,18,24,1,,,,,,,,,,,,,space,1.8555,,,,,,,,,,,,,,,,,,,,,,,,,,,,,,,,,,,,,,,,,,,,,,,,,,,,,,,,,,,,,,,,,,,
,,,,042010,001,2024-02-02_19h38.05.144,fluency,2022.2.5,Win32,6.666666667,,,,,,,,,,,,,,,,,,,,,,,9,10,img/B10_09.jpg,GCNB,Press J if the face is NONBINARY and K if the face is GENDER-CONFORMING,Gender-conforming means that the face appears to be a typical example of its gender. Nonbinary means that the face does not conform to any particular gender norms.,KJ,,,,,,,,,,,,,,,,,,,,,,,,,,,,,,,,,,,,,,,,,,,,,,411.0772,0,19,19,108,1,109,0,0,0,0,1,98,,,,,,,,,,,,,,,,,,,,,,,,,,,,,,,,,,,,,,,,,,,,,,,,,,,,,,,,,,,,,,,,,,,,,,,,,,
,,,,042010,001,2024-02-02_19h38.05.144,fluency,2022.2.5,Win32,6.666666667,,,,,,,,,,,,,,,,,,,,,,,,,,,,,,,,,,,,,,,,,,,,,,,,,,,,,,,,,,,,,,,,,,,,,,,,,,,,,,,,,,0,0,0,0,1,,"[""k""]",[2.0579999999999927],0,"[""k""]",[2.0579999999999927],,,,,,,,,,,,,,,,,,,,,,,,,,,,,,,,,,,,,,,,,,,,,,,,,,,,,,,,,,,,,,,,,,,,,
,,,,042010,001,2024-02-02_19h38.05.144,fluency,2022.2.5,Win32,6.666666667,,,,,,,,,,,,,,,,,,,,,,,9,10,img/B10_09.jpg,GCNB,Press J if the face is NONBINARY and K if the face is GENDER-CONFORMING,Gender-conforming means that the face appears to be a typical example of its gender. Nonbinary means that the face does not conform to any particular gender norms.,KJ,,,,,,,,,,,,,,,,,,,,,,,,,,,,,,,,3,0.9316,,,,,,,,,,,,,,0,19,19,108,1,,,,,,,,,,,,,space,0.5795,,,,,,,,,,,,,,,,,,,,,,,,,,,,,,,,,,,,,,,,,,,,,,,,,,,,,,,,,,,,,,,,,,,
,,,,042010,001,2024-02-02_19h38.05.144,fluency,2022.2.5,Win32,6.666666667,,,,,,,,,,,,,,,,,,,,,,,3,2,img/B02_03.jpg,GCNB,Press J if the face is NONBINARY and K if the face is GENDER-CONFORMING,Gender-conforming means that the face appears to be a typical example of its gender. Nonbinary means that the face does not conform to any particular gender norms.,KJ,,,,,,,,,,,,,,,,,,,,,,,,,,,,,,,,,,,,,,,,,,,,,,417.8213,0,20,20,14,1,109,0,0,0,0,1,98,,,,,,,,,,,,,,,,,,,,,,,,,,,,,,,,,,,,,,,,,,,,,,,,,,,,,,,,,,,,,,,,,,,,,,,,,,
,,,,042010,001,2024-02-02_19h38.05.144,fluency,2022.2.5,Win32,6.666666667,,,,,,,,,,,,,,,,,,,,,,,,,,,,,,,,,,,,,,,,,,,,,,,,,,,,,,,,,,,,,,,,,,,,,,,,,,,,,,,,,,0,0,0,0,1,,"[""k""]",[2.6648000001907235],0,"[""k""]",[2.6647000000476737],,,,,,,,,,,,,,,,,,,,,,,,,,,,,,,,,,,,,,,,,,,,,,,,,,,,,,,,,,,,,,,,,,,,,
,,,,042010,001,2024-02-02_19h38.05.144,fluency,2022.2.5,Win32,6.666666667,,,,,,,,,,,,,,,,,,,,,,,3,2,img/B02_03.jpg,GCNB,Press J if the face is NONBINARY and K if the face is GENDER-CONFORMING,Gender-conforming means that the face appears to be a typical example of its gender. Nonbinary means that the face does not conform to any particular gender norms.,KJ,,,,,,,,,,,,,,,,,,,,,,,,,,,,,,,,3,1.6699,,,,,,,,,,,,,,0,20,20,14,1,,,,,,,,,,,,,space,0.9341,,,,,,,,,,,,,,,,,,,,,,,,,,,,,,,,,,,,,,,,,,,,,,,,,,,,,,,,,,,,,,,,,,,
,,,,042010,001,2024-02-02_19h38.05.144,fluency,2022.2.5,Win32,6.666666667,,,,,,,,,,,,,,,,,,,,,,,0,10,img/B10_00.jpg,GCNB,Press J if the face is NONBINARY and K if the face is GENDER-CONFORMING,Gender-conforming means that the face appears to be a typical example of its gender. Nonbinary means that the face does not conform to any particular gender norms.,KJ,,,,,,,,,,,,,,,,,,,,,,,,,,,,,,,,,,,,,,,,,,,,,,425.7092,0,21,21,99,1,109,0,0,0,0,1,98,,,,,,,,,,,,,,,,,,,,,,,,,,,,,,,,,,,,,,,,,,,,,,,,,,,,,,,,,,,,,,,,,,,,,,,,,,
,,,,042010,001,2024-02-02_19h38.05.144,fluency,2022.2.5,Win32,6.666666667,,,,,,,,,,,,,,,,,,,,,,,,,,,,,,,,,,,,,,,,,,,,,,,,,,,,,,,,,,,,,,,,,,,,,,,,,,,,,,,,,,0,0,0,0,1,,"[""k""]",[0.9884999999999877],0,"[""k""]",[0.9886000001430375],,,,,,,,,,,,,,,,,,,,,,,,,,,,,,,,,,,,,,,,,,,,,,,,,,,,,,,,,,,,,,,,,,,,,
,,,,042010,001,2024-02-02_19h38.05.144,fluency,2022.2.5,Win32,6.666666667,,,,,,,,,,,,,,,,,,,,,,,0,10,img/B10_00.jpg,GCNB,Press J if the face is NONBINARY and K if the face is GENDER-CONFORMING,Gender-conforming means that the face appears to be a typical example of its gender. Nonbinary means that the face does not conform to any particular gender norms.,KJ,,,,,,,,,,,,,,,,,,,,,,,,,,,,,,,,6,1.9079,,,,,,,,,,,,,,0,21,21,99,1,,,,,,,,,,,,,space,1.1165,,,,,,,,,,,,,,,,,,,,,,,,,,,,,,,,,,,,,,,,,,,,,,,,,,,,,,,,,,,,,,,,,,,
,,,,042010,001,2024-02-02_19h38.05.144,fluency,2022.2.5,Win32,6.666666667,,,,,,,,,,,,,,,,,,,,,,,3,9,img/B09_03.jpg,GCNB,Press J if the face is NONBINARY and K if the face is GENDER-CONFORMING,Gender-conforming means that the face appears to be a typical example of its gender. Nonbinary means that the face does not conform to any particular gender norms.,KJ,,,,,,,,,,,,,,,,,,,,,,,,,,,,,,,,,,,,,,,,,,,,,,433.1751,0,22,22,91,1,109,0,0,0,0,1,98,,,,,,,,,,,,,,,,,,,,,,,,,,,,,,,,,,,,,,,,,,,,,,,,,,,,,,,,,,,,,,,,,,,,,,,,,,
,,,,042010,001,2024-02-02_19h38.05.144,fluency,2022.2.5,Win32,6.666666667,,,,,,,,,,,,,,,,,,,,,,,,,,,,,,,,,,,,,,,,,,,,,,,,,,,,,,,,,,,,,,,,,,,,,,,,,,,,,,,,,,0,0,0,0,1,,"[""j""]",[1.6862999999523254],0,"[""j""]",[1.6862999999523254],,,,,,,,,,,,,,,,,,,,,,,,,,,,,,,,,,,,,,,,,,,,,,,,,,,,,,,,,,,,,,,,,,,,,
,,,,042010,001,2024-02-02_19h38.05.144,fluency,2022.2.5,Win32,6.666666667,,,,,,,,,,,,,,,,,,,,,,,3,9,img/B09_03.jpg,GCNB,Press J if the face is NONBINARY and K if the face is GENDER-CONFORMING,Gender-conforming means that the face appears to be a typical example of its gender. Nonbinary means that the face does not conform to any particular gender norms.,KJ,,,,,,,,,,,,,,,,,,,,,,,,,,,,,,,,2,2.2136,,,,,,,,,,,,,,0,22,22,91,1,,,,,,,,,,,,,space,0.9295,,,,,,,,,,,,,,,,,,,,,,,,,,,,,,,,,,,,,,,,,,,,,,,,,,,,,,,,,,,,,,,,,,,
,,,,042010,001,2024-02-02_19h38.05.144,fluency,2022.2.5,Win32,6.666666667,,,,,,,,,,,,,,,,,,,,,,,1,2,img/B02_01.jpg,GCNB,Press J if the face is NONBINARY and K if the face is GENDER-CONFORMING,Gender-conforming means that the face appears to be a typical example of its gender. Nonbinary means that the face does not conform to any particular gender norms.,KJ,,,,,,,,,,,,,,,,,,,,,,,,,,,,,,,,,,,,,,,,,,,,,,440.5817,0,23,23,12,1,109,0,0,0,0,1,98,,,,,,,,,,,,,,,,,,,,,,,,,,,,,,,,,,,,,,,,,,,,,,,,,,,,,,,,,,,,,,,,,,,,,,,,,,
,,,,042010,001,2024-02-02_19h38.05.144,fluency,2022.2.5,Win32,6.666666667,,,,,,,,,,,,,,,,,,,,,,,,,,,,,,,,,,,,,,,,,,,,,,,,,,,,,,,,,,,,,,,,,,,,,,,,,,,,,,,,,,0,0,0,0,1,,"[""k""]",[1.296400000095332],0,"[""k""]",[1.2962999999522822],,,,,,,,,,,,,,,,,,,,,,,,,,,,,,,,,,,,,,,,,,,,,,,,,,,,,,,,,,,,,,,,,,,,,
,,,,042010,001,2024-02-02_19h38.05.144,fluency,2022.2.5,Win32,6.666666667,,,,,,,,,,,,,,,,,,,,,,,1,2,img/B02_01.jpg,GCNB,Press J if the face is NONBINARY and K if the face is GENDER-CONFORMING,Gender-conforming means that the face appears to be a typical example of its gender. Nonbinary means that the face does not conform to any particular gender norms.,KJ,,,,,,,,,,,,,,,,,,,,,,,,,,,,,,,,5,0.9306,,,,,,,,,,,,,,0,23,23,12,1,,,,,,,,,,,,,space,1.4614,,,,,,,,,,,,,,,,,,,,,,,,,,,,,,,,,,,,,,,,,,,,,,,,,,,,,,,,,,,,,,,,,,,
,,,,042010,001,2024-02-02_19h38.05.144,fluency,2022.2.5,Win32,6.666666667,,,,,,,,,,,,,,,,,,,,,,,5,8,img/B08_05.jpg,GCNB,Press J if the face is NONBINARY and K if the face is GENDER-CONFORMING,Gender-conforming means that the face appears to be a typical example of its gender. Nonbinary means that the face does not conform to any particular gender norms.,KJ,,,,,,,,,,,,,,,,,,,,,,,,,,,,,,,,,,,,,,,,,,,,,,447.2736,0,24,24,82,1,109,0,0,0,0,1,98,,,,,,,,,,,,,,,,,,,,,,,,,,,,,,,,,,,,,,,,,,,,,,,,,,,,,,,,,,,,,,,,,,,,,,,,,,
,,,,042010,001,2024-02-02_19h38.05.144,fluency,2022.2.5,Win32,6.666666667,,,,,,,,,,,,,,,,,,,,,,,,,,,,,,,,,,,,,,,,,,,,,,,,,,,,,,,,,,,,,,,,,,,,,,,,,,,,,,,,,,0,0,0,0,1,,"[""j""]",[1.1282999999523327],0,"[""j""]",[1.1282999999523327],,,,,,,,,,,,,,,,,,,,,,,,,,,,,,,,,,,,,,,,,,,,,,,,,,,,,,,,,,,,,,,,,,,,,
,,,,042010,001,2024-02-02_19h38.05.144,fluency,2022.2.5,Win32,6.666666667,,,,,,,,,,,,,,,,,,,,,,,5,8,img/B08_05.jpg,GCNB,Press J if the face is NONBINARY and K if the face is GENDER-CONFORMING,Gender-conforming means that the face appears to be a typical example of its gender. Nonbinary means that the face does not conform to any particular gender norms.,KJ,,,,,,,,,,,,,,,,,,,,,,,,,,,,,,,,3,1.2806,,,,,,,,,,,,,,0,24,24,82,1,,,,,,,,,,,,,space,0.5753,,,,,,,,,,,,,,,,,,,,,,,,,,,,,,,,,,,,,,,,,,,,,,,,,,,,,,,,,,,,,,,,,,,
,,,,042010,001,2024-02-02_19h38.05.144,fluency,2022.2.5,Win32,6.666666667,,,,,,,,,,,,,,,,,,,,,,,7,4,img/B04_07.jpg,GCNB,Press J if the face is NONBINARY and K if the face is GENDER-CONFORMING,Gender-conforming means that the face appears to be a typical example of its gender. Nonbinary means that the face does not conform to any particular gender norms.,KJ,,,,,,,,,,,,,,,,,,,,,,,,,,,,,,,,,,,,,,,,,,,,,,453.5836,0,25,25,40,1,109,0,0,0,0,1,98,,,,,,,,,,,,,,,,,,,,,,,,,,,,,,,,,,,,,,,,,,,,,,,,,,,,,,,,,,,,,,,,,,,,,,,,,,
,,,,042010,001,2024-02-02_19h38.05.144,fluency,2022.2.5,Win32,6.666666667,,,,,,,,,,,,,,,,,,,,,,,,,,,,,,,,,,,,,,,,,,,,,,,,,,,,,,,,,,,,,,,,,,,,,,,,,,,,,,,,,,0,0,0,0,1,,"[""k""]",[2.0473000001907735],0,"[""k""]",[2.0473000001907735],,,,,,,,,,,,,,,,,,,,,,,,,,,,,,,,,,,,,,,,,,,,,,,,,,,,,,,,,,,,,,,,,,,,,
,,,,042010,001,2024-02-02_19h38.05.144,fluency,2022.2.5,Win32,6.666666667,,,,,,,,,,,,,,,,,,,,,,,7,4,img/B04_07.jpg,GCNB,Press J if the face is NONBINARY and K if the face is GENDER-CONFORMING,Gender-conforming means that the face appears to be a typical example of its gender. Nonbinary means that the face does not conform to any particular gender norms.,KJ,,,,,,,,,,,,,,,,,,,,,,,,,,,,,,,,2,1.2845,,,,,,,,,,,,,,0,25,25,40,1,,,,,,,,,,,,,space,0.7586,,,,,,,,,,,,,,,,,,,,,,,,,,,,,,,,,,,,,,,,,,,,,,,,,,,,,,,,,,,,,,,,,,,
,,,,042010,001,2024-02-02_19h38.05.144,fluency,2022.2.5,Win32,6.666666667,,,,,,,,,,,,,,,,,,,,,,,9,9,img/B09_09.jpg,GCNB,Press J if the face is NONBINARY and K if the face is GENDER-CONFORMING,Gender-conforming means that the face appears to be a typical example of its gender. Nonbinary means that the face does not conform to any particular gender norms.,KJ,,,,,,,,,,,,,,,,,,,,,,,,,,,,,,,,,,,,,,,,,,,,,,460.0107,0,26,26,97,1,109,0,0,0,0,1,98,,,,,,,,,,,,,,,,,,,,,,,,,,,,,,,,,,,,,,,,,,,,,,,,,,,,,,,,,,,,,,,,,,,,,,,,,,
,,,,042010,001,2024-02-02_19h38.05.144,fluency,2022.2.5,Win32,6.666666667,,,,,,,,,,,,,,,,,,,,,,,,,,,,,,,,,,,,,,,,,,,,,,,,,,,,,,,,,,,,,,,,,,,,,,,,,,,,,,,,,,0,0,0,0,1,,"[""k""]",[1.3106999998092874],0,"[""k""]",[1.3107999999523372],,,,,,,,,,,,,,,,,,,,,,,,,,,,,,,,,,,,,,,,,,,,,,,,,,,,,,,,,,,,,,,,,,,,,
,,,,042010,001,2024-02-02_19h38.05.144,fluency,2022.2.5,Win32,6.666666667,,,,,,,,,,,,,,,,,,,,,,,9,9,img/B09_09.jpg,GCNB,Press J if the face is NONBINARY and K if the face is GENDER-CONFORMING,Gender-conforming means that the face appears to be a typical example of its gender. Nonbinary means that the face does not conform to any particular gender norms.,KJ,,,,,,,,,,,,,,,,,,,,,,,,,,,,,,,,3,0.5599,,,,,,,,,,,,,,0,26,26,97,1,,,,,,,,,,,,,space,0.7546,,,,,,,,,,,,,,,,,,,,,,,,,,,,,,,,,,,,,,,,,,,,,,,,,,,,,,,,,,,,,,,,,,,
,,,,042010,001,2024-02-02_19h38.05.144,fluency,2022.2.5,Win32,6.666666667,,,,,,,,,,,,,,,,,,,,,,,2,10,img/B10_02.jpg,GCNB,Press J if the face is NONBINARY and K if the face is GENDER-CONFORMING,Gender-conforming means that the face appears to be a typical example of its gender. Nonbinary means that the face does not conform to any particular gender norms.,KJ,,,,,,,,,,,,,,,,,,,,,,,,,,,,,,,,,,,,,,,,,,,,,,465.7632,0,27,27,101,1,109,0,0,0,0,1,98,,,,,,,,,,,,,,,,,,,,,,,,,,,,,,,,,,,,,,,,,,,,,,,,,,,,,,,,,,,,,,,,,,,,,,,,,,
,,,,042010,001,2024-02-02_19h38.05.144,fluency,2022.2.5,Win32,6.666666667,,,,,,,,,,,,,,,,,,,,,,,,,,,,,,,,,,,,,,,,,,,,,,,,,,,,,,,,,,,,,,,,,,,,,,,,,,,,,,,,,,0,0,0,0,1,,"[""k""]",[1.127999999999986],0,"[""k""]",[1.1278999998569361],,,,,,,,,,,,,,,,,,,,,,,,,,,,,,,,,,,,,,,,,,,,,,,,,,,,,,,,,,,,,,,,,,,,,
,,,,042010,001,2024-02-02_19h38.05.144,fluency,2022.2.5,Win32,6.666666667,,,,,,,,,,,,,,,,,,,,,,,2,10,img/B10_02.jpg,GCNB,Press J if the face is NONBINARY and K if the face is GENDER-CONFORMING,Gender-conforming means that the face appears to be a typical example of its gender. Nonbinary means that the face does not conform to any particular gender norms.,KJ,,,,,,,,,,,,,,,,,,,,,,,,,,,,,,,,7,0.5648,,,,,,,,,,,,,,0,27,27,101,1,,,,,,,,,,,,,space,1.4823,,,,,,,,,,,,,,,,,,,,,,,,,,,,,,,,,,,,,,,,,,,,,,,,,,,,,,,,,,,,,,,,,,,
,,,,042010,001,2024-02-02_19h38.05.144,fluency,2022.2.5,Win32,6.666666667,,,,,,,,,,,,,,,,,,,,,,,6,5,img/B05_06.jpg,GCNB,Press J if the face is NONBINARY and K if the face is GENDER-CONFORMING,Gender-conforming means that the face appears to be a typical example of its gender. Nonbinary means that the face does not conform to any particular gender norms.,KJ,,,,,,,,,,,,,,,,,,,,,,,,,,,,,,,,,,,,,,,,,,,,,,473.1276,0,28,28,50,1,109,0,0,0,0,1,98,,,,,,,,,,,,,,,,,,,,,,,,,,,,,,,,,,,,,,,,,,,,,,,,,,,,,,,,,,,,,,,,,,,,,,,,,,
,,,,042010,001,2024-02-02_19h38.05.144,fluency,2022.2.5,Win32,6.666666667,,,,,,,,,,,,,,,,,,,,,,,,,,,,,,,,,,,,,,,,,,,,,,,,,,,,,,,,,,,,,,,,,,,,,,,,,,,,,,,,,,0,0,0,0,1,,"[""j""]",[2.0587999999523277],0,"[""j""]",[2.0587999999523277],,,,,,,,,,,,,,,,,,,,,,,,,,,,,,,,,,,,,,,,,,,,,,,,,,,,,,,,,,,,,,,,,,,,,
,,,,042010,001,2024-02-02_19h38.05.144,fluency,2022.2.5,Win32,6.666666667,,,,,,,,,,,,,,,,,,,,,,,6,5,img/B05_06.jpg,GCNB,Press J if the face is NONBINARY and K if the face is GENDER-CONFORMING,Gender-conforming means that the face appears to be a typical example of its gender. Nonbinary means that the face does not conform to any particular gender norms.,KJ,,,,,,,,,,,,,,,,,,,,,,,,,,,,,,,,2,1.8244,,,,,,,,,,,,,,0,28,28,50,1,,,,,,,,,,,,,space,0.7622,,,,,,,,,,,,,,,,,,,,,,,,,,,,,,,,,,,,,,,,,,,,,,,,,,,,,,,,,,,,,,,,,,,
,,,,042010,001,2024-02-02_19h38.05.144,fluency,2022.2.5,Win32,6.666666667,,,,,,,,,,,,,,,,,,,,,,,7,2,img/B02_07.jpg,GCNB,Press J if the face is NONBINARY and K if the face is GENDER-CONFORMING,Gender-conforming means that the face appears to be a typical example of its gender. Nonbinary means that the face does not conform to any particular gender norms.,KJ,,,,,,,,,,,,,,,,,,,,,,,,,,,,,,,,,,,,,,,,,,,,,,480.9533,0,29,29,18,1,109,0,0,0,0,1,98,,,,,,,,,,,,,,,,,,,,,,,,,,,,,,,,,,,,,,,,,,,,,,,,,,,,,,,,,,,,,,,,,,,,,,,,,,
,,,,042010,001,2024-02-02_19h38.05.144,fluency,2022.2.5,Win32,6.666666667,,,,,,,,,,,,,,,,,,,,,,,,,,,,,,,,,,,,,,,,,,,,,,,,,,,,,,,,,,,,,,,,,,,,,,,,,,,,,,,,,,0,0,0,0,1,,"[""k""]",[2.0509999999999877],0,"[""k""]",[2.0509999999999877],,,,,,,,,,,,,,,,,,,,,,,,,,,,,,,,,,,,,,,,,,,,,,,,,,,,,,,,,,,,,,,,,,,,,
,,,,042010,001,2024-02-02_19h38.05.144,fluency,2022.2.5,Win32,6.666666667,,,,,,,,,,,,,,,,,,,,,,,7,2,img/B02_07.jpg,GCNB,Press J if the face is NONBINARY and K if the face is GENDER-CONFORMING,Gender-conforming means that the face appears to be a typical example of its gender. Nonbinary means that the face does not conform to any particular gender norms.,KJ,,,,,,,,,,,,,,,,,,,,,,,,,,,,,,,,3,1.4905,,,,,,,,,,,,,,0,29,29,18,1,,,,,,,,,,,,,space,0.9462,,,,,,,,,,,,,,,,,,,,,,,,,,,,,,,,,,,,,,,,,,,,,,,,,,,,,,,,,,,,,,,,,,,
,,,,042010,001,2024-02-02_19h38.05.144,fluency,2022.2.5,Win32,6.666666667,,,,,,,,,,,,,,,,,,,,,,,4,5,img/B05_04.jpg,GCNB,Press J if the face is NONBINARY and K if the face is GENDER-CONFORMING,Gender-conforming means that the face appears to be a typical example of its gender. Nonbinary means that the face does not conform to any particular gender norms.,KJ,,,,,,,,,,,,,,,,,,,,,,,,,,,,,,,,,,,,,,,,,,,,,,488.6382,0,30,30,48,1,109,0,0,0,0,1,98,,,,,,,,,,,,,,,,,,,,,,,,,,,,,,,,,,,,,,,,,,,,,,,,,,,,,,,,,,,,,,,,,,,,,,,,,,
,,,,042010,001,2024-02-02_19h38.05.144,fluency,2022.2.5,Win32,6.666666667,,,,,,,,,,,,,,,,,,,,,,,,,,,,,,,,,,,,,,,,,,,,,,,,,,,,,,,,,,,,,,,,,,,,,,,,,,,,,,,,,,0,0,0,0,1,,"[""k""]",[1.6780999999047026],0,"[""k""]",[1.6779999999999973],,,,,,,,,,,,,,,,,,,,,,,,,,,,,,,,,,,,,,,,,,,,,,,,,,,,,,,,,,,,,,,,,,,,,
,,,,042010,001,2024-02-02_19h38.05.144,fluency,2022.2.5,Win32,6.666666667,,,,,,,,,,,,,,,,,,,,,,,4,5,img/B05_04.jpg,GCNB,Press J if the face is NONBINARY and K if the face is GENDER-CONFORMING,Gender-conforming means that the face appears to be a typical example of its gender. Nonbinary means that the face does not conform to any particular gender norms.,KJ,,,,,,,,,,,,,,,,,,,,,,,,,,,,,,,,2,1.8295,,,,,,,,,,,,,,0,30,30,48,1,,,,,,,,,,,,,space,0.9369,,,,,,,,,,,,,,,,,,,,,,,,,,,,,,,,,,,,,,,,,,,,,,,,,,,,,,,,,,,,,,,,,,,
,,,,042010,001,2024-02-02_19h38.05.144,fluency,2022.2.5,Win32,6.666666667,,,,,,,,,,,,,,,,,,,,,,,2,4,img/B04_02.jpg,GCNB,Press J if the face is NONBINARY and K if the face is GENDER-CONFORMING,Gender-conforming means that the face appears to be a typical example of its gender. Nonbinary means that the face does not conform to any particular gender norms.,KJ,,,,,,,,,,,,,,,,,,,,,,,,,,,,,,,,,,,,,,,,,,,,,,496.6922,0,31,31,35,1,109,0,0,0,0,1,98,,,,,,,,,,,,,,,,,,,,,,,,,,,,,,,,,,,,,,,,,,,,,,,,,,,,,,,,,,,,,,,,,,,,,,,,,,
,,,,042010,001,2024-02-02_19h38.05.144,fluency,2022.2.5,Win32,6.666666667,,,,,,,,,,,,,,,,,,,,,,,,,,,,,,,,,,,,,,,,,,,,,,,,,,,,,,,,,,,,,,,,,,,,,,,,,,,,,,,,,,0,0,0,0,1,,"[""k""]",[0.9873999998569616],0,"[""k""]",[0.9874000000953629],,,,,,,,,,,,,,,,,,,,,,,,,,,,,,,,,,,,,,,,,,,,,,,,,,,,,,,,,,,,,,,,,,,,,
,,,,042010,001,2024-02-02_19h38.05.144,fluency,2022.2.5,Win32,6.666666667,,,,,,,,,,,,,,,,,,,,,,,2,4,img/B04_02.jpg,GCNB,Press J if the face is NONBINARY and K if the face is GENDER-CONFORMING,Gender-conforming means that the face appears to be a typical example of its gender. Nonbinary means that the face does not conform to any particular gender norms.,KJ,,,,,,,,,,,,,,,,,,,,,,,,,,,,,,,,6,0.7539,,,,,,,,,,,,,,0,31,31,35,1,,,,,,,,,,,,,space,0.8058,,,,,,,,,,,,,,,,,,,,,,,,,,,,,,,,,,,,,,,,,,,,,,,,,,,,,,,,,,,,,,,,,,,
,,,,042010,001,2024-02-02_19h38.05.144,fluency,2022.2.5,Win32,6.666666667,,,,,,,,,,,,,,,,,,,,,,,0,6,img/B06_00.jpg,GCNB,Press J if the face is NONBINARY and K if the face is GENDER-CONFORMING,Gender-conforming means that the face appears to be a typical example of its gender. Nonbinary means that the face does not conform to any particular gender norms.,KJ,,,,,,,,,,,,,,,,,,,,,,,,,,,,,,,,,,,,,,,,,,,,,,502.587,0,32,32,55,1,109,0,0,0,0,1,98,,,,,,,,,,,,,,,,,,,,,,,,,,,,,,,,,,,,,,,,,,,,,,,,,,,,,,,,,,,,,,,,,,,,,,,,,,
,,,,042010,001,2024-02-02_19h38.05.144,fluency,2022.2.5,Win32,6.666666667,,,,,,,,,,,,,,,,,,,,,,,,,,,,,,,,,,,,,,,,,,,,,,,,,,,,,,,,,,,,,,,,,,,,,,,,,,,,,,,,,,0,0,0,0,1,,"[""k""]",[1.0273000001907349],0,"[""k""]",[1.0272000000476282],,,,,,,,,,,,,,,,,,,,,,,,,,,,,,,,,,,,,,,,,,,,,,,,,,,,,,,,,,,,,,,,,,,,,
,,,,042010,001,2024-02-02_19h38.05.144,fluency,2022.2.5,Win32,6.666666667,,,,,,,,,,,,,,,,,,,,,,,0,6,img/B06_00.jpg,GCNB,Press J if the face is NONBINARY and K if the face is GENDER-CONFORMING,Gender-conforming means that the face appears to be a typical example of its gender. Nonbinary means that the face does not conform to any particular gender norms.,KJ,,,,,,,,,,,,,,,,,,,,,,,,,,,,,,,,7,1.489,,,,,,,,,,,,,,0,32,32,55,1,,,,,,,,,,,,,space,1.7085,,,,,,,,,,,,,,,,,,,,,,,,,,,,,,,,,,,,,,,,,,,,,,,,,,,,,,,,,,,,,,,,,,,
,,,,042010,001,2024-02-02_19h38.05.144,fluency,2022.2.5,Win32,6.666666667,,,,,,,,,,,,,,,,,,,,,,,1,3,img/B03_01.jpg,GCNB,Press J if the face is NONBINARY and K if the face is GENDER-CONFORMING,Gender-conforming means that the face appears to be a typical example of its gender. Nonbinary means that the face does not conform to any particular gender norms.,KJ,,,,,,,,,,,,,,,,,,,,,,,,,,,,,,,,,,,,,,,,,,,,,,510.1239,0,33,33,23,1,109,0,0,0,0,1,98,,,,,,,,,,,,,,,,,,,,,,,,,,,,,,,,,,,,,,,,,,,,,,,,,,,,,,,,,,,,,,,,,,,,,,,,,,
,,,,042010,001,2024-02-02_19h38.05.144,fluency,2022.2.5,Win32,6.666666667,,,,,,,,,,,,,,,,,,,,,,,,,,,,,,,,,,,,,,,,,,,,,,,,,,,,,,,,,,,,,,,,,,,,,,,,,,,,,,,,,,0,0,0,0,1,,"[""k""]",[0.9417000000477174],0,"[""k""]",[0.9415999999046107],,,,,,,,,,,,,,,,,,,,,,,,,,,,,,,,,,,,,,,,,,,,,,,,,,,,,,,,,,,,,,,,,,,,,
,,,,042010,001,2024-02-02_19h38.05.144,fluency,2022.2.5,Win32,6.666666667,,,,,,,,,,,,,,,,,,,,,,,1,3,img/B03_01.jpg,GCNB,Press J if the face is NONBINARY and K if the face is GENDER-CONFORMING,Gender-conforming means that the face appears to be a typical example of its gender. Nonbinary means that the face does not conform to any particular gender norms.,KJ,,,,,,,,,,,,,,,,,,,,,,,,,,,,,,,,9,1.308,,,,,,,,,,,,,,0,33,33,23,1,,,,,,,,,,,,,space,2.4168,,,,,,,,,,,,,,,,,,,,,,,,,,,,,,,,,,,,,,,,,,,,,,,,,,,,,,,,,,,,,,,,,,,
,,,,042010,001,2024-02-02_19h38.05.144,fluency,2022.2.5,Win32,6.666666667,,,,,,,,,,,,,,,,,,,,,,,7,1,img/B01_07.jpg,GCNB,Press J if the face is NONBINARY and K if the face is GENDER-CONFORMING,Gender-conforming means that the face appears to be a typical example of its gender. Nonbinary means that the face does not conform to any particular gender norms.,KJ,,,,,,,,,,,,,,,,,,,,,,,,,,,,,,,,,,,,,,,,,,,,,,519.2143,0,34,34,7,1,109,0,0,0,0,1,98,,,,,,,,,,,,,,,,,,,,,,,,,,,,,,,,,,,,,,,,,,,,,,,,,,,,,,,,,,,,,,,,,,,,,,,,,,
,,,,042010,001,2024-02-02_19h38.05.144,fluency,2022.2.5,Win32,6.666666667,,,,,,,,,,,,,,,,,,,,,,,,,,,,,,,,,,,,,,,,,,,,,,,,,,,,,,,,,,,,,,,,,,,,,,,,,,,,,,,,,,0,0,0,0,1,,"[""j""]",[1.33270000004768],0,"[""j""]",[1.3325999999045735],,,,,,,,,,,,,,,,,,,,,,,,,,,,,,,,,,,,,,,,,,,,,,,,,,,,,,,,,,,,,,,,,,,,,
,,,,042010,001,2024-02-02_19h38.05.144,fluency,2022.2.5,Win32,6.666666667,,,,,,,,,,,,,,,,,,,,,,,7,1,img/B01_07.jpg,GCNB,Press J if the face is NONBINARY and K if the face is GENDER-CONFORMING,Gender-conforming means that the face appears to be a typical example of its gender. Nonbinary means that the face does not conform to any particular gender norms.,KJ,,,,,,,,,,,,,,,,,,,,,,,,,,,,,,,,2,1.1228,,,,,,,,,,,,,,0,34,34,7,1,,,,,,,,,,,,,space,0.5578,,,,,,,,,,,,,,,,,,,,,,,,,,,,,,,,,,,,,,,,,,,,,,,,,,,,,,,,,,,,,,,,,,,
,,,,042010,001,2024-02-02_19h38.05.144,fluency,2022.2.5,Win32,6.666666667,,,,,,,,,,,,,,,,,,,,,,,5,7,img/B07_05.jpg,GCNB,Press J if the face is NONBINARY and K if the face is GENDER-CONFORMING,Gender-conforming means that the face appears to be a typical example of its gender. Nonbinary means that the face does not conform to any particular gender norms.,KJ,,,,,,,,,,,,,,,,,,,,,,,,,,,,,,,,,,,,,,,,,,,,,,525.3687,0,35,35,71,1,109,0,0,0,0,1,98,,,,,,,,,,,,,,,,,,,,,,,,,,,,,,,,,,,,,,,,,,,,,,,,,,,,,,,,,,,,,,,,,,,,,,,,,,
,,,,042010,001,2024-02-02_19h38.05.144,fluency,2022.2.5,Win32,6.666666667,,,,,,,,,,,,,,,,,,,,,,,,,,,,,,,,,,,,,,,,,,,,,,,,,,,,,,,,,,,,,,,,,,,,,,,,,,,,,,,,,,0,0,0,0,1,,"[""j""]",[1.6805000000000518],0,"[""j""]",[1.6805000000000518],,,,,,,,,,,,,,,,,,,,,,,,,,,,,,,,,,,,,,,,,,,,,,,,,,,,,,,,,,,,,,,,,,,,,
,,,,042010,001,2024-02-02_19h38.05.144,fluency,2022.2.5,Win32,6.666666667,,,,,,,,,,,,,,,,,,,,,,,5,7,img/B07_05.jpg,GCNB,Press J if the face is NONBINARY and K if the face is GENDER-CONFORMING,Gender-conforming means that the face appears to be a typical example of its gender. Nonbinary means that the face does not conform to any particular gender norms.,KJ,,,,,,,,,,,,,,,,,,,,,,,,,,,,,,,,1,0.7297,,,,,,,,,,,,,,0,35,35,71,1,,,,,,,,,,,,,space,0.7461,,,,,,,,,,,,,,,,,,,,,,,,,,,,,,,,,,,,,,,,,,,,,,,,,,,,,,,,,,,,,,,,,,,
,,,,042010,001,2024-02-02_19h38.05.144,fluency,2022.2.5,Win32,6.666666667,,,,,,,,,,,,,,,,,,,,,,,1,1,img/B01_01.jpg,GCNB,Press J if the face is NONBINARY and K if the face is GENDER-CONFORMING,Gender-conforming means that the face appears to be a typical example of its gender. Nonbinary means that the face does not conform to any particular gender norms.,KJ,,,,,,,,,,,,,,,,,,,,,,,,,,,,,,,,,,,,,,,,,,,,,,532.1392,0,36,36,1,1,109,0,0,0,0,1,98,,,,,,,,,,,,,,,,,,,,,,,,,,,,,,,,,,,,,,,,,,,,,,,,,,,,,,,,,,,,,,,,,,,,,,,,,,
,,,,042010,001,2024-02-02_19h38.05.144,fluency,2022.2.5,Win32,6.666666667,,,,,,,,,,,,,,,,,,,,,,,,,,,,,,,,,,,,,,,,,,,,,,,,,,,,,,,,,,,,,,,,,,,,,,,,,,,,,,,,,,0,0,0,0,1,,"[""k""]",[1.293099999904598],0,"[""k""]",[1.2930000000000064],,,,,,,,,,,,,,,,,,,,,,,,,,,,,,,,,,,,,,,,,,,,,,,,,,,,,,,,,,,,,,,,,,,,,
,,,,042010,001,2024-02-02_19h38.05.144,fluency,2022.2.5,Win32,6.666666667,,,,,,,,,,,,,,,,,,,,,,,1,1,img/B01_01.jpg,GCNB,Press J if the face is NONBINARY and K if the face is GENDER-CONFORMING,Gender-conforming means that the face appears to be a typical example of its gender. Nonbinary means that the face does not conform to any particular gender norms.,KJ,,,,,,,,,,,,,,,,,,,,,,,,,,,,,,,,8,1.1156,,,,,,,,,,,,,,0,36,36,1,1,,,,,,,,,,,,,space,2.5814,,,,,,,,,,,,,,,,,,,,,,,,,,,,,,,,,,,,,,,,,,,,,,,,,,,,,,,,,,,,,,,,,,,
,,,,042010,001,2024-02-02_19h38.05.144,fluency,2022.2.5,Win32,6.666666667,,,,,,,,,,,,,,,,,,,,,,,3,1,img/B01_03.jpg,GCNB,Press J if the face is NONBINARY and K if the face is GENDER-CONFORMING,Gender-conforming means that the face appears to be a typical example of its gender. Nonbinary means that the face does not conform to any particular gender norms.,KJ,,,,,,,,,,,,,,,,,,,,,,,,,,,,,,,,,,,,,,,,,,,,,,540.2826,0,37,37,3,1,109,0,0,0,0,1,98,,,,,,,,,,,,,,,,,,,,,,,,,,,,,,,,,,,,,,,,,,,,,,,,,,,,,,,,,,,,,,,,,,,,,,,,,,
,,,,042010,001,2024-02-02_19h38.05.144,fluency,2022.2.5,Win32,6.666666667,,,,,,,,,,,,,,,,,,,,,,,,,,,,,,,,,,,,,,,,,,,,,,,,,,,,,,,,,,,,,,,,,,,,,,,,,,,,,,,,,,,,,,,,,,1,,,,,space,7.3712,0,0,0,0,1,,,,,,,,,,,,,,,,,,,,,,,,,,,,,,,,,,,,,,,,,,,,,,,,,,,,,,,,,,,,
,,,,042010,001,2024-02-02_19h38.05.144,fluency,2022.2.5,Win32,6.666666667,,,,,,,,,,,,,,,,,,,,,,,,,,,,,,,,,,,,,,,,,,,,,,,,,,,,,,,,,,,,,,,,,,,,,,,,,,,,,,,,,,0,0,0,0,1,,,,,,,,,,,,,,,,,,,,,,,,,,,,,,,,,,,,,,,,,,,,,,,,,,,,,,,,,,,,,,,,,,,,,,,,,,,
,,,,042010,001,2024-02-02_19h38.05.144,fluency,2022.2.5,Win32,6.666666667,,,,,,,,,,,,,,,,,,,,,,,3,1,img/B01_03.jpg,GCNB,Press J if the face is NONBINARY and K if the face is GENDER-CONFORMING,Gender-conforming means that the face appears to be a typical example of its gender. Nonbinary means that the face does not conform to any particular gender norms.,KJ,,,,,,,,,,,,,,,,,,,,,,,,,,,,,,,,,,,,,,,,,,,,,,552.9298,0,37,37,3,1,109,1,0,1,0,1,98,,,,,,,,,,,,,,,,,,,,,,,,,,,,,,,,,,,,,,,,,,,,,,,,,,,,,,,,,,,,,,,,,,,,,,,,,,
,,,,042010,001,2024-02-02_19h38.05.144,fluency,2022.2.5,Win32,6.666666667,,,,,,,,,,,,,,,,,,,,,,,,,,,,,,,,,,,,,,,,,,,,,,,,,,,,,,,,,,,,,,,,,,,,,,,,,,,,,,,,,,1,0,1,0,1,,"[""k""]",[1.2975000000000136],1,"[""k""]",[1.2975000000000136],,,,,,,,,,,,,,,,,,,,,,,,,,,,,,,,,,,,,,,,,,,,,,,,,,,,,,,,,,,,,,,,,,,,,
,,,,042010,001,2024-02-02_19h38.05.144,fluency,2022.2.5,Win32,6.666666667,,,,,,,,,,,,,,,,,,,,,,,3,1,img/B01_03.jpg,GCNB,Press J if the face is NONBINARY and K if the face is GENDER-CONFORMING,Gender-conforming means that the face appears to be a typical example of its gender. Nonbinary means that the face does not conform to any particular gender norms.,KJ,,,,,,,,,,,,,,,,,,,,,,,,,,,,,,,,4,6.7651,,,,,,,,,,,,,,0,37,37,3,1,,,,,,,,,,,,,space,0.9356,,,,,,,,,,,,,,,,,,,,,,,,,,,,,,,,,,,,,,,,,,,,,,,,,,,,,,,,,,,,,,,,,,,
,,,,042010,001,2024-02-02_19h38.05.144,fluency,2022.2.5,Win32,6.666666667,,,,,,,,,,,,,,,,,,,,,,,1,5,img/B05_01.jpg,GCNB,Press J if the face is NONBINARY and K if the face is GENDER-CONFORMING,Gender-conforming means that the face appears to be a typical example of its gender. Nonbinary means that the face does not conform to any particular gender norms.,KJ,,,,,,,,,,,,,,,,,,,,,,,,,,,,,,,,,,,,,,,,,,,,,,565.9327,0,38,38,45,1,109,0,0,0,0,1,98,,,,,,,,,,,,,,,,,,,,,,,,,,,,,,,,,,,,,,,,,,,,,,,,,,,,,,,,,,,,,,,,,,,,,,,,,,
,,,,042010,001,2024-02-02_19h38.05.144,fluency,2022.2.5,Win32,6.666666667,,,,,,,,,,,,,,,,,,,,,,,,,,,,,,,,,,,,,,,,,,,,,,,,,,,,,,,,,,,,,,,,,,,,,,,,,,,,,,,,,,0,0,0,0,1,,,,1,,,,,,,,,,,,,,,,,,,,,,,,,,,,,,,,,,,,,,,,,,,,,,,,,,,,,,,,,,,,,,,,,,,,,,,
,,,,042010,001,2024-02-02_19h38.05.144,fluency,2022.2.5,Win32,6.666666667,,,,,,,,,,,,,,,,,,,,,,,1,5,img/B05_01.jpg,GCNB,Press J if the face is NONBINARY and K if the face is GENDER-CONFORMING,Gender-conforming means that the face appears to be a typical example of its gender. Nonbinary means that the face does not conform to any particular gender norms.,KJ,,,,,,,,,,,,,,,,,,,,,,,,,,,,,,,,5,3.1248,,,,,,,,,,,,,,0,38,38,45,1,,,,,,,,,,,,,space,0.562,,,,,,,,,,,,,,,,,,,,,,,,,,,,,,,,,,,,,,,,,,,,,,,,,,,,,,,,,,,,,,,,,,,
,,,,042010,001,2024-02-02_19h38.05.144,fluency,2022.2.5,Win32,6.666666667,,,,,,,,,,,,,,,,,,,,,,,7,7,img/B07_07.jpg,GCNB,Press J if the face is NONBINARY and K if the face is GENDER-CONFORMING,Gender-conforming means that the face appears to be a typical example of its gender. Nonbinary means that the face does not conform to any particular gender norms.,KJ,,,,,,,,,,,,,,,,,,,,,,,,,,,,,,,,,,,,,,,,,,,,,,575.0258,0,39,39,73,1,109,0,0,0,0,1,98,,,,,,,,,,,,,,,,,,,,,,,,,,,,,,,,,,,,,,,,,,,,,,,,,,,,,,,,,,,,,,,,,,,,,,,,,,
,,,,042010,001,2024-02-02_19h38.05.144,fluency,2022.2.5,Win32,6.666666667,,,,,,,,,,,,,,,,,,,,,,,,,,,,,,,,,,,,,,,,,,,,,,,,,,,,,,,,,,,,,,,,,,,,,,,,,,,,,,,,,,0,0,0,0,1,,"[""j""]",[1.6967000000477128],1,"[""k"",""j""]","[-6.291799999952332,1.6965999999046062]",,,,,,,,,,,,,,,,,,,,,,,,,,,,,,,,,,,,,,,,,,,,,,,,,,,,,,,,,,,,,,,,,,,,,
,,,,042010,001,2024-02-02_19h38.05.144,fluency,2022.2.5,Win32,6.666666667,,,,,,,,,,,,,,,,,,,,,,,7,7,img/B07_07.jpg,GCNB,Press J if the face is NONBINARY and K if the face is GENDER-CONFORMING,Gender-conforming means that the face appears to be a typical example of its gender. Nonbinary means that the face does not conform to any particular gender norms.,KJ,,,,,,,,,,,,,,,,,,,,,,,,,,,,,,,,1,1.4772,,,,,,,,,,,,,,0,39,39,73,1,,,,,,,,,,,,,space,0.7458,,,,,,,,,,,,,,,,,,,,,,,,,,,,,,,,,,,,,,,,,,,,,,,,,,,,,,,,,,,,,,,,,,,
,,,,042010,001,2024-02-02_19h38.05.144,fluency,2022.2.5,Win32,6.666666667,,,,,,,,,,,,,,,,,,,,,,,5,6,img/B06_05.jpg,GCNB,Press J if the face is NONBINARY and K if the face is GENDER-CONFORMING,Gender-conforming means that the face appears to be a typical example of its gender. Nonbinary means that the face does not conform to any particular gender norms.,KJ,,,,,,,,,,,,,,,,,,,,,,,,,,,,,,,,,,,,,,,,,,,,,,581.6834,0,40,40,60,1,109,0,0,0,0,1,98,,,,,,,,,,,,,,,,,,,,,,,,,,,,,,,,,,,,,,,,,,,,,,,,,,,,,,,,,,,,,,,,,,,,,,,,,,
,,,,042010,001,2024-02-02_19h38.05.144,fluency,2022.2.5,Win32,6.666666667,,,,,,,,,,,,,,,,,,,,,,,,,,,,,,,,,,,,,,,,,,,,,,,,,,,,,,,,,,,,,,,,,,,,,,,,,,,,,,,,,,0,0,0,0,1,,"[""j""]",[1.5181999998092124],1,"[""j""]",[1.5181999998092124],,,,,,,,,,,,,,,,,,,,,,,,,,,,,,,,,,,,,,,,,,,,,,,,,,,,,,,,,,,,,,,,,,,,,
,,,,042010,001,2024-02-02_19h38.05.144,fluency,2022.2.5,Win32,6.666666667,,,,,,,,,,,,,,,,,,,,,,,5,6,img/B06_05.jpg,GCNB,Press J if the face is NONBINARY and K if the face is GENDER-CONFORMING,Gender-conforming means that the face appears to be a typical example of its gender. Nonbinary means that the face does not conform to any particular gender norms.,KJ,,,,,,,,,,,,,,,,,,,,,,,,,,,,,,,,3,0.7599,,,,,,,,,,,,,,0,40,40,60,1,,,,,,,,,,,,,space,0.7498,,,,,,,,,,,,,,,,,,,,,,,,,,,,,,,,,,,,,,,,,,,,,,,,,,,,,,,,,,,,,,,,,,,
,,,,042010,001,2024-02-02_19h38.05.144,fluency,2022.2.5,Win32,6.666666667,,,,,,,,,,,,,,,,,,,,,,,8,4,img/B04_08.jpg,GCNB,Press J if the face is NONBINARY and K if the face is GENDER-CONFORMING,Gender-conforming means that the face appears to be a typical example of its gender. Nonbinary means that the face does not conform to any particular gender norms.,KJ,,,,,,,,,,,,,,,,,,,,,,,,,,,,,,,,,,,,,,,,,,,,,,588.5547,0,41,41,41,1,109,0,0,0,0,1,98,,,,,,,,,,,,,,,,,,,,,,,,,,,,,,,,,,,,,,,,,,,,,,,,,,,,,,,,,,,,,,,,,,,,,,,,,,
,,,,042010,001,2024-02-02_19h38.05.144,fluency,2022.2.5,Win32,6.666666667,,,,,,,,,,,,,,,,,,,,,,,,,,,,,,,,,,,,,,,,,,,,,,,,,,,,,,,,,,,,,,,,,,,,,,,,,,,,,,,,,,0,0,0,0,1,,"[""k""]",[2.0415999999046335],1,"[""k""]",[2.041699999809225],,,,,,,,,,,,,,,,,,,,,,,,,,,,,,,,,,,,,,,,,,,,,,,,,,,,,,,,,,,,,,,,,,,,,
,,,,042010,001,2024-02-02_19h38.05.144,fluency,2022.2.5,Win32,6.666666667,,,,,,,,,,,,,,,,,,,,,,,8,4,img/B04_08.jpg,GCNB,Press J if the face is NONBINARY and K if the face is GENDER-CONFORMING,Gender-conforming means that the face appears to be a typical example of its gender. Nonbinary means that the face does not conform to any particular gender norms.,KJ,,,,,,,,,,,,,,,,,,,,,,,,,,,,,,,,4,1.2771,,,,,,,,,,,,,,0,41,41,41,1,,,,,,,,,,,,,space,0.7478,,,,,,,,,,,,,,,,,,,,,,,,,,,,,,,,,,,,,,,,,,,,,,,,,,,,,,,,,,,,,,,,,,,
,,,,042010,001,2024-02-02_19h38.05.144,fluency,2022.2.5,Win32,6.666666667,,,,,,,,,,,,,,,,,,,,,,,10,7,img/B07_10.jpg,GCNB,Press J if the face is NONBINARY and K if the face is GENDER-CONFORMING,Gender-conforming means that the face appears to be a typical example of its gender. Nonbinary means that the face does not conform to any particular gender norms.,KJ,,,,,,,,,,,,,,,,,,,,,,,,,,,,,,,,,,,,,,,,,,,,,,595.8571,0,42,42,76,1,109,0,0,0,0,1,98,,,,,,,,,,,,,,,,,,,,,,,,,,,,,,,,,,,,,,,,,,,,,,,,,,,,,,,,,,,,,,,,,,,,,,,,,,
,,,,042010,001,2024-02-02_19h38.05.144,fluency,2022.2.5,Win32,6.666666667,,,,,,,,,,,,,,,,,,,,,,,,,,,,,,,,,,,,,,,,,,,,,,,,,,,,,,,,,,,,,,,,,,,,,,,,,,,,,,,,,,0,0,0,0,1,,"[""j""]",[2.0347000000476783],1,"[""j""]",[2.0347000000476783],,,,,,,,,,,,,,,,,,,,,,,,,,,,,,,,,,,,,,,,,,,,,,,,,,,,,,,,,,,,,,,,,,,,,
,,,,042010,001,2024-02-02_19h38.05.144,fluency,2022.2.5,Win32,6.666666667,,,,,,,,,,,,,,,,,,,,,,,10,7,img/B07_10.jpg,GCNB,Press J if the face is NONBINARY and K if the face is GENDER-CONFORMING,Gender-conforming means that the face appears to be a typical example of its gender. Nonbinary means that the face does not conform to any particular gender norms.,KJ,,,,,,,,,,,,,,,,,,,,,,,,,,,,,,,,2,1.471,,,,,,,,,,,,,,0,42,42,76,1,,,,,,,,,,,,,space,0.7395,,,,,,,,,,,,,,,,,,,,,,,,,,,,,,,,,,,,,,,,,,,,,,,,,,,,,,,,,,,,,,,,,,,
,,,,042010,001,2024-02-02_19h38.05.144,fluency,2022.2.5,Win32,6.666666667,,,,,,,,,,,,,,,,,,,,,,,4,8,img/B08_04.jpg,GCNB,Press J if the face is NONBINARY and K if the face is GENDER-CONFORMING,Gender-conforming means that the face appears to be a typical example of its gender. Nonbinary means that the face does not conform to any particular gender norms.,KJ,,,,,,,,,,,,,,,,,,,,,,,,,,,,,,,,,,,,,,,,,,,,,,602.2792,0,43,43,81,1,109,0,0,0,0,1,98,,,,,,,,,,,,,,,,,,,,,,,,,,,,,,,,,,,,,,,,,,,,,,,,,,,,,,,,,,,,,,,,,,,,,,,,,,
,,,,042010,001,2024-02-02_19h38.05.144,fluency,2022.2.5,Win32,6.666666667,,,,,,,,,,,,,,,,,,,,,,,,,,,,,,,,,,,,,,,,,,,,,,,,,,,,,,,,,,,,,,,,,,,,,,,,,,,,,,,,,,0,0,0,0,1,,"[""k""]",[1.3202000000476346],1,"[""k""]",[1.320199999809347],,,,,,,,,,,,,,,,,,,,,,,,,,,,,,,,,,,,,,,,,,,,,,,,,,,,,,,,,,,,,,,,,,,,,
,,,,042010,001,2024-02-02_19h38.05.144,fluency,2022.2.5,Win32,6.666666667,,,,,,,,,,,,,,,,,,,,,,,4,8,img/B08_04.jpg,GCNB,Press J if the face is NONBINARY and K if the face is GENDER-CONFORMING,Gender-conforming means that the face appears to be a typical example of its gender. Nonbinary means that the face does not conform to any particular gender norms.,KJ,,,,,,,,,,,,,,,,,,,,,,,,,,,,,,,,3,0.7416,,,,,,,,,,,,,,0,43,43,81,1,,,,,,,,,,,,,space,0.575,,,,,,,,,,,,,,,,,,,,,,,,,,,,,,,,,,,,,,,,,,,,,,,,,,,,,,,,,,,,,,,,,,,
,,,,042010,001,2024-02-02_19h38.05.144,fluency,2022.2.5,Win32,6.666666667,,,,,,,,,,,,,,,,,,,,,,,10,2,img/B02_10.jpg,GCNB,Press J if the face is NONBINARY and K if the face is GENDER-CONFORMING,Gender-conforming means that the face appears to be a typical example of its gender. Nonbinary means that the face does not conform to any particular gender norms.,KJ,,,,,,,,,,,,,,,,,,,,,,,,,,,,,,,,,,,,,,,,,,,,,,608.0557,0,44,44,21,1,109,0,0,0,0,1,98,,,,,,,,,,,,,,,,,,,,,,,,,,,,,,,,,,,,,,,,,,,,,,,,,,,,,,,,,,,,,,,,,,,,,,,,,,
,,,,042010,001,2024-02-02_19h38.05.144,fluency,2022.2.5,Win32,6.666666667,,,,,,,,,,,,,,,,,,,,,,,,,,,,,,,,,,,,,,,,,,,,,,,,,,,,,,,,,,,,,,,,,,,,,,,,,,,,,,,,,,0,0,0,0,1,,"[""k""]",[1.4974000000953538],1,"[""k""]",[1.4972000000476555],,,,,,,,,,,,,,,,,,,,,,,,,,,,,,,,,,,,,,,,,,,,,,,,,,,,,,,,,,,,,,,,,,,,,
,,,,042010,001,2024-02-02_19h38.05.144,fluency,2022.2.5,Win32,6.666666667,,,,,,,,,,,,,,,,,,,,,,,10,2,img/B02_10.jpg,GCNB,Press J if the face is NONBINARY and K if the face is GENDER-CONFORMING,Gender-conforming means that the face appears to be a typical example of its gender. Nonbinary means that the face does not conform to any particular gender norms.,KJ,,,,,,,,,,,,,,,,,,,,,,,,,,,,,,,,4,0.749,,,,,,,,,,,,,,0,44,44,21,1,,,,,,,,,,,,,space,0.5699,,,,,,,,,,,,,,,,,,,,,,,,,,,,,,,,,,,,,,,,,,,,,,,,,,,,,,,,,,,,,,,,,,,
,,,,042010,001,2024-02-02_19h38.05.144,fluency,2022.2.5,Win32,6.666666667,,,,,,,,,,,,,,,,,,,,,,,6,3,img/B03_06.jpg,GCNB,Press J if the face is NONBINARY and K if the face is GENDER-CONFORMING,Gender-conforming means that the face appears to be a typical example of its gender. Nonbinary means that the face does not conform to any particular gender norms.,KJ,,,,,,,,,,,,,,,,,,,,,,,,,,,,,,,,,,,,,,,,,,,,,,614.7095,0,45,45,28,1,109,0,0,0,0,1,98,,,,,,,,,,,,,,,,,,,,,,,,,,,,,,,,,,,,,,,,,,,,,,,,,,,,,,,,,,,,,,,,,,,,,,,,,,
,,,,042010,001,2024-02-02_19h38.05.144,fluency,2022.2.5,Win32,6.666666667,,,,,,,,,,,,,,,,,,,,,,,,,,,,,,,,,,,,,,,,,,,,,,,,,,,,,,,,,,,,,,,,,,,,,,,,,,,,,,,,,,0,0,0,0,1,,"[""j""]",[1.7232000000476546],1,"[""j""]",[1.723100000143063],,,,,,,,,,,,,,,,,,,,,,,,,,,,,,,,,,,,,,,,,,,,,,,,,,,,,,,,,,,,,,,,,,,,,
,,,,042010,001,2024-02-02_19h38.05.144,fluency,2022.2.5,Win32,6.666666667,,,,,,,,,,,,,,,,,,,,,,,6,3,img/B03_06.jpg,GCNB,Press J if the face is NONBINARY and K if the face is GENDER-CONFORMING,Gender-conforming means that the face appears to be a typical example of its gender. Nonbinary means that the face does not conform to any particular gender norms.,KJ,,,,,,,,,,,,,,,,,,,,,,,,,,,,,,,,4,0.9262,,,,,,,,,,,,,,0,45,45,28,1,,,,,,,,,,,,,space,0.5801,,,,,,,,,,,,,,,,,,,,,,,,,,,,,,,,,,,,,,,,,,,,,,,,,,,,,,,,,,,,,,,,,,,
,,,,042010,001,2024-02-02_19h38.05.144,fluency,2022.2.5,Win32,6.666666667,,,,,,,,,,,,,,,,,,,,,,,4,3,img/B03_04.jpg,GCNB,Press J if the face is NONBINARY and K if the face is GENDER-CONFORMING,Gender-conforming means that the face appears to be a typical example of its gender. Nonbinary means that the face does not conform to any particular gender norms.,KJ,,,,,,,,,,,,,,,,,,,,,,,,,,,,,,,,,,,,,,,,,,,,,,621.5489,0,46,46,26,1,109,0,0,0,0,1,98,,,,,,,,,,,,,,,,,,,,,,,,,,,,,,,,,,,,,,,,,,,,,,,,,,,,,,,,,,,,,,,,,,,,,,,,,,
,,,,042010,001,2024-02-02_19h38.05.144,fluency,2022.2.5,Win32,6.666666667,,,,,,,,,,,,,,,,,,,,,,,,,,,,,,,,,,,,,,,,,,,,,,,,,,,,,,,,,,,,,,,,,,,,,,,,,,,,,,,,,,0,0,0,0,1,,"[""k""]",[1.6696000001430775],1,"[""k""]",[1.669499999999971],,,,,,,,,,,,,,,,,,,,,,,,,,,,,,,,,,,,,,,,,,,,,,,,,,,,,,,,,,,,,,,,,,,,,
,,,,042010,001,2024-02-02_19h38.05.144,fluency,2022.2.5,Win32,6.666666667,,,,,,,,,,,,,,,,,,,,,,,4,3,img/B03_04.jpg,GCNB,Press J if the face is NONBINARY and K if the face is GENDER-CONFORMING,Gender-conforming means that the face appears to be a typical example of its gender. Nonbinary means that the face does not conform to any particular gender norms.,KJ,,,,,,,,,,,,,,,,,,,,,,,,,,,,,,,,6,1.4654,,,,,,,,,,,,,,0,46,46,26,1,,,,,,,,,,,,,space,0.7534,,,,,,,,,,,,,,,,,,,,,,,,,,,,,,,,,,,,,,,,,,,,,,,,,,,,,,,,,,,,,,,,,,,
,,,,042010,001,2024-02-02_19h38.05.144,fluency,2022.2.5,Win32,6.666666667,,,,,,,,,,,,,,,,,,,,,,,0,9,img/B09_00.jpg,GCNB,Press J if the face is NONBINARY and K if the face is GENDER-CONFORMING,Gender-conforming means that the face appears to be a typical example of its gender. Nonbinary means that the face does not conform to any particular gender norms.,KJ,,,,,,,,,,,,,,,,,,,,,,,,,,,,,,,,,,,,,,,,,,,,,,628.0484,0,47,47,88,1,109,0,0,0,0,1,98,,,,,,,,,,,,,,,,,,,,,,,,,,,,,,,,,,,,,,,,,,,,,,,,,,,,,,,,,,,,,,,,,,,,,,,,,,
,,,,042010,001,2024-02-02_19h38.05.144,fluency,2022.2.5,Win32,6.666666667,,,,,,,,,,,,,,,,,,,,,,,,,,,,,,,,,,,,,,,,,,,,,,,,,,,,,,,,,,,,,,,,,,,,,,,,,,,,,,,,,,0,0,0,0,1,,"[""k""]",[1.3105999999045252],1,"[""k""]",[1.3105999999045252],,,,,,,,,,,,,,,,,,,,,,,,,,,,,,,,,,,,,,,,,,,,,,,,,,,,,,,,,,,,,,,,,,,,,
,,,,042010,001,2024-02-02_19h38.05.144,fluency,2022.2.5,Win32,6.666666667,,,,,,,,,,,,,,,,,,,,,,,0,9,img/B09_00.jpg,GCNB,Press J if the face is NONBINARY and K if the face is GENDER-CONFORMING,Gender-conforming means that the face appears to be a typical example of its gender. Nonbinary means that the face does not conform to any particular gender norms.,KJ,,,,,,,,,,,,,,,,,,,,,,,,,,,,,,,,4,0.585,,,,,,,,,,,,,,0,47,47,88,1,,,,,,,,,,,,,space,0.9677,,,,,,,,,,,,,,,,,,,,,,,,,,,,,,,,,,,,,,,,,,,,,,,,,,,,,,,,,,,,,,,,,,,
,,,,042010,001,2024-02-02_19h38.05.144,fluency,2022.2.5,Win32,6.666666667,,,,,,,,,,,,,,,,,,,,,,,6,1,img/B01_06.jpg,GCNB,Press J if the face is NONBINARY and K if the face is GENDER-CONFORMING,Gender-conforming means that the face appears to be a typical example of its gender. Nonbinary means that the face does not conform to any particular gender norms.,KJ,,,,,,,,,,,,,,,,,,,,,,,,,,,,,,,,,,,,,,,,,,,,,,634.1057,0,48,48,6,1,109,0,0,0,0,1,98,,,,,,,,,,,,,,,,,,,,,,,,,,,,,,,,,,,,,,,,,,,,,,,,,,,,,,,,,,,,,,,,,,,,,,,,,,
,,,,042010,001,2024-02-02_19h38.05.144,fluency,2022.2.5,Win32,6.666666667,,,,,,,,,,,,,,,,,,,,,,,,,,,,,,,,,,,,,,,,,,,,,,,,,,,,,,,,,,,,,,,,,,,,,,,,,,,,,,,,,,0,0,0,0,1,,"[""j""]",[1.3215999999047199],1,"[""j""]",[1.3215000000000146],,,,,,,,,,,,,,,,,,,,,,,,,,,,,,,,,,,,,,,,,,,,,,,,,,,,,,,,,,,,,,,,,,,,,
,,,,042010,001,2024-02-02_19h38.05.144,fluency,2022.2.5,Win32,6.666666667,,,,,,,,,,,,,,,,,,,,,,,6,1,img/B01_06.jpg,GCNB,Press J if the face is NONBINARY and K if the face is GENDER-CONFORMING,Gender-conforming means that the face appears to be a typical example of its gender. Nonbinary means that the face does not conform to any particular gender norms.,KJ,,,,,,,,,,,,,,,,,,,,,,,,,,,,,,,,2,1.4764,,,,,,,,,,,,,,0,48,48,6,1,,,,,,,,,,,,,space,0.7732,,,,,,,,,,,,,,,,,,,,,,,,,,,,,,,,,,,,,,,,,,,,,,,,,,,,,,,,,,,,,,,,,,,
,,,,042010,001,2024-02-02_19h38.05.144,fluency,2022.2.5,Win32,6.666666667,,,,,,,,,,,,,,,,,,,,,,,2,9,img/B09_02.jpg,GCNB,Press J if the face is NONBINARY and K if the face is GENDER-CONFORMING,Gender-conforming means that the face appears to be a typical example of its gender. Nonbinary means that the face does not conform to any particular gender norms.,KJ,,,,,,,,,,,,,,,,,,,,,,,,,,,,,,,,,,,,,,,,,,,,,,641.7873,0,49,49,90,1,109,0,0,0,0,1,98,,,,,,,,,,,,,,,,,,,,,,,,,,,,,,,,,,,,,,,,,,,,,,,,,,,,,,,,,,,,,,,,,,,,,,,,,,
,,,,042010,001,2024-02-02_19h38.05.144,fluency,2022.2.5,Win32,6.666666667,,,,,,,,,,,,,,,,,,,,,,,,,,,,,,,,,,,,,,,,,,,,,,,,,,,,,,,,,,,,,,,,,,,,,,,,,,,,,,,,,,0,0,0,0,1,,"[""k""]",[1.8805000000000973],1,"[""k""]",[1.8803999998569907],,,,,,,,,,,,,,,,,,,,,,,,,,,,,,,,,,,,,,,,,,,,,,,,,,,,,,,,,,,,,,,,,,,,,
,,,,042010,001,2024-02-02_19h38.05.144,fluency,2022.2.5,Win32,6.666666667,,,,,,,,,,,,,,,,,,,,,,,2,9,img/B09_02.jpg,GCNB,Press J if the face is NONBINARY and K if the face is GENDER-CONFORMING,Gender-conforming means that the face appears to be a typical example of its gender. Nonbinary means that the face does not conform to any particular gender norms.,KJ,,,,,,,,,,,,,,,,,,,,,,,,,,,,,,,,3,1.2858,,,,,,,,,,,,,,0,49,49,90,1,,,,,,,,,,,,,space,0.7733,,,,,,,,,,,,,,,,,,,,,,,,,,,,,,,,,,,,,,,,,,,,,,,,,,,,,,,,,,,,,,,,,,,
,,,,042010,001,2024-02-02_19h38.05.144,fluency,2022.2.5,Win32,6.666666667,,,,,,,,,,,,,,,,,,,,,,,3,8,img/B08_03.jpg,GCNB,Press J if the face is NONBINARY and K if the face is GENDER-CONFORMING,Gender-conforming means that the face appears to be a typical example of its gender. Nonbinary means that the face does not conform to any particular gender norms.,KJ,,,,,,,,,,,,,,,,,,,,,,,,,,,,,,,,,,,,,,,,,,,,,,649.1562,0,50,50,80,1,109,0,0,0,0,1,98,,,,,,,,,,,,,,,,,,,,,,,,,,,,,,,,,,,,,,,,,,,,,,,,,,,,,,,,,,,,,,,,,,,,,,,,,,
,,,,042010,001,2024-02-02_19h38.05.144,fluency,2022.2.5,Win32,6.666666667,,,,,,,,,,,,,,,,,,,,,,,,,,,,,,,,,,,,,,,,,,,,,,,,,,,,,,,,,,,,,,,,,,,,,,,,,,,,,,,,,,0,0,0,0,1,,"[""j""]",[2.0494999999999663],1,"[""j""]",[2.0494000000953747],,,,,,,,,,,,,,,,,,,,,,,,,,,,,,,,,,,,,,,,,,,,,,,,,,,,,,,,,,,,,,,,,,,,,
,,,,042010,001,2024-02-02_19h38.05.144,fluency,2022.2.5,Win32,6.666666667,,,,,,,,,,,,,,,,,,,,,,,3,8,img/B08_03.jpg,GCNB,Press J if the face is NONBINARY and K if the face is GENDER-CONFORMING,Gender-conforming means that the face appears to be a typical example of its gender. Nonbinary means that the face does not conform to any particular gender norms.,KJ,,,,,,,,,,,,,,,,,,,,,,,,,,,,,,,,1,2.2047,,,,,,,,,,,,,,0,50,50,80,1,,,,,,,,,,,,,space,0.5765,,,,,,,,,,,,,,,,,,,,,,,,,,,,,,,,,,,,,,,,,,,,,,,,,,,,,,,,,,,,,,,,,,,
,,,,042010,001,2024-02-02_19h38.05.144,fluency,2022.2.5,Win32,6.666666667,,,,,,,,,,,,,,,,,,,,,,,1,7,img/B07_01.jpg,GCNB,Press J if the face is NONBINARY and K if the face is GENDER-CONFORMING,Gender-conforming means that the face appears to be a typical example of its gender. Nonbinary means that the face does not conform to any particular gender norms.,KJ,,,,,,,,,,,,,,,,,,,,,,,,,,,,,,,,,,,,,,,,,,,,,,657.2477,0,51,51,67,1,109,0,0,0,0,1,98,,,,,,,,,,,,,,,,,,,,,,,,,,,,,,,,,,,,,,,,,,,,,,,,,,,,,,,,,,,,,,,,,,,,,,,,,,
,,,,042010,001,2024-02-02_19h38.05.144,fluency,2022.2.5,Win32,6.666666667,,,,,,,,,,,,,,,,,,,,,,,,,,,,,,,,,,,,,,,,,,,,,,,,,,,,,,,,,,,,,,,,,,,,,,,,,,,,,,,,,,0,0,0,0,1,,"[""k""]",[1.3282999999522644],1,"[""k""]",[1.3282000000476728],,,,,,,,,,,,,,,,,,,,,,,,,,,,,,,,,,,,,,,,,,,,,,,,,,,,,,,,,,,,,,,,,,,,,
,,,,042010,001,2024-02-02_19h38.05.144,fluency,2022.2.5,Win32,6.666666667,,,,,,,,,,,,,,,,,,,,,,,1,7,img/B07_01.jpg,GCNB,Press J if the face is NONBINARY and K if the face is GENDER-CONFORMING,Gender-conforming means that the face appears to be a typical example of its gender. Nonbinary means that the face does not conform to any particular gender norms.,KJ,,,,,,,,,,,,,,,,,,,,,,,,,,,,,,,,6,2.2069,,,,,,,,,,,,,,0,51,51,67,1,,,,,,,,,,,,,space,1.1028,,,,,,,,,,,,,,,,,,,,,,,,,,,,,,,,,,,,,,,,,,,,,,,,,,,,,,,,,,,,,,,,,,,
,,,,042010,001,2024-02-02_19h38.05.144,fluency,2022.2.5,Win32,6.666666667,,,,,,,,,,,,,,,,,,,,,,,10,5,img/B05_10.jpg,GCNB,Press J if the face is NONBINARY and K if the face is GENDER-CONFORMING,Gender-conforming means that the face appears to be a typical example of its gender. Nonbinary means that the face does not conform to any particular gender norms.,KJ,,,,,,,,,,,,,,,,,,,,,,,,,,,,,,,,,,,,,,,,,,,,,,665.8901,0,52,52,54,1,109,0,0,0,0,1,98,,,,,,,,,,,,,,,,,,,,,,,,,,,,,,,,,,,,,,,,,,,,,,,,,,,,,,,,,,,,,,,,,,,,,,,,,,
,,,,042010,001,2024-02-02_19h38.05.144,fluency,2022.2.5,Win32,6.666666667,,,,,,,,,,,,,,,,,,,,,,,,,,,,,,,,,,,,,,,,,,,,,,,,,,,,,,,,,,,,,,,,,,,,,,,,,,,,,,,,,,0,0,0,0,1,,"[""k""]",[1.5016999998092615],1,"[""k""]",[1.5016999998092615],,,,,,,,,,,,,,,,,,,,,,,,,,,,,,,,,,,,,,,,,,,,,,,,,,,,,,,,,,,,,,,,,,,,,
,,,,042010,001,2024-02-02_19h38.05.144,fluency,2022.2.5,Win32,6.666666667,,,,,,,,,,,,,,,,,,,,,,,10,5,img/B05_10.jpg,GCNB,Press J if the face is NONBINARY and K if the face is GENDER-CONFORMING,Gender-conforming means that the face appears to be a typical example of its gender. Nonbinary means that the face does not conform to any particular gender norms.,KJ,,,,,,,,,,,,,,,,,,,,,,,,,,,,,,,,3,2.7791,,,,,,,,,,,,,,0,52,52,54,1,,,,,,,,,,,,,space,2.2335,,,,,,,,,,,,,,,,,,,,,,,,,,,,,,,,,,,,,,,,,,,,,,,,,,,,,,,,,,,,,,,,,,,
,,,,042010,001,2024-02-02_19h38.05.144,fluency,2022.2.5,Win32,6.666666667,,,,,,,,,,,,,,,,,,,,,,,4,1,img/B01_04.jpg,GCNB,Press J if the face is NONBINARY and K if the face is GENDER-CONFORMING,Gender-conforming means that the face appears to be a typical example of its gender. Nonbinary means that the face does not conform to any particular gender norms.,KJ,,,,,,,,,,,,,,,,,,,,,,,,,,,,,,,,,,,,,,,,,,,,,,675.3638,0,53,53,4,1,109,0,0,0,0,1,98,,,,,,,,,,,,,,,,,,,,,,,,,,,,,,,,,,,,,,,,,,,,,,,,,,,,,,,,,,,,,,,,,,,,,,,,,,
,,,,042010,001,2024-02-02_19h38.05.144,fluency,2022.2.5,Win32,6.666666667,,,,,,,,,,,,,,,,,,,,,,,,,,,,,,,,,,,,,,,,,,,,,,,,,,,,,,,,,,,,,,,,,,,,,,,,,,,,,,,,,,0,0,0,0,1,,,,1,,,,,,,,,,,,,,,,,,,,,,,,,,,,,,,,,,,,,,,,,,,,,,,,,,,,,,,,,,,,,,,,,,,,,,,
,,,,042010,001,2024-02-02_19h38.05.144,fluency,2022.2.5,Win32,6.666666667,,,,,,,,,,,,,,,,,,,,,,,4,1,img/B01_04.jpg,GCNB,Press J if the face is NONBINARY and K if the face is GENDER-CONFORMING,Gender-conforming means that the face appears to be a typical example of its gender. Nonbinary means that the face does not conform to any particular gender norms.,KJ,,,,,,,,,,,,,,,,,,,,,,,,,,,,,,,,4,2.3761,,,,,,,,,,,,,,0,53,53,4,1,,,,,,,,,,,,,space,0.9305,,,,,,,,,,,,,,,,,,,,,,,,,,,,,,,,,,,,,,,,,,,,,,,,,,,,,,,,,,,,,,,,,,,
,,,,042010,001,2024-02-02_19h38.05.144,fluency,2022.2.5,Win32,6.666666667,,,,,,,,,,,,,,,,,,,,,,,3,3,img/B03_03.jpg,GCNB,Press J if the face is NONBINARY and K if the face is GENDER-CONFORMING,Gender-conforming means that the face appears to be a typical example of its gender. Nonbinary means that the face does not conform to any particular gender norms.,KJ,,,,,,,,,,,,,,,,,,,,,,,,,,,,,,,,,,,,,,,,,,,,,,683.9284,0,54,54,25,1,109,0,0,0,0,1,98,,,,,,,,,,,,,,,,,,,,,,,,,,,,,,,,,,,,,,,,,,,,,,,,,,,,,,,,,,,,,,,,,,,,,,,,,,
,,,,042010,001,2024-02-02_19h38.05.144,fluency,2022.2.5,Win32,6.666666667,,,,,,,,,,,,,,,,,,,,,,,,,,,,,,,,,,,,,,,,,,,,,,,,,,,,,,,,,,,,,,,,,,,,,,,,,,,,,,,,,,0,0,0,0,1,,"[""k""]",[1.678100000143104],1,"[""j"",""k""]","[-5.736499999999978,1.6779999999999973]",,,,,,,,,,,,,,,,,,,,,,,,,,,,,,,,,,,,,,,,,,,,,,,,,,,,,,,,,,,,,,,,,,,,,
,,,,042010,001,2024-02-02_19h38.05.144,fluency,2022.2.5,Win32,6.666666667,,,,,,,,,,,,,,,,,,,,,,,3,3,img/B03_03.jpg,GCNB,Press J if the face is NONBINARY and K if the face is GENDER-CONFORMING,Gender-conforming means that the face appears to be a typical example of its gender. Nonbinary means that the face does not conform to any particular gender norms.,KJ,,,,,,,,,,,,,,,,,,,,,,,,,,,,,,,,6,1.4799,,,,,,,,,,,,,,0,54,54,25,1,,,,,,,,,,,,,space,0.9341,,,,,,,,,,,,,,,,,,,,,,,,,,,,,,,,,,,,,,,,,,,,,,,,,,,,,,,,,,,,,,,,,,,
,,,,042010,001,2024-02-02_19h38.05.144,fluency,2022.2.5,Win32,6.666666667,,,,,,,,,,,,,,,,,,,,,,,6,6,img/B06_06.jpg,GCNB,Press J if the face is NONBINARY and K if the face is GENDER-CONFORMING,Gender-conforming means that the face appears to be a typical example of its gender. Nonbinary means that the face does not conform to any particular gender norms.,KJ,,,,,,,,,,,,,,,,,,,,,,,,,,,,,,,,,,,,,,,,,,,,,,690.7706,0,55,55,61,1,109,0,0,0,0,1,98,,,,,,,,,,,,,,,,,,,,,,,,,,,,,,,,,,,,,,,,,,,,,,,,,,,,,,,,,,,,,,,,,,,,,,,,,,
,,,,042010,001,2024-02-02_19h38.05.144,fluency,2022.2.5,Win32,6.666666667,,,,,,,,,,,,,,,,,,,,,,,,,,,,,,,,,,,,,,,,,,,,,,,,,,,,,,,,,,,,,,,,,,,,,,,,,,,,,,,,,,0,0,0,0,1,,"[""j""]",[2.2330999999046526],1,"[""j""]",[2.2329999999999472],,,,,,,,,,,,,,,,,,,,,,,,,,,,,,,,,,,,,,,,,,,,,,,,,,,,,,,,,,,,,,,,,,,,,
,,,,042010,001,2024-02-02_19h38.05.144,fluency,2022.2.5,Win32,6.666666667,,,,,,,,,,,,,,,,,,,,,,,6,6,img/B06_06.jpg,GCNB,Press J if the face is NONBINARY and K if the face is GENDER-CONFORMING,Gender-conforming means that the face appears to be a typical example of its gender. Nonbinary means that the face does not conform to any particular gender norms.,KJ,,,,,,,,,,,,,,,,,,,,,,,,,,,,,,,,3,1.0976,,,,,,,,,,,,,,0,55,55,61,1,,,,,,,,,,,,,space,0.5725,,,,,,,,,,,,,,,,,,,,,,,,,,,,,,,,,,,,,,,,,,,,,,,,,,,,,,,,,,,,,,,,,,,
,,,,042010,001,2024-02-02_19h38.05.144,fluency,2022.2.5,Win32,6.666666667,,,,,,,,,,,,,,,,,,,,,,,3,10,img/B10_03.jpg,GCNB,Press J if the face is NONBINARY and K if the face is GENDER-CONFORMING,Gender-conforming means that the face appears to be a typical example of its gender. Nonbinary means that the face does not conform to any particular gender norms.,KJ,,,,,,,,,,,,,,,,,,,,,,,,,,,,,,,,,,,,,,,,,,,,,,697.9007,0,56,56,102,1,109,0,0,0,0,1,98,,,,,,,,,,,,,,,,,,,,,,,,,,,,,,,,,,,,,,,,,,,,,,,,,,,,,,,,,,,,,,,,,,,,,,,,,,
,,,,042010,001,2024-02-02_19h38.05.144,fluency,2022.2.5,Win32,6.666666667,,,,,,,,,,,,,,,,,,,,,,,,,,,,,,,,,,,,,,,,,,,,,,,,,,,,,,,,,,,,,,,,,,,,,,,,,,,,,,,,,,0,0,0,0,1,,"[""k""]",[1.6921999998091906],1,"[""k""]",[1.6920000000000073],,,,,,,,,,,,,,,,,,,,,,,,,,,,,,,,,,,,,,,,,,,,,,,,,,,,,,,,,,,,,,,,,,,,,
,,,,042010,001,2024-02-02_19h38.05.144,fluency,2022.2.5,Win32,6.666666667,,,,,,,,,,,,,,,,,,,,,,,3,10,img/B10_03.jpg,GCNB,Press J if the face is NONBINARY and K if the face is GENDER-CONFORMING,Gender-conforming means that the face appears to be a typical example of its gender. Nonbinary means that the face does not conform to any particular gender norms.,KJ,,,,,,,,,,,,,,,,,,,,,,,,,,,,,,,,7,1.2802,,,,,,,,,,,,,,0,56,56,102,1,,,,,,,,,,,,,space,0.9387,,,,,,,,,,,,,,,,,,,,,,,,,,,,,,,,,,,,,,,,,,,,,,,,,,,,,,,,,,,,,,,,,,,
,,,,042010,001,2024-02-02_19h38.05.144,fluency,2022.2.5,Win32,6.666666667,,,,,,,,,,,,,,,,,,,,,,,5,3,img/B03_05.jpg,GCNB,Press J if the face is NONBINARY and K if the face is GENDER-CONFORMING,Gender-conforming means that the face appears to be a typical example of its gender. Nonbinary means that the face does not conform to any particular gender norms.,KJ,,,,,,,,,,,,,,,,,,,,,,,,,,,,,,,,,,,,,,,,,,,,,,705.4154,0,57,57,27,1,109,0,0,0,0,1,98,,,,,,,,,,,,,,,,,,,,,,,,,,,,,,,,,,,,,,,,,,,,,,,,,,,,,,,,,,,,,,,,,,,,,,,,,,
,,,,042010,001,2024-02-02_19h38.05.144,fluency,2022.2.5,Win32,6.666666667,,,,,,,,,,,,,,,,,,,,,,,,,,,,,,,,,,,,,,,,,,,,,,,,,,,,,,,,,,,,,,,,,,,,,,,,,,,,,,,,,,0,0,0,0,1,,"[""j""]",[1.8837999999523163],1,"[""j""]",[1.8837999999523163],,,,,,,,,,,,,,,,,,,,,,,,,,,,,,,,,,,,,,,,,,,,,,,,,,,,,,,,,,,,,,,,,,,,,
,,,,042010,001,2024-02-02_19h38.05.144,fluency,2022.2.5,Win32,6.666666667,,,,,,,,,,,,,,,,,,,,,,,5,3,img/B03_05.jpg,GCNB,Press J if the face is NONBINARY and K if the face is GENDER-CONFORMING,Gender-conforming means that the face appears to be a typical example of its gender. Nonbinary means that the face does not conform to any particular gender norms.,KJ,,,,,,,,,,,,,,,,,,,,,,,,,,,,,,,,4,0.7399,,,,,,,,,,,,,,0,57,57,27,1,,,,,,,,,,,,,space,0.7479,,,,,,,,,,,,,,,,,,,,,,,,,,,,,,,,,,,,,,,,,,,,,,,,,,,,,,,,,,,,,,,,,,,
,,,,042010,001,2024-02-02_19h38.05.144,fluency,2022.2.5,Win32,6.666666667,,,,,,,,,,,,,,,,,,,,,,,9,8,img/B08_09.jpg,GCNB,Press J if the face is NONBINARY and K if the face is GENDER-CONFORMING,Gender-conforming means that the face appears to be a typical example of its gender. Nonbinary means that the face does not conform to any particular gender norms.,KJ,,,,,,,,,,,,,,,,,,,,,,,,,,,,,,,,,,,,,,,,,,,,,,712.2345,0,58,58,86,1,109,0,0,0,0,1,98,,,,,,,,,,,,,,,,,,,,,,,,,,,,,,,,,,,,,,,,,,,,,,,,,,,,,,,,,,,,,,,,,,,,,,,,,,
,,,,042010,001,2024-02-02_19h38.05.144,fluency,2022.2.5,Win32,6.666666667,,,,,,,,,,,,,,,,,,,,,,,,,,,,,,,,,,,,,,,,,,,,,,,,,,,,,,,,,,,,,,,,,,,,,,,,,,,,,,,,,,0,0,0,0,1,,"[""k""]",[1.9070999999046307],1,"[""k""]",[1.907000000000039],,,,,,,,,,,,,,,,,,,,,,,,,,,,,,,,,,,,,,,,,,,,,,,,,,,,,,,,,,,,,,,,,,,,,
,,,,042010,001,2024-02-02_19h38.05.144,fluency,2022.2.5,Win32,6.666666667,,,,,,,,,,,,,,,,,,,,,,,9,8,img/B08_09.jpg,GCNB,Press J if the face is NONBINARY and K if the face is GENDER-CONFORMING,Gender-conforming means that the face appears to be a typical example of its gender. Nonbinary means that the face does not conform to any particular gender norms.,KJ,,,,,,,,,,,,,,,,,,,,,,,,,,,,,,,,4,1.1018,,,,,,,,,,,,,,0,58,58,86,1,,,,,,,,,,,,,space,0.5629,,,,,,,,,,,,,,,,,,,,,,,,,,,,,,,,,,,,,,,,,,,,,,,,,,,,,,,,,,,,,,,,,,,
,,,,042010,001,2024-02-02_19h38.05.144,fluency,2022.2.5,Win32,6.666666667,,,,,,,,,,,,,,,,,,,,,,,2,8,img/B08_02.jpg,GCNB,Press J if the face is NONBINARY and K if the face is GENDER-CONFORMING,Gender-conforming means that the face appears to be a typical example of its gender. Nonbinary means that the face does not conform to any particular gender norms.,KJ,,,,,,,,,,,,,,,,,,,,,,,,,,,,,,,,,,,,,,,,,,,,,,718.3507,0,59,59,79,1,109,0,0,0,0,1,98,,,,,,,,,,,,,,,,,,,,,,,,,,,,,,,,,,,,,,,,,,,,,,,,,,,,,,,,,,,,,,,,,,,,,,,,,,
,,,,042010,001,2024-02-02_19h38.05.144,fluency,2022.2.5,Win32,6.666666667,,,,,,,,,,,,,,,,,,,,,,,,,,,,,,,,,,,,,,,,,,,,,,,,,,,,,,,,,,,,,,,,,,,,,,,,,,,,,,,,,,0,0,0,0,1,,"[""j""]",[2.0580999999045844],1,"[""j""]",[2.0580999999045844],,,,,,,,,,,,,,,,,,,,,,,,,,,,,,,,,,,,,,,,,,,,,,,,,,,,,,,,,,,,,,,,,,,,,
,,,,042010,001,2024-02-02_19h38.05.144,fluency,2022.2.5,Win32,6.666666667,,,,,,,,,,,,,,,,,,,,,,,2,8,img/B08_02.jpg,GCNB,Press J if the face is NONBINARY and K if the face is GENDER-CONFORMING,Gender-conforming means that the face appears to be a typical example of its gender. Nonbinary means that the face does not conform to any particular gender norms.,KJ,,,,,,,,,,,,,,,,,,,,,,,,,,,,,,,,2,0.5807,,,,,,,,,,,,,,0,59,59,79,1,,,,,,,,,,,,,space,0.7948,,,,,,,,,,,,,,,,,,,,,,,,,,,,,,,,,,,,,,,,,,,,,,,,,,,,,,,,,,,,,,,,,,,
,,,,042010,001,2024-02-02_19h38.05.144,fluency,2022.2.5,Win32,6.666666667,,,,,,,,,,,,,,,,,,,,,,,5,1,img/B01_05.jpg,GCNB,Press J if the face is NONBINARY and K if the face is GENDER-CONFORMING,Gender-conforming means that the face appears to be a typical example of its gender. Nonbinary means that the face does not conform to any particular gender norms.,KJ,,,,,,,,,,,,,,,,,,,,,,,,,,,,,,,,,,,,,,,,,,,,,,725.1374,0,60,60,5,1,109,0,0,0,0,1,98,,,,,,,,,,,,,,,,,,,,,,,,,,,,,,,,,,,,,,,,,,,,,,,,,,,,,,,,,,,,,,,,,,,,,,,,,,
,,,,042010,001,2024-02-02_19h38.05.144,fluency,2022.2.5,Win32,6.666666667,,,,,,,,,,,,,,,,,,,,,,,,,,,,,,,,,,,,,,,,,,,,,,,,,,,,,,,,,,,,,,,,,,,,,,,,,,,,,,,,,,0,0,0,0,1,,"[""j""]",[1.7737999999523026],1,"[""j""]",[1.773700000047711],,,,,,,,,,,,,,,,,,,,,,,,,,,,,,,,,,,,,,,,,,,,,,,,,,,,,,,,,,,,,,,,,,,,,
,,,,042010,001,2024-02-02_19h38.05.144,fluency,2022.2.5,Win32,6.666666667,,,,,,,,,,,,,,,,,,,,,,,5,1,img/B01_05.jpg,GCNB,Press J if the face is NONBINARY and K if the face is GENDER-CONFORMING,Gender-conforming means that the face appears to be a typical example of its gender. Nonbinary means that the face does not conform to any particular gender norms.,KJ,,,,,,,,,,,,,,,,,,,,,,,,,,,,,,,,3,1.0198,,,,,,,,,,,,,,0,60,60,5,1,,,,,,,,,,,,,space,0.7981,,,,,,,,,,,,,,,,,,,,,,,,,,,,,,,,,,,,,,,,,,,,,,,,,,,,,,,,,,,,,,,,,,,
,,,,042010,001,2024-02-02_19h38.05.144,fluency,2022.2.5,Win32,6.666666667,,,,,,,,,,,,,,,,,,,,,,,0,7,img/B07_00.jpg,GCNB,Press J if the face is NONBINARY and K if the face is GENDER-CONFORMING,Gender-conforming means that the face appears to be a typical example of its gender. Nonbinary means that the face does not conform to any particular gender norms.,KJ,,,,,,,,,,,,,,,,,,,,,,,,,,,,,,,,,,,,,,,,,,,,,,732.3679,0,61,61,66,1,109,0,0,0,0,1,98,,,,,,,,,,,,,,,,,,,,,,,,,,,,,,,,,,,,,,,,,,,,,,,,,,,,,,,,,,,,,,,,,,,,,,,,,,
,,,,042010,001,2024-02-02_19h38.05.144,fluency,2022.2.5,Win32,6.666666667,,,,,,,,,,,,,,,,,,,,,,,,,,,,,,,,,,,,,,,,,,,,,,,,,,,,,,,,,,,,,,,,,,,,,,,,,,,,,,,,,,0,0,0,0,1,,"[""k""]",[1.3715999999046744],1,"[""k""]",[1.371499999999969],,,,,,,,,,,,,,,,,,,,,,,,,,,,,,,,,,,,,,,,,,,,,,,,,,,,,,,,,,,,,,,,,,,,,
,,,,042010,001,2024-02-02_19h38.05.144,fluency,2022.2.5,Win32,6.666666667,,,,,,,,,,,,,,,,,,,,,,,0,7,img/B07_00.jpg,GCNB,Press J if the face is NONBINARY and K if the face is GENDER-CONFORMING,Gender-conforming means that the face appears to be a typical example of its gender. Nonbinary means that the face does not conform to any particular gender norms.,KJ,,,,,,,,,,,,,,,,,,,,,,,,,,,,,,,,8,1.1214,,,,,,,,,,,,,,0,61,61,66,1,,,,,,,,,,,,,space,1.8757,,,,,,,,,,,,,,,,,,,,,,,,,,,,,,,,,,,,,,,,,,,,,,,,,,,,,,,,,,,,,,,,,,,
,,,,042010,001,2024-02-02_19h38.05.144,fluency,2022.2.5,Win32,6.666666667,,,,,,,,,,,,,,,,,,,,,,,0,4,img/B04_00.jpg,GCNB,Press J if the face is NONBINARY and K if the face is GENDER-CONFORMING,Gender-conforming means that the face appears to be a typical example of its gender. Nonbinary means that the face does not conform to any particular gender norms.,KJ,,,,,,,,,,,,,,,,,,,,,,,,,,,,,,,,,,,,,,,,,,,,,,739.7889,0,62,62,33,1,109,0,0,0,0,1,98,,,,,,,,,,,,,,,,,,,,,,,,,,,,,,,,,,,,,,,,,,,,,,,,,,,,,,,,,,,,,,,,,,,,,,,,,,
,,,,042010,001,2024-02-02_19h38.05.144,fluency,2022.2.5,Win32,6.666666667,,,,,,,,,,,,,,,,,,,,,,,,,,,,,,,,,,,,,,,,,,,,,,,,,,,,,,,,,,,,,,,,,,,,,,,,,,,,,,,,,,0,0,0,0,1,,"[""k""]",[1.476100000142992],1,"[""k""]",[1.475999999999999],,,,,,,,,,,,,,,,,,,,,,,,,,,,,,,,,,,,,,,,,,,,,,,,,,,,,,,,,,,,,,,,,,,,,
,,,,042010,001,2024-02-02_19h38.05.144,fluency,2022.2.5,Win32,6.666666667,,,,,,,,,,,,,,,,,,,,,,,0,4,img/B04_00.jpg,GCNB,Press J if the face is NONBINARY and K if the face is GENDER-CONFORMING,Gender-conforming means that the face appears to be a typical example of its gender. Nonbinary means that the face does not conform to any particular gender norms.,KJ,,,,,,,,,,,,,,,,,,,,,,,,,,,,,,,,6,1.2783,,,,,,,,,,,,,,0,62,62,33,1,,,,,,,,,,,,,space,1.1207,,,,,,,,,,,,,,,,,,,,,,,,,,,,,,,,,,,,,,,,,,,,,,,,,,,,,,,,,,,,,,,,,,,
,,,,042010,001,2024-02-02_19h38.05.144,fluency,2022.2.5,Win32,6.666666667,,,,,,,,,,,,,,,,,,,,,,,5,2,img/B02_05.jpg,GCNB,Press J if the face is NONBINARY and K if the face is GENDER-CONFORMING,Gender-conforming means that the face appears to be a typical example of its gender. Nonbinary means that the face does not conform to any particular gender norms.,KJ,,,,,,,,,,,,,,,,,,,,,,,,,,,,,,,,,,,,,,,,,,,,,,746.6012,0,63,63,16,1,109,0,0,0,0,1,98,,,,,,,,,,,,,,,,,,,,,,,,,,,,,,,,,,,,,,,,,,,,,,,,,,,,,,,,,,,,,,,,,,,,,,,,,,
,,,,042010,001,2024-02-02_19h38.05.144,fluency,2022.2.5,Win32,6.666666667,,,,,,,,,,,,,,,,,,,,,,,,,,,,,,,,,,,,,,,,,,,,,,,,,,,,,,,,,,,,,,,,,,,,,,,,,,,,,,,,,,0,0,0,0,1,,"[""j""]",[1.8702999999522945],1,"[""j""]",[1.8702999999522945],,,,,,,,,,,,,,,,,,,,,,,,,,,,,,,,,,,,,,,,,,,,,,,,,,,,,,,,,,,,,,,,,,,,,
,,,,042010,001,2024-02-02_19h38.05.144,fluency,2022.2.5,Win32,6.666666667,,,,,,,,,,,,,,,,,,,,,,,5,2,img/B02_05.jpg,GCNB,Press J if the face is NONBINARY and K if the face is GENDER-CONFORMING,Gender-conforming means that the face appears to be a typical example of its gender. Nonbinary means that the face does not conform to any particular gender norms.,KJ,,,,,,,,,,,,,,,,,,,,,,,,,,,,,,,,5,0.5476,,,,,,,,,,,,,,0,63,63,16,1,,,,,,,,,,,,,space,0.9264,,,,,,,,,,,,,,,,,,,,,,,,,,,,,,,,,,,,,,,,,,,,,,,,,,,,,,,,,,,,,,,,,,,
,,,,042010,001,2024-02-02_19h38.05.144,fluency,2022.2.5,Win32,6.666666667,,,,,,,,,,,,,,,,,,,,,,,4,2,img/B02_04.jpg,GCNB,Press J if the face is NONBINARY and K if the face is GENDER-CONFORMING,Gender-conforming means that the face appears to be a typical example of its gender. Nonbinary means that the face does not conform to any particular gender norms.,KJ,,,,,,,,,,,,,,,,,,,,,,,,,,,,,,,,,,,,,,,,,,,,,,753.3811,0,64,64,15,1,109,0,0,0,0,1,98,,,,,,,,,,,,,,,,,,,,,,,,,,,,,,,,,,,,,,,,,,,,,,,,,,,,,,,,,,,,,,,,,,,,,,,,,,
,,,,042010,001,2024-02-02_19h38.05.144,fluency,2022.2.5,Win32,6.666666667,,,,,,,,,,,,,,,,,,,,,,,,,,,,,,,,,,,,,,,,,,,,,,,,,,,,,,,,,,,,,,,,,,,,,,,,,,,,,,,,,,0,0,0,0,1,,,,1,,,,,,,,,,,,,,,,,,,,,,,,,,,,,,,,,,,,,,,,,,,,,,,,,,,,,,,,,,,,,,,,,,,,,,,
,,,,042010,001,2024-02-02_19h38.05.144,fluency,2022.2.5,Win32,6.666666667,,,,,,,,,,,,,,,,,,,,,,,4,2,img/B02_04.jpg,GCNB,Press J if the face is NONBINARY and K if the face is GENDER-CONFORMING,Gender-conforming means that the face appears to be a typical example of its gender. Nonbinary means that the face does not conform to any particular gender norms.,KJ,,,,,,,,,,,,,,,,,,,,,,,,,,,,,,,,5,1.2899,,,,,,,,,,,,,,0,64,64,15,1,,,,,,,,,,,,,space,1.1253,,,,,,,,,,,,,,,,,,,,,,,,,,,,,,,,,,,,,,,,,,,,,,,,,,,,,,,,,,,,,,,,,,,
,,,,042010,001,2024-02-02_19h38.05.144,fluency,2022.2.5,Win32,6.666666667,,,,,,,,,,,,,,,,,,,,,,,8,10,img/B10_08.jpg,GCNB,Press J if the face is NONBINARY and K if the face is GENDER-CONFORMING,Gender-conforming means that the face appears to be a typical example of its gender. Nonbinary means that the face does not conform to any particular gender norms.,KJ,,,,,,,,,,,,,,,,,,,,,,,,,,,,,,,,,,,,,,,,,,,,,,760.3248,0,65,65,107,1,109,0,0,0,0,1,98,,,,,,,,,,,,,,,,,,,,,,,,,,,,,,,,,,,,,,,,,,,,,,,,,,,,,,,,,,,,,,,,,,,,,,,,,,
,,,,042010,001,2024-02-02_19h38.05.144,fluency,2022.2.5,Win32,6.666666667,,,,,,,,,,,,,,,,,,,,,,,,,,,,,,,,,,,,,,,,,,,,,,,,,,,,,,,,,,,,,,,,,,,,,,,,,,,,,,,,,,0,0,0,0,1,,"[""k""]",[1.4842999999523272],1,"[""k""]",[1.4843000001907285],,,,,,,,,,,,,,,,,,,,,,,,,,,,,,,,,,,,,,,,,,,,,,,,,,,,,,,,,,,,,,,,,,,,,
,,,,042010,001,2024-02-02_19h38.05.144,fluency,2022.2.5,Win32,6.666666667,,,,,,,,,,,,,,,,,,,,,,,8,10,img/B10_08.jpg,GCNB,Press J if the face is NONBINARY and K if the face is GENDER-CONFORMING,Gender-conforming means that the face appears to be a typical example of its gender. Nonbinary means that the face does not conform to any particular gender norms.,KJ,,,,,,,,,,,,,,,,,,,,,,,,,,,,,,,,4,1.2819,,,,,,,,,,,,,,0,65,65,107,1,,,,,,,,,,,,,space,0.7563,,,,,,,,,,,,,,,,,,,,,,,,,,,,,,,,,,,,,,,,,,,,,,,,,,,,,,,,,,,,,,,,,,,
,,,,042010,001,2024-02-02_19h38.05.144,fluency,2022.2.5,Win32,6.666666667,,,,,,,,,,,,,,,,,,,,,,,9,4,img/B04_09.jpg,GCNB,Press J if the face is NONBINARY and K if the face is GENDER-CONFORMING,Gender-conforming means that the face appears to be a typical example of its gender. Nonbinary means that the face does not conform to any particular gender norms.,KJ,,,,,,,,,,,,,,,,,,,,,,,,,,,,,,,,,,,,,,,,,,,,,,767.6517,0,66,66,42,1,109,0,0,0,0,1,98,,,,,,,,,,,,,,,,,,,,,,,,,,,,,,,,,,,,,,,,,,,,,,,,,,,,,,,,,,,,,,,,,,,,,,,,,,
,,,,042010,001,2024-02-02_19h38.05.144,fluency,2022.2.5,Win32,6.666666667,,,,,,,,,,,,,,,,,,,,,,,,,,,,,,,,,,,,,,,,,,,,,,,,,,,,,,,,,,,,,,,,,,,,,,,,,,,,,,,,,,0,0,0,0,1,,"[""k""]",[2.609899999856907],1,"[""k""]",[2.6097999999523154],,,,,,,,,,,,,,,,,,,,,,,,,,,,,,,,,,,,,,,,,,,,,,,,,,,,,,,,,,,,,,,,,,,,,
,,,,042010,001,2024-02-02_19h38.05.144,fluency,2022.2.5,Win32,6.666666667,,,,,,,,,,,,,,,,,,,,,,,9,4,img/B04_09.jpg,GCNB,Press J if the face is NONBINARY and K if the face is GENDER-CONFORMING,Gender-conforming means that the face appears to be a typical example of its gender. Nonbinary means that the face does not conform to any particular gender norms.,KJ,,,,,,,,,,,,,,,,,,,,,,,,,,,,,,,,4,1.6595,,,,,,,,,,,,,,0,66,66,42,1,,,,,,,,,,,,,space,0.7506,,,,,,,,,,,,,,,,,,,,,,,,,,,,,,,,,,,,,,,,,,,,,,,,,,,,,,,,,,,,,,,,,,,
,,,,042010,001,2024-02-02_19h38.05.144,fluency,2022.2.5,Win32,6.666666667,,,,,,,,,,,,,,,,,,,,,,,9,5,img/B05_09.jpg,GCNB,Press J if the face is NONBINARY and K if the face is GENDER-CONFORMING,Gender-conforming means that the face appears to be a typical example of its gender. Nonbinary means that the face does not conform to any particular gender norms.,KJ,,,,,,,,,,,,,,,,,,,,,,,,,,,,,,,,,,,,,,,,,,,,,,775.4672,0,67,67,53,1,109,0,0,0,0,1,98,,,,,,,,,,,,,,,,,,,,,,,,,,,,,,,,,,,,,,,,,,,,,,,,,,,,,,,,,,,,,,,,,,,,,,,,,,
,,,,042010,001,2024-02-02_19h38.05.144,fluency,2022.2.5,Win32,6.666666667,,,,,,,,,,,,,,,,,,,,,,,,,,,,,,,,,,,,,,,,,,,,,,,,,,,,,,,,,,,,,,,,,,,,,,,,,,,,,,,,,,0,0,0,0,1,,"[""k""]",[1.8564999999999827],1,"[""k""]",[1.8564999999999827],,,,,,,,,,,,,,,,,,,,,,,,,,,,,,,,,,,,,,,,,,,,,,,,,,,,,,,,,,,,,,,,,,,,,
,,,,042010,001,2024-02-02_19h38.05.144,fluency,2022.2.5,Win32,6.666666667,,,,,,,,,,,,,,,,,,,,,,,9,5,img/B05_09.jpg,GCNB,Press J if the face is NONBINARY and K if the face is GENDER-CONFORMING,Gender-conforming means that the face appears to be a typical example of its gender. Nonbinary means that the face does not conform to any particular gender norms.,KJ,,,,,,,,,,,,,,,,,,,,,,,,,,,,,,,,4,0.5524,,,,,,,,,,,,,,0,67,67,53,1,,,,,,,,,,,,,space,0.5897,,,,,,,,,,,,,,,,,,,,,,,,,,,,,,,,,,,,,,,,,,,,,,,,,,,,,,,,,,,,,,,,,,,
,,,,042010,001,2024-02-02_19h38.05.144,fluency,2022.2.5,Win32,6.666666667,,,,,,,,,,,,,,,,,,,,,,,8,1,img/B01_08.jpg,GCNB,Press J if the face is NONBINARY and K if the face is GENDER-CONFORMING,Gender-conforming means that the face appears to be a typical example of its gender. Nonbinary means that the face does not conform to any particular gender norms.,KJ,,,,,,,,,,,,,,,,,,,,,,,,,,,,,,,,,,,,,,,,,,,,,,780.9915,0,68,68,8,1,109,0,0,0,0,1,98,,,,,,,,,,,,,,,,,,,,,,,,,,,,,,,,,,,,,,,,,,,,,,,,,,,,,,,,,,,,,,,,,,,,,,,,,,
,,,,042010,001,2024-02-02_19h38.05.144,fluency,2022.2.5,Win32,6.666666667,,,,,,,,,,,,,,,,,,,,,,,,,,,,,,,,,,,,,,,,,,,,,,,,,,,,,,,,,,,,,,,,,,,,,,,,,,,,,,,,,,0,0,0,0,1,,"[""j""]",[1.3284999999999627],1,"[""j""]",[1.3284999999999627],,,,,,,,,,,,,,,,,,,,,,,,,,,,,,,,,,,,,,,,,,,,,,,,,,,,,,,,,,,,,,,,,,,,,
,,,,042010,001,2024-02-02_19h38.05.144,fluency,2022.2.5,Win32,6.666666667,,,,,,,,,,,,,,,,,,,,,,,8,1,img/B01_08.jpg,GCNB,Press J if the face is NONBINARY and K if the face is GENDER-CONFORMING,Gender-conforming means that the face appears to be a typical example of its gender. Nonbinary means that the face does not conform to any particular gender norms.,KJ,,,,,,,,,,,,,,,,,,,,,,,,,,,,,,,,1,0.926,,,,,,,,,,,,,,0,68,68,8,1,,,,,,,,,,,,,space,0.7466,,,,,,,,,,,,,,,,,,,,,,,,,,,,,,,,,,,,,,,,,,,,,,,,,,,,,,,,,,,,,,,,,,,
,,,,042010,001,2024-02-02_19h38.05.144,fluency,2022.2.5,Win32,6.666666667,,,,,,,,,,,,,,,,,,,,,,,2,7,img/B07_02.jpg,GCNB,Press J if the face is NONBINARY and K if the face is GENDER-CONFORMING,Gender-conforming means that the face appears to be a typical example of its gender. Nonbinary means that the face does not conform to any particular gender norms.,KJ,,,,,,,,,,,,,,,,,,,,,,,,,,,,,,,,,,,,,,,,,,,,,,788.0287,0,69,69,68,1,109,0,0,0,0,1,98,,,,,,,,,,,,,,,,,,,,,,,,,,,,,,,,,,,,,,,,,,,,,,,,,,,,,,,,,,,,,,,,,,,,,,,,,,
