idTextbox.text,welcomeDone.numClicks,welcomeDone.timesOn,welcomeDone.timesOff,participant,session,date,expName,psychopyVersion,OS,frameRate,consent_advance.keys,consent_advance.rt,consent_advance_2.keys,consent_advance_2.rt,consentClick.x,consentClick.y,consentClick.leftButton,consentClick.midButton,consentClick.rightButton,consentClick.time,consentClick.clicked_name,instr_advance_3.keys,instr_advance_3.rt,spec_instr_adv.keys,spec_instr_adv.rt,spec_instr_adv2.keys,spec_instr_adv2.rt,instrLoop.thisRepN,instrLoop.thisTrialN,instrLoop.thisN,instrLoop.thisIndex,instrLoop.ran,steps,fams,face_file,cond,instr,term,key_map,attnKeyResp1.keys,attnKeyResp1.rt,q1.thisRepN,q1.thisTrialN,q1.thisN,q1.thisIndex,q1.ran,attnKeyResp2.keys,attnKeyResp2.rt,q2.thisRepN,q2.thisTrialN,q2.thisN,q2.thisIndex,q2.ran,attnKeyResp3.keys,attnKeyResp3.rt,q3.thisRepN,q3.thisTrialN,q3.thisN,q3.thisIndex,q3.ran,practiceStart.keys,practiceStart.rt,practiceResp.keys,practiceResp.rt,timesRedone,practiceRepeat.thisRepN,practiceRepeat.thisTrialN,practiceRepeat.thisN,practiceRepeat.thisIndex,practiceRepeat.ran,attrRating.keys,attrRating.rt,practiceTrial.thisRepN,practiceTrial.thisTrialN,practiceTrial.thisN,practiceTrial.thisIndex,practiceTrial.ran,key_resp_3.keys,key_resp_3.rt,attnChecker.thisRepN,attnChecker.thisTrialN,attnChecker.thisN,attnChecker.thisIndex,attnChecker.ran,faceOnsetTime,trials.thisRepN,trials.thisTrialN,trials.thisN,trials.thisIndex,trials.ran,trials.order,repeat_loop.thisRepN,repeat_loop.thisTrialN,repeat_loop.thisN,repeat_loop.thisIndex,repeat_loop.ran,repeat_loop.order,catResp.keys,catResp.rt,globalTimesRedone,catAllKeys.keys,catAllKeys.rt,contResp.keys,contResp.rt,redo_keypress.keys,redo_keypress.rt,redo_feedback_loop.thisRepN,redo_feedback_loop.thisTrialN,redo_feedback_loop.thisN,redo_feedback_loop.thisIndex,redo_feedback_loop.ran,contResp_2.keys,contResp_2.rt,respQ1.response,respQ1.rt,respQ2.response,respQ2.rt,respQ3.response,respQ3.rt,respQ4.response,respQ4.rt,surveyContinue1.numClicks,surveyContinue1.timesOn,surveyContinue1.timesOff,respQ5.response,respQ5.rt,respQ6.response,respQ6.rt,respQ7.response,respQ7.rt,respQ8.response,respQ8.rt,surveyContinue2.numClicks,surveyContinue2.timesOn,surveyContinue2.timesOff,respQ9.response,respQ9.rt,respQ10.response,respQ10.rt,respQ11.response,respQ11.rt,respQ12.response,respQ12.rt,surveyContinue3.numClicks,surveyContinue3.timesOn,surveyContinue3.timesOff,respQ13.response,respQ13.rt,respQ14.response,respQ14.rt,respQ15.response,respQ15.rt,surveyContinue4.numClicks,surveyContinue4.timesOn,surveyContinue4.timesOff,respAge.response,respAge.rt,genderResp1.response,genderResp1.rt,genderResp2.text,demogexitClick.numClicks,demogexitClick.timesOn,demogexitClick.timesOff,textbox.text,openAnswerClick.numClicks,openAnswerClick.timesOn,openAnswerClick.timesOff,debriefEnd.keys,debriefEnd.rt,exitKey.keys,exitKey.rt
5f4539491d5a4f0ce250990a,1,[24.43929999995231],[24.439399999856946],513236,001,2024-02-02_11h37.57.261,fluency,2022.2.5,Win32,60.24096386,,,,,,,,,,,,,,,,,,,,,,,,,,,,,,,,,,,,,,,,,,,,,,,,,,,,,,,,,,,,,,,,,,,,,,,,,,,,,,,,,,,,,,,,,,,,,,,,,,,,,,,,,,,,,,,,,,,,,,,,,,,,,,,,,,,,,,,,,,,,,,,,,,,,,,,,,,,,,,,,,
,,,,513236,001,2024-02-02_11h37.57.261,fluency,2022.2.5,Win32,60.24096386,space,20.9843,,,,,,,,,,,,,,,,,,,,,,,,,,,,,,,,,,,,,,,,,,,,,,,,,,,,,,,,,,,,,,,,,,,,,,,,,,,,,,,,,,,,,,,,,,,,,,,,,,,,,,,,,,,,,,,,,,,,,,,,,,,,,,,,,,,,,,,,,,,,,,,,,,,,,,,,,,,,,,,
,,,,513236,001,2024-02-02_11h37.57.261,fluency,2022.2.5,Win32,60.24096386,,,space,34.4129,,,,,,,,,,,,,,,,,,,,,,,,,,,,,,,,,,,,,,,,,,,,,,,,,,,,,,,,,,,,,,,,,,,,,,,,,,,,,,,,,,,,,,,,,,,,,,,,,,,,,,,,,,,,,,,,,,,,,,,,,,,,,,,,,,,,,,,,,,,,,,,,,,,,,,,,,,,,,
,,,,513236,001,2024-02-02_11h37.57.261,fluency,2022.2.5,Win32,60.24096386,,,,,0.294736859,-0.329302987,1,0,0,9.1649,iAgree,,,,,,,,,,,,,,,,,,,,,,,,,,,,,,,,,,,,,,,,,,,,,,,,,,,,,,,,,,,,,,,,,,,,,,,,,,,,,,,,,,,,,,,,,,,,,,,,,,,,,,,,,,,,,,,,,,,,,,,,,,,,,,,,,,,,,,,,,,,,,,,,,,,,,,
,,,,513236,001,2024-02-02_11h37.57.261,fluency,2022.2.5,Win32,60.24096386,,,,,,,,,,,,space,18.5397,,,,,,,,,,,,,,,,,,,,,,,,,,,,,,,,,,,,,,,,,,,,,,,,,,,,,,,,,,,,,,,,,,,,,,,,,,,,,,,,,,,,,,,,,,,,,,,,,,,,,,,,,,,,,,,,,,,,,,,,,,,,,,,,,,,,,,,,,,,,,,,,,,,,
,,,,513236,001,2024-02-02_11h37.57.261,fluency,2022.2.5,Win32,60.24096386,,,,,,,,,,,,,,space,36.6961,space,14.869,0,0,0,104,1,5,10,img/B10_05.jpg,BLEND,Press J if the face is a BLEND and K if the face is a NON-BLEND,A blend is a computer-generated image created by combining together multiple photos of real human faces. A non-blend is a regular photo of a human face.,JK,,,,,,,,,,,,,,,,,,,,,,,,,,,,,,,,,,,,,,,,,,,,,,,,,,,,,,,,,,,,,,,,,,,,,,,,,,,,,,,,,,,,,,,,,,,,,,,,,,,,,,,,,,,,,,,,,,,,,,,,,,,,,,,,,,,,
,,,,513236,001,2024-02-02_11h37.57.261,fluency,2022.2.5,Win32,60.24096386,,,,,,,,,,,,,,,,,,,,,,,,,,,,,,c,5.3836,0,0,0,0,1,,,,,,,,,,,,,,,,,,,,,,,,,,,,,,,,,,,,,,,,,,,,,,,,,,,,,,,,,,,,,,,,,,,,,,,,,,,,,,,,,,,,,,,,,,,,,,,,,,,,,,,,,,,,,,,,,,,,,,,,,,,,,
,,,,513236,001,2024-02-02_11h37.57.261,fluency,2022.2.5,Win32,60.24096386,,,,,,,,,,,,,,,,,,,,,,,,,,,,,,,,,,,,,a,5.6996,0,0,0,0,1,,,,,,,,,,,,,,,,,,,,,,,,,,,,,,,,,,,,,,,,,,,,,,,,,,,,,,,,,,,,,,,,,,,,,,,,,,,,,,,,,,,,,,,,,,,,,,,,,,,,,,,,,,,,,,,,,,,,,,
,,,,513236,001,2024-02-02_11h37.57.261,fluency,2022.2.5,Win32,60.24096386,,,,,,,,,,,,,,,,,,,,,,,,,,,,,,,,,,,,,,,,,,,,c,6.7214,0,0,0,0,1,,,,,,,,,,,,,,,,,,,,,,,,,,,,,,,,,,,,,,,,,,,,,,,,,,,,,,,,,,,,,,,,,,,,,,,,,,,,,,,,,,,,,,,,,,,,,,,,,,,,,,,,,,,,,,,
,,,,513236,001,2024-02-02_11h37.57.261,fluency,2022.2.5,Win32,60.24096386,,,,,,,,,,,,,,,,,,,,,,,,,,,,,,,,,,,,,,,,,,,,,,,,,,,space,1.7957,j,2.8838,0,0,0,0,0,1,,,,,,,,,,,,,,,,,,,,,,,,,,,,,,,,,,,,,,,,,,,,,,,,,,,,,,,,,,,,,,,,,,,,,,,,,,,,,,,,,,,,,,,,,,,,,,,,,,,,,
,,,,513236,001,2024-02-02_11h37.57.261,fluency,2022.2.5,Win32,60.24096386,,,,,,,,,,,,,,,,,,,,,,,,,,,,,,,,,,,,,,,,,,,,,,,,,,,,,,,,,,,,,6,5.5665,0,0,0,0,1,,,,,,,,,,,,,,,,,,,,,,,,,,,,,,,,,,,,,,,,,,,,,,,,,,,,,,,,,,,,,,,,,,,,,,,,,,,,,,,,,,,,,,,,,,,,,,
,,,,513236,001,2024-02-02_11h37.57.261,fluency,2022.2.5,Win32,60.24096386,,,,,,,,,,,,,,,,,,,,,,,,,,,,,,,,,,,,,,,,,,,,,,,,,,,,,,,,,,,,,,,,,,,,space,4.2679,0,0,0,0,1,,,,,,,,,,,,,,,,,,,,,,,,,,,,,,,,,,,,,,,,,,,,,,,,,,,,,,,,,,,,,,,,,,,,,,,,,,,,,,,,,,,,,,,
,,,,513236,001,2024-02-02_11h37.57.261,fluency,2022.2.5,Win32,60.24096386,,,,,,,,,,,,,,,,,,,,,,,4,6,img/B06_04.jpg,BLEND,Press J if the face is a BLEND and K if the face is a NON-BLEND,A blend is a computer-generated image created by combining together multiple photos of real human faces. A non-blend is a regular photo of a human face.,JK,,,,,,,,,,,,,,,,,,,,,,,,,,,,,,,,,,,,,,,,,,,,,,212.2404,0,0,0,59,1,109,0,0,0,0,1,98,,,,,,,,,,,,,,,,,,,,,,,,,,,,,,,,,,,,,,,,,,,,,,,,,,,,,,,,,,,,,,,,,,,,,,,,,,
,,,,513236,001,2024-02-02_11h37.57.261,fluency,2022.2.5,Win32,60.24096386,,,,,,,,,,,,,,,,,,,,,,,,,,,,,,,,,,,,,,,,,,,,,,,,,,,,,,,,,,,,,,,,,,,,,,,,,,,,,,,,,,0,0,0,0,1,,"[""j""]",[1.7867999999523079],0,"[""j""]",[1.7865999999046096],,,,,,,,,,,,,,,,,,,,,,,,,,,,,,,,,,,,,,,,,,,,,,,,,,,,,,,,,,,,,,,,,,,,,
,,,,513236,001,2024-02-02_11h37.57.261,fluency,2022.2.5,Win32,60.24096386,,,,,,,,,,,,,,,,,,,,,,,4,6,img/B06_04.jpg,BLEND,Press J if the face is a BLEND and K if the face is a NON-BLEND,A blend is a computer-generated image created by combining together multiple photos of real human faces. A non-blend is a regular photo of a human face.,JK,,,,,,,,,,,,,,,,,,,,,,,,,,,,,,,,7,3.2683,,,,,,,,,,,,,,0,0,0,59,1,,,,,,,,,,,,,space,7.4439,,,,,,,,,,,,,,,,,,,,,,,,,,,,,,,,,,,,,,,,,,,,,,,,,,,,,,,,,,,,,,,,,,,
,,,,513236,001,2024-02-02_11h37.57.261,fluency,2022.2.5,Win32,60.24096386,,,,,,,,,,,,,,,,,,,,,,,0,9,img/B09_00.jpg,BLEND,Press J if the face is a BLEND and K if the face is a NON-BLEND,A blend is a computer-generated image created by combining together multiple photos of real human faces. A non-blend is a regular photo of a human face.,JK,,,,,,,,,,,,,,,,,,,,,,,,,,,,,,,,,,,,,,,,,,,,,,228.0654,0,1,1,88,1,109,0,0,0,0,1,98,,,,,,,,,,,,,,,,,,,,,,,,,,,,,,,,,,,,,,,,,,,,,,,,,,,,,,,,,,,,,,,,,,,,,,,,,,
,,,,513236,001,2024-02-02_11h37.57.261,fluency,2022.2.5,Win32,60.24096386,,,,,,,,,,,,,,,,,,,,,,,,,,,,,,,,,,,,,,,,,,,,,,,,,,,,,,,,,,,,,,,,,,,,,,,,,,,,,,,,,,0,0,0,0,1,,"[""k""]",[1.819500000000005],0,"[""k""]",[1.8194000000954134],,,,,,,,,,,,,,,,,,,,,,,,,,,,,,,,,,,,,,,,,,,,,,,,,,,,,,,,,,,,,,,,,,,,,
,,,,513236,001,2024-02-02_11h37.57.261,fluency,2022.2.5,Win32,60.24096386,,,,,,,,,,,,,,,,,,,,,,,0,9,img/B09_00.jpg,BLEND,Press J if the face is a BLEND and K if the face is a NON-BLEND,A blend is a computer-generated image created by combining together multiple photos of real human faces. A non-blend is a regular photo of a human face.,JK,,,,,,,,,,,,,,,,,,,,,,,,,,,,,,,,7,3.9793,,,,,,,,,,,,,,0,1,1,88,1,,,,,,,,,,,,,space,2.7299,,,,,,,,,,,,,,,,,,,,,,,,,,,,,,,,,,,,,,,,,,,,,,,,,,,,,,,,,,,,,,,,,,,
,,,,513236,001,2024-02-02_11h37.57.261,fluency,2022.2.5,Win32,60.24096386,,,,,,,,,,,,,,,,,,,,,,,8,5,img/B05_08.jpg,BLEND,Press J if the face is a BLEND and K if the face is a NON-BLEND,A blend is a computer-generated image created by combining together multiple photos of real human faces. A non-blend is a regular photo of a human face.,JK,,,,,,,,,,,,,,,,,,,,,,,,,,,,,,,,,,,,,,,,,,,,,,239.8932,0,2,2,52,1,109,0,0,0,0,1,98,,,,,,,,,,,,,,,,,,,,,,,,,,,,,,,,,,,,,,,,,,,,,,,,,,,,,,,,,,,,,,,,,,,,,,,,,,
,,,,513236,001,2024-02-02_11h37.57.261,fluency,2022.2.5,Win32,60.24096386,,,,,,,,,,,,,,,,,,,,,,,,,,,,,,,,,,,,,,,,,,,,,,,,,,,,,,,,,,,,,,,,,,,,,,,,,,,,,,,,,,0,0,0,0,1,,"[""k""]",[1.1120000000000232],0,"[""k""]",[1.1120000000000232],,,,,,,,,,,,,,,,,,,,,,,,,,,,,,,,,,,,,,,,,,,,,,,,,,,,,,,,,,,,,,,,,,,,,
,,,,513236,001,2024-02-02_11h37.57.261,fluency,2022.2.5,Win32,60.24096386,,,,,,,,,,,,,,,,,,,,,,,8,5,img/B05_08.jpg,BLEND,Press J if the face is a BLEND and K if the face is a NON-BLEND,A blend is a computer-generated image created by combining together multiple photos of real human faces. A non-blend is a regular photo of a human face.,JK,,,,,,,,,,,,,,,,,,,,,,,,,,,,,,,,8,2.6529,,,,,,,,,,,,,,0,2,2,52,1,,,,,,,,,,,,,space,2.667,,,,,,,,,,,,,,,,,,,,,,,,,,,,,,,,,,,,,,,,,,,,,,,,,,,,,,,,,,,,,,,,,,,
,,,,513236,001,2024-02-02_11h37.57.261,fluency,2022.2.5,Win32,60.24096386,,,,,,,,,,,,,,,,,,,,,,,0,10,img/B10_00.jpg,BLEND,Press J if the face is a BLEND and K if the face is a NON-BLEND,A blend is a computer-generated image created by combining together multiple photos of real human faces. A non-blend is a regular photo of a human face.,JK,,,,,,,,,,,,,,,,,,,,,,,,,,,,,,,,,,,,,,,,,,,,,,249.3216,0,3,3,99,1,109,0,0,0,0,1,98,,,,,,,,,,,,,,,,,,,,,,,,,,,,,,,,,,,,,,,,,,,,,,,,,,,,,,,,,,,,,,,,,,,,,,,,,,
,,,,513236,001,2024-02-02_11h37.57.261,fluency,2022.2.5,Win32,60.24096386,,,,,,,,,,,,,,,,,,,,,,,,,,,,,,,,,,,,,,,,,,,,,,,,,,,,,,,,,,,,,,,,,,,,,,,,,,,,,,,,,,0,0,0,0,1,,"[""j""]",[1.835700000047666],0,"[""j""]",[1.8355999999046162],,,,,,,,,,,,,,,,,,,,,,,,,,,,,,,,,,,,,,,,,,,,,,,,,,,,,,,,,,,,,,,,,,,,,
,,,,513236,001,2024-02-02_11h37.57.261,fluency,2022.2.5,Win32,60.24096386,,,,,,,,,,,,,,,,,,,,,,,0,10,img/B10_00.jpg,BLEND,Press J if the face is a BLEND and K if the face is a NON-BLEND,A blend is a computer-generated image created by combining together multiple photos of real human faces. A non-blend is a regular photo of a human face.,JK,,,,,,,,,,,,,,,,,,,,,,,,,,,,,,,,6,3.1291,,,,,,,,,,,,,,0,3,3,99,1,,,,,,,,,,,,,space,1.6849,,,,,,,,,,,,,,,,,,,,,,,,,,,,,,,,,,,,,,,,,,,,,,,,,,,,,,,,,,,,,,,,,,,
,,,,513236,001,2024-02-02_11h37.57.261,fluency,2022.2.5,Win32,60.24096386,,,,,,,,,,,,,,,,,,,,,,,1,7,img/B07_01.jpg,BLEND,Press J if the face is a BLEND and K if the face is a NON-BLEND,A blend is a computer-generated image created by combining together multiple photos of real human faces. A non-blend is a regular photo of a human face.,JK,,,,,,,,,,,,,,,,,,,,,,,,,,,,,,,,,,,,,,,,,,,,,,259.2346,0,4,4,67,1,109,0,0,0,0,1,98,,,,,,,,,,,,,,,,,,,,,,,,,,,,,,,,,,,,,,,,,,,,,,,,,,,,,,,,,,,,,,,,,,,,,,,,,,
,,,,513236,001,2024-02-02_11h37.57.261,fluency,2022.2.5,Win32,60.24096386,,,,,,,,,,,,,,,,,,,,,,,,,,,,,,,,,,,,,,,,,,,,,,,,,,,,,,,,,,,,,,,,,,,,,,,,,,,,,,,,,,0,0,0,0,1,,"[""k""]",[1.8079000000953442],0,"[""k""]",[1.807899999856943],,,,,,,,,,,,,,,,,,,,,,,,,,,,,,,,,,,,,,,,,,,,,,,,,,,,,,,,,,,,,,,,,,,,,
,,,,513236,001,2024-02-02_11h37.57.261,fluency,2022.2.5,Win32,60.24096386,,,,,,,,,,,,,,,,,,,,,,,1,7,img/B07_01.jpg,BLEND,Press J if the face is a BLEND and K if the face is a NON-BLEND,A blend is a computer-generated image created by combining together multiple photos of real human faces. A non-blend is a regular photo of a human face.,JK,,,,,,,,,,,,,,,,,,,,,,,,,,,,,,,,5,3.9018,,,,,,,,,,,,,,0,4,4,67,1,,,,,,,,,,,,,space,3.0648,,,,,,,,,,,,,,,,,,,,,,,,,,,,,,,,,,,,,,,,,,,,,,,,,,,,,,,,,,,,,,,,,,,
,,,,513236,001,2024-02-02_11h37.57.261,fluency,2022.2.5,Win32,60.24096386,,,,,,,,,,,,,,,,,,,,,,,2,7,img/B07_02.jpg,BLEND,Press J if the face is a BLEND and K if the face is a NON-BLEND,A blend is a computer-generated image created by combining together multiple photos of real human faces. A non-blend is a regular photo of a human face.,JK,,,,,,,,,,,,,,,,,,,,,,,,,,,,,,,,,,,,,,,,,,,,,,270.2798,0,5,5,68,1,109,0,0,0,0,1,98,,,,,,,,,,,,,,,,,,,,,,,,,,,,,,,,,,,,,,,,,,,,,,,,,,,,,,,,,,,,,,,,,,,,,,,,,,
,,,,513236,001,2024-02-02_11h37.57.261,fluency,2022.2.5,Win32,60.24096386,,,,,,,,,,,,,,,,,,,,,,,,,,,,,,,,,,,,,,,,,,,,,,,,,,,,,,,,,,,,,,,,,,,,,,,,,,,,,,,,,,,,,,,,,,1,,,,,space,6.83,0,0,0,0,1,,,,,,,,,,,,,,,,,,,,,,,,,,,,,,,,,,,,,,,,,,,,,,,,,,,,,,,,,,,,
,,,,513236,001,2024-02-02_11h37.57.261,fluency,2022.2.5,Win32,60.24096386,,,,,,,,,,,,,,,,,,,,,,,,,,,,,,,,,,,,,,,,,,,,,,,,,,,,,,,,,,,,,,,,,,,,,,,,,,,,,,,,,,0,0,0,0,1,,,,,,,,,,,,,,,,,,,,,,,,,,,,,,,,,,,,,,,,,,,,,,,,,,,,,,,,,,,,,,,,,,,,,,,,,,,
,,,,513236,001,2024-02-02_11h37.57.261,fluency,2022.2.5,Win32,60.24096386,,,,,,,,,,,,,,,,,,,,,,,2,7,img/B07_02.jpg,BLEND,Press J if the face is a BLEND and K if the face is a NON-BLEND,A blend is a computer-generated image created by combining together multiple photos of real human faces. A non-blend is a regular photo of a human face.,JK,,,,,,,,,,,,,,,,,,,,,,,,,,,,,,,,,,,,,,,,,,,,,,282.1728,0,5,5,68,1,109,1,0,1,0,1,98,,,,,,,,,,,,,,,,,,,,,,,,,,,,,,,,,,,,,,,,,,,,,,,,,,,,,,,,,,,,,,,,,,,,,,,,,,
,,,,513236,001,2024-02-02_11h37.57.261,fluency,2022.2.5,Win32,60.24096386,,,,,,,,,,,,,,,,,,,,,,,,,,,,,,,,,,,,,,,,,,,,,,,,,,,,,,,,,,,,,,,,,,,,,,,,,,,,,,,,,,1,0,1,0,1,,"[""k""]",[0.8917999999523545],1,"[""k""]",[0.8917999999523545],,,,,,,,,,,,,,,,,,,,,,,,,,,,,,,,,,,,,,,,,,,,,,,,,,,,,,,,,,,,,,,,,,,,,
,,,,513236,001,2024-02-02_11h37.57.261,fluency,2022.2.5,Win32,60.24096386,,,,,,,,,,,,,,,,,,,,,,,2,7,img/B07_02.jpg,BLEND,Press J if the face is a BLEND and K if the face is a NON-BLEND,A blend is a computer-generated image created by combining together multiple photos of real human faces. A non-blend is a regular photo of a human face.,JK,,,,,,,,,,,,,,,,,,,,,,,,,,,,,,,,6,2.3348,,,,,,,,,,,,,,0,5,5,68,1,,,,,,,,,,,,,space,7.3661,,,,,,,,,,,,,,,,,,,,,,,,,,,,,,,,,,,,,,,,,,,,,,,,,,,,,,,,,,,,,,,,,,,
,,,,513236,001,2024-02-02_11h37.57.261,fluency,2022.2.5,Win32,60.24096386,,,,,,,,,,,,,,,,,,,,,,,2,9,img/B09_02.jpg,BLEND,Press J if the face is a BLEND and K if the face is a NON-BLEND,A blend is a computer-generated image created by combining together multiple photos of real human faces. A non-blend is a regular photo of a human face.,JK,,,,,,,,,,,,,,,,,,,,,,,,,,,,,,,,,,,,,,,,,,,,,,296.9844,0,6,6,90,1,109,0,0,0,0,1,98,,,,,,,,,,,,,,,,,,,,,,,,,,,,,,,,,,,,,,,,,,,,,,,,,,,,,,,,,,,,,,,,,,,,,,,,,,
,,,,513236,001,2024-02-02_11h37.57.261,fluency,2022.2.5,Win32,60.24096386,,,,,,,,,,,,,,,,,,,,,,,,,,,,,,,,,,,,,,,,,,,,,,,,,,,,,,,,,,,,,,,,,,,,,,,,,,,,,,,,,,0,0,0,0,1,,"[""j""]",[1.559799999952304],1,"[""j""]",[1.5597000000476555],,,,,,,,,,,,,,,,,,,,,,,,,,,,,,,,,,,,,,,,,,,,,,,,,,,,,,,,,,,,,,,,,,,,,
,,,,513236,001,2024-02-02_11h37.57.261,fluency,2022.2.5,Win32,60.24096386,,,,,,,,,,,,,,,,,,,,,,,2,9,img/B09_02.jpg,BLEND,Press J if the face is a BLEND and K if the face is a NON-BLEND,A blend is a computer-generated image created by combining together multiple photos of real human faces. A non-blend is a regular photo of a human face.,JK,,,,,,,,,,,,,,,,,,,,,,,,,,,,,,,,7,1.4184,,,,,,,,,,,,,,0,6,6,90,1,,,,,,,,,,,,,space,3.2492,,,,,,,,,,,,,,,,,,,,,,,,,,,,,,,,,,,,,,,,,,,,,,,,,,,,,,,,,,,,,,,,,,,
,,,,513236,001,2024-02-02_11h37.57.261,fluency,2022.2.5,Win32,60.24096386,,,,,,,,,,,,,,,,,,,,,,,0,2,img/B02_00.jpg,BLEND,Press J if the face is a BLEND and K if the face is a NON-BLEND,A blend is a computer-generated image created by combining together multiple photos of real human faces. A non-blend is a regular photo of a human face.,JK,,,,,,,,,,,,,,,,,,,,,,,,,,,,,,,,,,,,,,,,,,,,,,305.7305,0,7,7,11,1,109,0,0,0,0,1,98,,,,,,,,,,,,,,,,,,,,,,,,,,,,,,,,,,,,,,,,,,,,,,,,,,,,,,,,,,,,,,,,,,,,,,,,,,
,,,,513236,001,2024-02-02_11h37.57.261,fluency,2022.2.5,Win32,60.24096386,,,,,,,,,,,,,,,,,,,,,,,,,,,,,,,,,,,,,,,,,,,,,,,,,,,,,,,,,,,,,,,,,,,,,,,,,,,,,,,,,,0,0,0,0,1,,"[""j""]",[1.608000000000004],1,"[""j""]",[1.6079000000953556],,,,,,,,,,,,,,,,,,,,,,,,,,,,,,,,,,,,,,,,,,,,,,,,,,,,,,,,,,,,,,,,,,,,,
,,,,513236,001,2024-02-02_11h37.57.261,fluency,2022.2.5,Win32,60.24096386,,,,,,,,,,,,,,,,,,,,,,,0,2,img/B02_00.jpg,BLEND,Press J if the face is a BLEND and K if the face is a NON-BLEND,A blend is a computer-generated image created by combining together multiple photos of real human faces. A non-blend is a regular photo of a human face.,JK,,,,,,,,,,,,,,,,,,,,,,,,,,,,,,,,5,1.8686,,,,,,,,,,,,,,0,7,7,11,1,,,,,,,,,,,,,space,1.5502,,,,,,,,,,,,,,,,,,,,,,,,,,,,,,,,,,,,,,,,,,,,,,,,,,,,,,,,,,,,,,,,,,,
,,,,513236,001,2024-02-02_11h37.57.261,fluency,2022.2.5,Win32,60.24096386,,,,,,,,,,,,,,,,,,,,,,,3,2,img/B02_03.jpg,BLEND,Press J if the face is a BLEND and K if the face is a NON-BLEND,A blend is a computer-generated image created by combining together multiple photos of real human faces. A non-blend is a regular photo of a human face.,JK,,,,,,,,,,,,,,,,,,,,,,,,,,,,,,,,,,,,,,,,,,,,,,314.2439,0,8,8,14,1,109,0,0,0,0,1,98,,,,,,,,,,,,,,,,,,,,,,,,,,,,,,,,,,,,,,,,,,,,,,,,,,,,,,,,,,,,,,,,,,,,,,,,,,
,,,,513236,001,2024-02-02_11h37.57.261,fluency,2022.2.5,Win32,60.24096386,,,,,,,,,,,,,,,,,,,,,,,,,,,,,,,,,,,,,,,,,,,,,,,,,,,,,,,,,,,,,,,,,,,,,,,,,,,,,,,,,,,,,,,,,,2,"[""5""]",[2.0319999999999823],,,space,2.9695,0,0,0,0,1,,,,,,,,,,,,,,,,,,,,,,,,,,,,,,,,,,,,,,,,,,,,,,,,,,,,,,,,,,,,
,,,,513236,001,2024-02-02_11h37.57.261,fluency,2022.2.5,Win32,60.24096386,,,,,,,,,,,,,,,,,,,,,,,,,,,,,,,,,,,,,,,,,,,,,,,,,,,,,,,,,,,,,,,,,,,,,,,,,,,,,,,,,,0,0,0,0,1,,,,,,,,,,,,,,,,,,,,,,,,,,,,,,,,,,,,,,,,,,,,,,,,,,,,,,,,,,,,,,,,,,,,,,,,,,,
,,,,513236,001,2024-02-02_11h37.57.261,fluency,2022.2.5,Win32,60.24096386,,,,,,,,,,,,,,,,,,,,,,,3,2,img/B02_03.jpg,BLEND,Press J if the face is a BLEND and K if the face is a NON-BLEND,A blend is a computer-generated image created by combining together multiple photos of real human faces. A non-blend is a regular photo of a human face.,JK,,,,,,,,,,,,,,,,,,,,,,,,,,,,,,,,,,,,,,,,,,,,,,322.2732,0,8,8,14,1,109,1,0,1,0,1,98,,,,,,,,,,,,,,,,,,,,,,,,,,,,,,,,,,,,,,,,,,,,,,,,,,,,,,,,,,,,,,,,,,,,,,,,,,
,,,,513236,001,2024-02-02_11h37.57.261,fluency,2022.2.5,Win32,60.24096386,,,,,,,,,,,,,,,,,,,,,,,,,,,,,,,,,,,,,,,,,,,,,,,,,,,,,,,,,,,,,,,,,,,,,,,,,,,,,,,,,,1,0,1,0,1,,"[""j""]",[0.4146000001430252],2,"[""j""]",[0.4146000001430252],,,,,,,,,,,,,,,,,,,,,,,,,,,,,,,,,,,,,,,,,,,,,,,,,,,,,,,,,,,,,,,,,,,,,
,,,,513236,001,2024-02-02_11h37.57.261,fluency,2022.2.5,Win32,60.24096386,,,,,,,,,,,,,,,,,,,,,,,3,2,img/B02_03.jpg,BLEND,Press J if the face is a BLEND and K if the face is a NON-BLEND,A blend is a computer-generated image created by combining together multiple photos of real human faces. A non-blend is a regular photo of a human face.,JK,,,,,,,,,,,,,,,,,,,,,,,,,,,,,,,,6,2.5433,,,,,,,,,,,,,,0,8,8,14,1,,,,,,,,,,,,,space,1.1824,,,,,,,,,,,,,,,,,,,,,,,,,,,,,,,,,,,,,,,,,,,,,,,,,,,,,,,,,,,,,,,,,,,
,,,,513236,001,2024-02-02_11h37.57.261,fluency,2022.2.5,Win32,60.24096386,,,,,,,,,,,,,,,,,,,,,,,6,8,img/B08_06.jpg,BLEND,Press J if the face is a BLEND and K if the face is a NON-BLEND,A blend is a computer-generated image created by combining together multiple photos of real human faces. A non-blend is a regular photo of a human face.,JK,,,,,,,,,,,,,,,,,,,,,,,,,,,,,,,,,,,,,,,,,,,,,,331.1193,0,9,9,83,1,109,0,0,0,0,1,98,,,,,,,,,,,,,,,,,,,,,,,,,,,,,,,,,,,,,,,,,,,,,,,,,,,,,,,,,,,,,,,,,,,,,,,,,,
,,,,513236,001,2024-02-02_11h37.57.261,fluency,2022.2.5,Win32,60.24096386,,,,,,,,,,,,,,,,,,,,,,,,,,,,,,,,,,,,,,,,,,,,,,,,,,,,,,,,,,,,,,,,,,,,,,,,,,,,,,,,,,0,0,0,0,1,,"[""j""]",[1.559699999809311],2,"[""j""]",[1.5596000001430639],,,,,,,,,,,,,,,,,,,,,,,,,,,,,,,,,,,,,,,,,,,,,,,,,,,,,,,,,,,,,,,,,,,,,
,,,,513236,001,2024-02-02_11h37.57.261,fluency,2022.2.5,Win32,60.24096386,,,,,,,,,,,,,,,,,,,,,,,6,8,img/B08_06.jpg,BLEND,Press J if the face is a BLEND and K if the face is a NON-BLEND,A blend is a computer-generated image created by combining together multiple photos of real human faces. A non-blend is a regular photo of a human face.,JK,,,,,,,,,,,,,,,,,,,,,,,,,,,,,,,,7,1.9513,,,,,,,,,,,,,,0,9,9,83,1,,,,,,,,,,,,,space,1.2178,,,,,,,,,,,,,,,,,,,,,,,,,,,,,,,,,,,,,,,,,,,,,,,,,,,,,,,,,,,,,,,,,,,
,,,,513236,001,2024-02-02_11h37.57.261,fluency,2022.2.5,Win32,60.24096386,,,,,,,,,,,,,,,,,,,,,,,1,6,img/B06_01.jpg,BLEND,Press J if the face is a BLEND and K if the face is a NON-BLEND,A blend is a computer-generated image created by combining together multiple photos of real human faces. A non-blend is a regular photo of a human face.,JK,,,,,,,,,,,,,,,,,,,,,,,,,,,,,,,,,,,,,,,,,,,,,,339.3814,0,10,10,56,1,109,0,0,0,0,1,98,,,,,,,,,,,,,,,,,,,,,,,,,,,,,,,,,,,,,,,,,,,,,,,,,,,,,,,,,,,,,,,,,,,,,,,,,,
,,,,513236,001,2024-02-02_11h37.57.261,fluency,2022.2.5,Win32,60.24096386,,,,,,,,,,,,,,,,,,,,,,,,,,,,,,,,,,,,,,,,,,,,,,,,,,,,,,,,,,,,,,,,,,,,,,,,,,,,,,,,,,0,0,0,0,1,,"[""j""]",[1.4042999999523431],2,"[""j""]",[1.404400000095393],,,,,,,,,,,,,,,,,,,,,,,,,,,,,,,,,,,,,,,,,,,,,,,,,,,,,,,,,,,,,,,,,,,,,
,,,,513236,001,2024-02-02_11h37.57.261,fluency,2022.2.5,Win32,60.24096386,,,,,,,,,,,,,,,,,,,,,,,1,6,img/B06_01.jpg,BLEND,Press J if the face is a BLEND and K if the face is a NON-BLEND,A blend is a computer-generated image created by combining together multiple photos of real human faces. A non-blend is a regular photo of a human face.,JK,,,,,,,,,,,,,,,,,,,,,,,,,,,,,,,,5,2.4491,,,,,,,,,,,,,,0,10,10,56,1,,,,,,,,,,,,,space,1.0849,,,,,,,,,,,,,,,,,,,,,,,,,,,,,,,,,,,,,,,,,,,,,,,,,,,,,,,,,,,,,,,,,,,
,,,,513236,001,2024-02-02_11h37.57.261,fluency,2022.2.5,Win32,60.24096386,,,,,,,,,,,,,,,,,,,,,,,3,6,img/B06_03.jpg,BLEND,Press J if the face is a BLEND and K if the face is a NON-BLEND,A blend is a computer-generated image created by combining together multiple photos of real human faces. A non-blend is a regular photo of a human face.,JK,,,,,,,,,,,,,,,,,,,,,,,,,,,,,,,,,,,,,,,,,,,,,,348.0288,0,11,11,58,1,109,0,0,0,0,1,98,,,,,,,,,,,,,,,,,,,,,,,,,,,,,,,,,,,,,,,,,,,,,,,,,,,,,,,,,,,,,,,,,,,,,,,,,,
,,,,513236,001,2024-02-02_11h37.57.261,fluency,2022.2.5,Win32,60.24096386,,,,,,,,,,,,,,,,,,,,,,,,,,,,,,,,,,,,,,,,,,,,,,,,,,,,,,,,,,,,,,,,,,,,,,,,,,,,,,,,,,0,0,0,0,1,,"[""j""]",[1.29200000000003],2,"[""j""]",[1.2898999998569138],,,,,,,,,,,,,,,,,,,,,,,,,,,,,,,,,,,,,,,,,,,,,,,,,,,,,,,,,,,,,,,,,,,,,
,,,,513236,001,2024-02-02_11h37.57.261,fluency,2022.2.5,Win32,60.24096386,,,,,,,,,,,,,,,,,,,,,,,3,6,img/B06_03.jpg,BLEND,Press J if the face is a BLEND and K if the face is a NON-BLEND,A blend is a computer-generated image created by combining together multiple photos of real human faces. A non-blend is a regular photo of a human face.,JK,,,,,,,,,,,,,,,,,,,,,,,,,,,,,,,,6,1.7705,,,,,,,,,,,,,,0,11,11,58,1,,,,,,,,,,,,,space,4.5168,,,,,,,,,,,,,,,,,,,,,,,,,,,,,,,,,,,,,,,,,,,,,,,,,,,,,,,,,,,,,,,,,,,
,,,,513236,001,2024-02-02_11h37.57.261,fluency,2022.2.5,Win32,60.24096386,,,,,,,,,,,,,,,,,,,,,,,2,6,img/B06_02.jpg,BLEND,Press J if the face is a BLEND and K if the face is a NON-BLEND,A blend is a computer-generated image created by combining together multiple photos of real human faces. A non-blend is a regular photo of a human face.,JK,,,,,,,,,,,,,,,,,,,,,,,,,,,,,,,,,,,,,,,,,,,,,,358.4241,0,12,12,57,1,109,0,0,0,0,1,98,,,,,,,,,,,,,,,,,,,,,,,,,,,,,,,,,,,,,,,,,,,,,,,,,,,,,,,,,,,,,,,,,,,,,,,,,,
,,,,513236,001,2024-02-02_11h37.57.261,fluency,2022.2.5,Win32,60.24096386,,,,,,,,,,,,,,,,,,,,,,,,,,,,,,,,,,,,,,,,,,,,,,,,,,,,,,,,,,,,,,,,,,,,,,,,,,,,,,,,,,0,0,0,0,1,,"[""j""]",[2.2413000001907335],2,"[""j""]",[2.2413000001907335],,,,,,,,,,,,,,,,,,,,,,,,,,,,,,,,,,,,,,,,,,,,,,,,,,,,,,,,,,,,,,,,,,,,,
,,,,513236,001,2024-02-02_11h37.57.261,fluency,2022.2.5,Win32,60.24096386,,,,,,,,,,,,,,,,,,,,,,,2,6,img/B06_02.jpg,BLEND,Press J if the face is a BLEND and K if the face is a NON-BLEND,A blend is a computer-generated image created by combining together multiple photos of real human faces. A non-blend is a regular photo of a human face.,JK,,,,,,,,,,,,,,,,,,,,,,,,,,,,,,,,6,2.1708,,,,,,,,,,,,,,0,12,12,57,1,,,,,,,,,,,,,space,4.6358,,,,,,,,,,,,,,,,,,,,,,,,,,,,,,,,,,,,,,,,,,,,,,,,,,,,,,,,,,,,,,,,,,,
,,,,513236,001,2024-02-02_11h37.57.261,fluency,2022.2.5,Win32,60.24096386,,,,,,,,,,,,,,,,,,,,,,,4,1,img/B01_04.jpg,BLEND,Press J if the face is a BLEND and K if the face is a NON-BLEND,A blend is a computer-generated image created by combining together multiple photos of real human faces. A non-blend is a regular photo of a human face.,JK,,,,,,,,,,,,,,,,,,,,,,,,,,,,,,,,,,,,,,,,,,,,,,369.3348,0,13,13,4,1,109,0,0,0,0,1,98,,,,,,,,,,,,,,,,,,,,,,,,,,,,,,,,,,,,,,,,,,,,,,,,,,,,,,,,,,,,,,,,,,,,,,,,,,
,,,,513236,001,2024-02-02_11h37.57.261,fluency,2022.2.5,Win32,60.24096386,,,,,,,,,,,,,,,,,,,,,,,,,,,,,,,,,,,,,,,,,,,,,,,,,,,,,,,,,,,,,,,,,,,,,,,,,,,,,,,,,,0,0,0,0,1,,"[""j""]",[1.8928999998569225],2,"[""j""]",[1.8928999998569225],,,,,,,,,,,,,,,,,,,,,,,,,,,,,,,,,,,,,,,,,,,,,,,,,,,,,,,,,,,,,,,,,,,,,
,,,,513236,001,2024-02-02_11h37.57.261,fluency,2022.2.5,Win32,60.24096386,,,,,,,,,,,,,,,,,,,,,,,4,1,img/B01_04.jpg,BLEND,Press J if the face is a BLEND and K if the face is a NON-BLEND,A blend is a computer-generated image created by combining together multiple photos of real human faces. A non-blend is a regular photo of a human face.,JK,,,,,,,,,,,,,,,,,,,,,,,,,,,,,,,,7,4.5052,,,,,,,,,,,,,,0,13,13,4,1,,,,,,,,,,,,,space,1.3012,,,,,,,,,,,,,,,,,,,,,,,,,,,,,,,,,,,,,,,,,,,,,,,,,,,,,,,,,,,,,,,,,,,
,,,,513236,001,2024-02-02_11h37.57.261,fluency,2022.2.5,Win32,60.24096386,,,,,,,,,,,,,,,,,,,,,,,10,6,img/B06_10.jpg,BLEND,Press J if the face is a BLEND and K if the face is a NON-BLEND,A blend is a computer-generated image created by combining together multiple photos of real human faces. A non-blend is a regular photo of a human face.,JK,,,,,,,,,,,,,,,,,,,,,,,,,,,,,,,,,,,,,,,,,,,,,,380.2644,0,14,14,65,1,109,0,0,0,0,1,98,,,,,,,,,,,,,,,,,,,,,,,,,,,,,,,,,,,,,,,,,,,,,,,,,,,,,,,,,,,,,,,,,,,,,,,,,,
,,,,513236,001,2024-02-02_11h37.57.261,fluency,2022.2.5,Win32,60.24096386,,,,,,,,,,,,,,,,,,,,,,,,,,,,,,,,,,,,,,,,,,,,,,,,,,,,,,,,,,,,,,,,,,,,,,,,,,,,,,,,,,0,0,0,0,1,,"[""k""]",[1.9252000000477096],2,"[""k""]",[1.9251000001430612],,,,,,,,,,,,,,,,,,,,,,,,,,,,,,,,,,,,,,,,,,,,,,,,,,,,,,,,,,,,,,,,,,,,,
,,,,513236,001,2024-02-02_11h37.57.261,fluency,2022.2.5,Win32,60.24096386,,,,,,,,,,,,,,,,,,,,,,,10,6,img/B06_10.jpg,BLEND,Press J if the face is a BLEND and K if the face is a NON-BLEND,A blend is a computer-generated image created by combining together multiple photos of real human faces. A non-blend is a regular photo of a human face.,JK,,,,,,,,,,,,,,,,,,,,,,,,,,,,,,,,7,2.7385,,,,,,,,,,,,,,0,14,14,65,1,,,,,,,,,,,,,space,4.7659,,,,,,,,,,,,,,,,,,,,,,,,,,,,,,,,,,,,,,,,,,,,,,,,,,,,,,,,,,,,,,,,,,,
,,,,513236,001,2024-02-02_11h37.57.261,fluency,2022.2.5,Win32,60.24096386,,,,,,,,,,,,,,,,,,,,,,,10,9,img/B09_10.jpg,BLEND,Press J if the face is a BLEND and K if the face is a NON-BLEND,A blend is a computer-generated image created by combining together multiple photos of real human faces. A non-blend is a regular photo of a human face.,JK,,,,,,,,,,,,,,,,,,,,,,,,,,,,,,,,,,,,,,,,,,,,,,391.8753,0,15,15,98,1,109,0,0,0,0,1,98,,,,,,,,,,,,,,,,,,,,,,,,,,,,,,,,,,,,,,,,,,,,,,,,,,,,,,,,,,,,,,,,,,,,,,,,,,
,,,,513236,001,2024-02-02_11h37.57.261,fluency,2022.2.5,Win32,60.24096386,,,,,,,,,,,,,,,,,,,,,,,,,,,,,,,,,,,,,,,,,,,,,,,,,,,,,,,,,,,,,,,,,,,,,,,,,,,,,,,,,,0,0,0,0,1,,"[""j""]",[1.1996000001430502],2,"[""j""]",[1.1995000000000005],,,,,,,,,,,,,,,,,,,,,,,,,,,,,,,,,,,,,,,,,,,,,,,,,,,,,,,,,,,,,,,,,,,,,
,,,,513236,001,2024-02-02_11h37.57.261,fluency,2022.2.5,Win32,60.24096386,,,,,,,,,,,,,,,,,,,,,,,10,9,img/B09_10.jpg,BLEND,Press J if the face is a BLEND and K if the face is a NON-BLEND,A blend is a computer-generated image created by combining together multiple photos of real human faces. A non-blend is a regular photo of a human face.,JK,,,,,,,,,,,,,,,,,,,,,,,,,,,,,,,,6,2.3447,,,,,,,,,,,,,,0,15,15,98,1,,,,,,,,,,,,,space,2.9018,,,,,,,,,,,,,,,,,,,,,,,,,,,,,,,,,,,,,,,,,,,,,,,,,,,,,,,,,,,,,,,,,,,
,,,,513236,001,2024-02-02_11h37.57.261,fluency,2022.2.5,Win32,60.24096386,,,,,,,,,,,,,,,,,,,,,,,8,7,img/B07_08.jpg,BLEND,Press J if the face is a BLEND and K if the face is a NON-BLEND,A blend is a computer-generated image created by combining together multiple photos of real human faces. A non-blend is a regular photo of a human face.,JK,,,,,,,,,,,,,,,,,,,,,,,,,,,,,,,,,,,,,,,,,,,,,,401.2368,0,16,16,74,1,109,0,0,0,0,1,98,,,,,,,,,,,,,,,,,,,,,,,,,,,,,,,,,,,,,,,,,,,,,,,,,,,,,,,,,,,,,,,,,,,,,,,,,,
,,,,513236,001,2024-02-02_11h37.57.261,fluency,2022.2.5,Win32,60.24096386,,,,,,,,,,,,,,,,,,,,,,,,,,,,,,,,,,,,,,,,,,,,,,,,,,,,,,,,,,,,,,,,,,,,,,,,,,,,,,,,,,0,0,0,0,1,,"[""j""]",[1.247799999952349],2,"[""j""]",[1.2467999999523158],,,,,,,,,,,,,,,,,,,,,,,,,,,,,,,,,,,,,,,,,,,,,,,,,,,,,,,,,,,,,,,,,,,,,
,,,,513236,001,2024-02-02_11h37.57.261,fluency,2022.2.5,Win32,60.24096386,,,,,,,,,,,,,,,,,,,,,,,8,7,img/B07_08.jpg,BLEND,Press J if the face is a BLEND and K if the face is a NON-BLEND,A blend is a computer-generated image created by combining together multiple photos of real human faces. A non-blend is a regular photo of a human face.,JK,,,,,,,,,,,,,,,,,,,,,,,,,,,,,,,,8,2.0142,,,,,,,,,,,,,,0,16,16,74,1,,,,,,,,,,,,,space,2.3695,,,,,,,,,,,,,,,,,,,,,,,,,,,,,,,,,,,,,,,,,,,,,,,,,,,,,,,,,,,,,,,,,,,
,,,,513236,001,2024-02-02_11h37.57.261,fluency,2022.2.5,Win32,60.24096386,,,,,,,,,,,,,,,,,,,,,,,9,5,img/B05_09.jpg,BLEND,Press J if the face is a BLEND and K if the face is a NON-BLEND,A blend is a computer-generated image created by combining together multiple photos of real human faces. A non-blend is a regular photo of a human face.,JK,,,,,,,,,,,,,,,,,,,,,,,,,,,,,,,,,,,,,,,,,,,,,,410.7171,0,17,17,53,1,109,0,0,0,0,1,98,,,,,,,,,,,,,,,,,,,,,,,,,,,,,,,,,,,,,,,,,,,,,,,,,,,,,,,,,,,,,,,,,,,,,,,,,,
,,,,513236,001,2024-02-02_11h37.57.261,fluency,2022.2.5,Win32,60.24096386,,,,,,,,,,,,,,,,,,,,,,,,,,,,,,,,,,,,,,,,,,,,,,,,,,,,,,,,,,,,,,,,,,,,,,,,,,,,,,,,,,0,0,0,0,1,,"[""k""]",[1.783400000095412],2,"[""k""]",[1.7832999999523622],,,,,,,,,,,,,,,,,,,,,,,,,,,,,,,,,,,,,,,,,,,,,,,,,,,,,,,,,,,,,,,,,,,,,
,,,,513236,001,2024-02-02_11h37.57.261,fluency,2022.2.5,Win32,60.24096386,,,,,,,,,,,,,,,,,,,,,,,9,5,img/B05_09.jpg,BLEND,Press J if the face is a BLEND and K if the face is a NON-BLEND,A blend is a computer-generated image created by combining together multiple photos of real human faces. A non-blend is a regular photo of a human face.,JK,,,,,,,,,,,,,,,,,,,,,,,,,,,,,,,,8,2.2739,,,,,,,,,,,,,,0,17,17,53,1,,,,,,,,,,,,,space,3.3528,,,,,,,,,,,,,,,,,,,,,,,,,,,,,,,,,,,,,,,,,,,,,,,,,,,,,,,,,,,,,,,,,,,
,,,,513236,001,2024-02-02_11h37.57.261,fluency,2022.2.5,Win32,60.24096386,,,,,,,,,,,,,,,,,,,,,,,6,4,img/B04_06.jpg,BLEND,Press J if the face is a BLEND and K if the face is a NON-BLEND,A blend is a computer-generated image created by combining together multiple photos of real human faces. A non-blend is a regular photo of a human face.,JK,,,,,,,,,,,,,,,,,,,,,,,,,,,,,,,,,,,,,,,,,,,,,,421.4454,0,18,18,39,1,109,0,0,0,0,1,98,,,,,,,,,,,,,,,,,,,,,,,,,,,,,,,,,,,,,,,,,,,,,,,,,,,,,,,,,,,,,,,,,,,,,,,,,,
,,,,513236,001,2024-02-02_11h37.57.261,fluency,2022.2.5,Win32,60.24096386,,,,,,,,,,,,,,,,,,,,,,,,,,,,,,,,,,,,,,,,,,,,,,,,,,,,,,,,,,,,,,,,,,,,,,,,,,,,,,,,,,0,0,0,0,1,,"[""j""]",[0.8942999999522954],2,"[""j""]",[0.8944000000953451],,,,,,,,,,,,,,,,,,,,,,,,,,,,,,,,,,,,,,,,,,,,,,,,,,,,,,,,,,,,,,,,,,,,,
,,,,513236,001,2024-02-02_11h37.57.261,fluency,2022.2.5,Win32,60.24096386,,,,,,,,,,,,,,,,,,,,,,,6,4,img/B04_06.jpg,BLEND,Press J if the face is a BLEND and K if the face is a NON-BLEND,A blend is a computer-generated image created by combining together multiple photos of real human faces. A non-blend is a regular photo of a human face.,JK,,,,,,,,,,,,,,,,,,,,,,,,,,,,,,,,8,2.1695,,,,,,,,,,,,,,0,18,18,39,1,,,,,,,,,,,,,space,1.8842,,,,,,,,,,,,,,,,,,,,,,,,,,,,,,,,,,,,,,,,,,,,,,,,,,,,,,,,,,,,,,,,,,,
,,,,513236,001,2024-02-02_11h37.57.261,fluency,2022.2.5,Win32,60.24096386,,,,,,,,,,,,,,,,,,,,,,,5,7,img/B07_05.jpg,BLEND,Press J if the face is a BLEND and K if the face is a NON-BLEND,A blend is a computer-generated image created by combining together multiple photos of real human faces. A non-blend is a regular photo of a human face.,JK,,,,,,,,,,,,,,,,,,,,,,,,,,,,,,,,,,,,,,,,,,,,,,429.5759,0,19,19,71,1,109,0,0,0,0,1,98,,,,,,,,,,,,,,,,,,,,,,,,,,,,,,,,,,,,,,,,,,,,,,,,,,,,,,,,,,,,,,,,,,,,,,,,,,
,,,,513236,001,2024-02-02_11h37.57.261,fluency,2022.2.5,Win32,60.24096386,,,,,,,,,,,,,,,,,,,,,,,,,,,,,,,,,,,,,,,,,,,,,,,,,,,,,,,,,,,,,,,,,,,,,,,,,,,,,,,,,,0,0,0,0,1,,"[""j""]",[0.8855999999046276],2,"[""j""]",[0.8855999999046276],,,,,,,,,,,,,,,,,,,,,,,,,,,,,,,,,,,,,,,,,,,,,,,,,,,,,,,,,,,,,,,,,,,,,
,,,,513236,001,2024-02-02_11h37.57.261,fluency,2022.2.5,Win32,60.24096386,,,,,,,,,,,,,,,,,,,,,,,5,7,img/B07_05.jpg,BLEND,Press J if the face is a BLEND and K if the face is a NON-BLEND,A blend is a computer-generated image created by combining together multiple photos of real human faces. A non-blend is a regular photo of a human face.,JK,,,,,,,,,,,,,,,,,,,,,,,,,,,,,,,,7,1.9478,,,,,,,,,,,,,,0,19,19,71,1,,,,,,,,,,,,,space,5.0885,,,,,,,,,,,,,,,,,,,,,,,,,,,,,,,,,,,,,,,,,,,,,,,,,,,,,,,,,,,,,,,,,,,
,,,,513236,001,2024-02-02_11h37.57.261,fluency,2022.2.5,Win32,60.24096386,,,,,,,,,,,,,,,,,,,,,,,10,4,img/B04_10.jpg,BLEND,Press J if the face is a BLEND and K if the face is a NON-BLEND,A blend is a computer-generated image created by combining together multiple photos of real human faces. A non-blend is a regular photo of a human face.,JK,,,,,,,,,,,,,,,,,,,,,,,,,,,,,,,,,,,,,,,,,,,,,,440.7206,0,20,20,43,1,109,0,0,0,0,1,98,,,,,,,,,,,,,,,,,,,,,,,,,,,,,,,,,,,,,,,,,,,,,,,,,,,,,,,,,,,,,,,,,,,,,,,,,,
,,,,513236,001,2024-02-02_11h37.57.261,fluency,2022.2.5,Win32,60.24096386,,,,,,,,,,,,,,,,,,,,,,,,,,,,,,,,,,,,,,,,,,,,,,,,,,,,,,,,,,,,,,,,,,,,,,,,,,,,,,,,,,0,0,0,0,1,,"[""k""]",[1.2353000001907048],2,"[""k""]",[1.2352999999523036],,,,,,,,,,,,,,,,,,,,,,,,,,,,,,,,,,,,,,,,,,,,,,,,,,,,,,,,,,,,,,,,,,,,,
,,,,513236,001,2024-02-02_11h37.57.261,fluency,2022.2.5,Win32,60.24096386,,,,,,,,,,,,,,,,,,,,,,,10,4,img/B04_10.jpg,BLEND,Press J if the face is a BLEND and K if the face is a NON-BLEND,A blend is a computer-generated image created by combining together multiple photos of real human faces. A non-blend is a regular photo of a human face.,JK,,,,,,,,,,,,,,,,,,,,,,,,,,,,,,,,9,2.0518,,,,,,,,,,,,,,0,20,20,43,1,,,,,,,,,,,,,space,1.5015,,,,,,,,,,,,,,,,,,,,,,,,,,,,,,,,,,,,,,,,,,,,,,,,,,,,,,,,,,,,,,,,,,,
,,,,513236,001,2024-02-02_11h37.57.261,fluency,2022.2.5,Win32,60.24096386,,,,,,,,,,,,,,,,,,,,,,,7,2,img/B02_07.jpg,BLEND,Press J if the face is a BLEND and K if the face is a NON-BLEND,A blend is a computer-generated image created by combining together multiple photos of real human faces. A non-blend is a regular photo of a human face.,JK,,,,,,,,,,,,,,,,,,,,,,,,,,,,,,,,,,,,,,,,,,,,,,449.3502,0,21,21,18,1,109,0,0,0,0,1,98,,,,,,,,,,,,,,,,,,,,,,,,,,,,,,,,,,,,,,,,,,,,,,,,,,,,,,,,,,,,,,,,,,,,,,,,,,
,,,,513236,001,2024-02-02_11h37.57.261,fluency,2022.2.5,Win32,60.24096386,,,,,,,,,,,,,,,,,,,,,,,,,,,,,,,,,,,,,,,,,,,,,,,,,,,,,,,,,,,,,,,,,,,,,,,,,,,,,,,,,,0,0,0,0,1,,"[""j""]",[1.4297999999523086],2,"[""j""]",[1.4296999998092588],,,,,,,,,,,,,,,,,,,,,,,,,,,,,,,,,,,,,,,,,,,,,,,,,,,,,,,,,,,,,,,,,,,,,
,,,,513236,001,2024-02-02_11h37.57.261,fluency,2022.2.5,Win32,60.24096386,,,,,,,,,,,,,,,,,,,,,,,7,2,img/B02_07.jpg,BLEND,Press J if the face is a BLEND and K if the face is a NON-BLEND,A blend is a computer-generated image created by combining together multiple photos of real human faces. A non-blend is a regular photo of a human face.,JK,,,,,,,,,,,,,,,,,,,,,,,,,,,,,,,,8,1.1037,,,,,,,,,,,,,,0,21,21,18,1,,,,,,,,,,,,,space,4.2532,,,,,,,,,,,,,,,,,,,,,,,,,,,,,,,,,,,,,,,,,,,,,,,,,,,,,,,,,,,,,,,,,,,
,,,,513236,001,2024-02-02_11h37.57.261,fluency,2022.2.5,Win32,60.24096386,,,,,,,,,,,,,,,,,,,,,,,3,8,img/B08_03.jpg,BLEND,Press J if the face is a BLEND and K if the face is a NON-BLEND,A blend is a computer-generated image created by combining together multiple photos of real human faces. A non-blend is a regular photo of a human face.,JK,,,,,,,,,,,,,,,,,,,,,,,,,,,,,,,,,,,,,,,,,,,,,,459.7953,0,22,22,80,1,109,0,0,0,0,1,98,,,,,,,,,,,,,,,,,,,,,,,,,,,,,,,,,,,,,,,,,,,,,,,,,,,,,,,,,,,,,,,,,,,,,,,,,,
,,,,513236,001,2024-02-02_11h37.57.261,fluency,2022.2.5,Win32,60.24096386,,,,,,,,,,,,,,,,,,,,,,,,,,,,,,,,,,,,,,,,,,,,,,,,,,,,,,,,,,,,,,,,,,,,,,,,,,,,,,,,,,0,0,0,0,1,,"[""j""]",[1.697699999809231],2,"[""j""]",[1.6975999999045825],,,,,,,,,,,,,,,,,,,,,,,,,,,,,,,,,,,,,,,,,,,,,,,,,,,,,,,,,,,,,,,,,,,,,
,,,,513236,001,2024-02-02_11h37.57.261,fluency,2022.2.5,Win32,60.24096386,,,,,,,,,,,,,,,,,,,,,,,3,8,img/B08_03.jpg,BLEND,Press J if the face is a BLEND and K if the face is a NON-BLEND,A blend is a computer-generated image created by combining together multiple photos of real human faces. A non-blend is a regular photo of a human face.,JK,,,,,,,,,,,,,,,,,,,,,,,,,,,,,,,,7,3.0196,,,,,,,,,,,,,,0,22,22,80,1,,,,,,,,,,,,,space,1.5163,,,,,,,,,,,,,,,,,,,,,,,,,,,,,,,,,,,,,,,,,,,,,,,,,,,,,,,,,,,,,,,,,,,
,,,,513236,001,2024-02-02_11h37.57.261,fluency,2022.2.5,Win32,60.24096386,,,,,,,,,,,,,,,,,,,,,,,1,10,img/B10_01.jpg,BLEND,Press J if the face is a BLEND and K if the face is a NON-BLEND,A blend is a computer-generated image created by combining together multiple photos of real human faces. A non-blend is a regular photo of a human face.,JK,,,,,,,,,,,,,,,,,,,,,,,,,,,,,,,,,,,,,,,,,,,,,,468.4249,0,23,23,100,1,109,0,0,0,0,1,98,,,,,,,,,,,,,,,,,,,,,,,,,,,,,,,,,,,,,,,,,,,,,,,,,,,,,,,,,,,,,,,,,,,,,,,,,,
,,,,513236,001,2024-02-02_11h37.57.261,fluency,2022.2.5,Win32,60.24096386,,,,,,,,,,,,,,,,,,,,,,,,,,,,,,,,,,,,,,,,,,,,,,,,,,,,,,,,,,,,,,,,,,,,,,,,,,,,,,,,,,0,0,0,0,1,,"[""k""]",[1.5616000001430166],2,"[""k""]",[1.5614000000953183],,,,,,,,,,,,,,,,,,,,,,,,,,,,,,,,,,,,,,,,,,,,,,,,,,,,,,,,,,,,,,,,,,,,,
,,,,513236,001,2024-02-02_11h37.57.261,fluency,2022.2.5,Win32,60.24096386,,,,,,,,,,,,,,,,,,,,,,,1,10,img/B10_01.jpg,BLEND,Press J if the face is a BLEND and K if the face is a NON-BLEND,A blend is a computer-generated image created by combining together multiple photos of real human faces. A non-blend is a regular photo of a human face.,JK,,,,,,,,,,,,,,,,,,,,,,,,,,,,,,,,7,4.3074,,,,,,,,,,,,,,0,23,23,100,1,,,,,,,,,,,,,space,1.2556,,,,,,,,,,,,,,,,,,,,,,,,,,,,,,,,,,,,,,,,,,,,,,,,,,,,,,,,,,,,,,,,,,,
,,,,513236,001,2024-02-02_11h37.57.261,fluency,2022.2.5,Win32,60.24096386,,,,,,,,,,,,,,,,,,,,,,,5,3,img/B03_05.jpg,BLEND,Press J if the face is a BLEND and K if the face is a NON-BLEND,A blend is a computer-generated image created by combining together multiple photos of real human faces. A non-blend is a regular photo of a human face.,JK,,,,,,,,,,,,,,,,,,,,,,,,,,,,,,,,,,,,,,,,,,,,,,478.0707,0,24,24,27,1,109,0,0,0,0,1,98,,,,,,,,,,,,,,,,,,,,,,,,,,,,,,,,,,,,,,,,,,,,,,,,,,,,,,,,,,,,,,,,,,,,,,,,,,
,,,,513236,001,2024-02-02_11h37.57.261,fluency,2022.2.5,Win32,60.24096386,,,,,,,,,,,,,,,,,,,,,,,,,,,,,,,,,,,,,,,,,,,,,,,,,,,,,,,,,,,,,,,,,,,,,,,,,,,,,,,,,,0,0,0,0,1,,"[""j""]",[2.1417999999522976],2,"[""j""]",[2.1415999999045994],,,,,,,,,,,,,,,,,,,,,,,,,,,,,,,,,,,,,,,,,,,,,,,,,,,,,,,,,,,,,,,,,,,,,
,,,,513236,001,2024-02-02_11h37.57.261,fluency,2022.2.5,Win32,60.24096386,,,,,,,,,,,,,,,,,,,,,,,5,3,img/B03_05.jpg,BLEND,Press J if the face is a BLEND and K if the face is a NON-BLEND,A blend is a computer-generated image created by combining together multiple photos of real human faces. A non-blend is a regular photo of a human face.,JK,,,,,,,,,,,,,,,,,,,,,,,,,,,,,,,,8,3.4944,,,,,,,,,,,,,,0,24,24,27,1,,,,,,,,,,,,,space,1.2751,,,,,,,,,,,,,,,,,,,,,,,,,,,,,,,,,,,,,,,,,,,,,,,,,,,,,,,,,,,,,,,,,,,
,,,,513236,001,2024-02-02_11h37.57.261,fluency,2022.2.5,Win32,60.24096386,,,,,,,,,,,,,,,,,,,,,,,2,4,img/B04_02.jpg,BLEND,Press J if the face is a BLEND and K if the face is a NON-BLEND,A blend is a computer-generated image created by combining together multiple photos of real human faces. A non-blend is a regular photo of a human face.,JK,,,,,,,,,,,,,,,,,,,,,,,,,,,,,,,,,,,,,,,,,,,,,,486.9338,0,25,25,35,1,109,0,0,0,0,1,98,,,,,,,,,,,,,,,,,,,,,,,,,,,,,,,,,,,,,,,,,,,,,,,,,,,,,,,,,,,,,,,,,,,,,,,,,,
,,,,513236,001,2024-02-02_11h37.57.261,fluency,2022.2.5,Win32,60.24096386,,,,,,,,,,,,,,,,,,,,,,,,,,,,,,,,,,,,,,,,,,,,,,,,,,,,,,,,,,,,,,,,,,,,,,,,,,,,,,,,,,0,0,0,0,1,,"[""j""]",[2.20829999995226],2,"[""j""]",[2.20829999995226],,,,,,,,,,,,,,,,,,,,,,,,,,,,,,,,,,,,,,,,,,,,,,,,,,,,,,,,,,,,,,,,,,,,,
,,,,513236,001,2024-02-02_11h37.57.261,fluency,2022.2.5,Win32,60.24096386,,,,,,,,,,,,,,,,,,,,,,,2,4,img/B04_02.jpg,BLEND,Press J if the face is a BLEND and K if the face is a NON-BLEND,A blend is a computer-generated image created by combining together multiple photos of real human faces. A non-blend is a regular photo of a human face.,JK,,,,,,,,,,,,,,,,,,,,,,,,,,,,,,,,8,2.529,,,,,,,,,,,,,,0,25,25,35,1,,,,,,,,,,,,,space,3.7509,,,,,,,,,,,,,,,,,,,,,,,,,,,,,,,,,,,,,,,,,,,,,,,,,,,,,,,,,,,,,,,,,,,
,,,,513236,001,2024-02-02_11h37.57.261,fluency,2022.2.5,Win32,60.24096386,,,,,,,,,,,,,,,,,,,,,,,10,8,img/B08_10.jpg,BLEND,Press J if the face is a BLEND and K if the face is a NON-BLEND,A blend is a computer-generated image created by combining together multiple photos of real human faces. A non-blend is a regular photo of a human face.,JK,,,,,,,,,,,,,,,,,,,,,,,,,,,,,,,,,,,,,,,,,,,,,,497.329,0,26,26,87,1,109,0,0,0,0,1,98,,,,,,,,,,,,,,,,,,,,,,,,,,,,,,,,,,,,,,,,,,,,,,,,,,,,,,,,,,,,,,,,,,,,,,,,,,
,,,,513236,001,2024-02-02_11h37.57.261,fluency,2022.2.5,Win32,60.24096386,,,,,,,,,,,,,,,,,,,,,,,,,,,,,,,,,,,,,,,,,,,,,,,,,,,,,,,,,,,,,,,,,,,,,,,,,,,,,,,,,,0,0,0,0,1,,"[""j""]",[1.9312000000477383],2,"[""j""]",[1.93100000000004],,,,,,,,,,,,,,,,,,,,,,,,,,,,,,,,,,,,,,,,,,,,,,,,,,,,,,,,,,,,,,,,,,,,,
,,,,513236,001,2024-02-02_11h37.57.261,fluency,2022.2.5,Win32,60.24096386,,,,,,,,,,,,,,,,,,,,,,,10,8,img/B08_10.jpg,BLEND,Press J if the face is a BLEND and K if the face is a NON-BLEND,A blend is a computer-generated image created by combining together multiple photos of real human faces. A non-blend is a regular photo of a human face.,JK,,,,,,,,,,,,,,,,,,,,,,,,,,,,,,,,5,3.916,,,,,,,,,,,,,,0,26,26,87,1,,,,,,,,,,,,,space,1.5171,,,,,,,,,,,,,,,,,,,,,,,,,,,,,,,,,,,,,,,,,,,,,,,,,,,,,,,,,,,,,,,,,,,
,,,,513236,001,2024-02-02_11h37.57.261,fluency,2022.2.5,Win32,60.24096386,,,,,,,,,,,,,,,,,,,,,,,9,1,img/B01_09.jpg,BLEND,Press J if the face is a BLEND and K if the face is a NON-BLEND,A blend is a computer-generated image created by combining together multiple photos of real human faces. A non-blend is a regular photo of a human face.,JK,,,,,,,,,,,,,,,,,,,,,,,,,,,,,,,,,,,,,,,,,,,,,,507.8772,0,27,27,9,1,109,0,0,0,0,1,98,,,,,,,,,,,,,,,,,,,,,,,,,,,,,,,,,,,,,,,,,,,,,,,,,,,,,,,,,,,,,,,,,,,,,,,,,,
,,,,513236,001,2024-02-02_11h37.57.261,fluency,2022.2.5,Win32,60.24096386,,,,,,,,,,,,,,,,,,,,,,,,,,,,,,,,,,,,,,,,,,,,,,,,,,,,,,,,,,,,,,,,,,,,,,,,,,,,,,,,,,0,0,0,0,1,,"[""k""]",[1.1116000001429711],2,"[""k""]",[1.1115000000000919],,,,,,,,,,,,,,,,,,,,,,,,,,,,,,,,,,,,,,,,,,,,,,,,,,,,,,,,,,,,,,,,,,,,,
,,,,513236,001,2024-02-02_11h37.57.261,fluency,2022.2.5,Win32,60.24096386,,,,,,,,,,,,,,,,,,,,,,,9,1,img/B01_09.jpg,BLEND,Press J if the face is a BLEND and K if the face is a NON-BLEND,A blend is a computer-generated image created by combining together multiple photos of real human faces. A non-blend is a regular photo of a human face.,JK,,,,,,,,,,,,,,,,,,,,,,,,,,,,,,,,8,2.2854,,,,,,,,,,,,,,0,27,27,9,1,,,,,,,,,,,,,space,1.5589,,,,,,,,,,,,,,,,,,,,,,,,,,,,,,,,,,,,,,,,,,,,,,,,,,,,,,,,,,,,,,,,,,,
,,,,513236,001,2024-02-02_11h37.57.261,fluency,2022.2.5,Win32,60.24096386,,,,,,,,,,,,,,,,,,,,,,,1,3,img/B03_01.jpg,BLEND,Press J if the face is a BLEND and K if the face is a NON-BLEND,A blend is a computer-generated image created by combining together multiple photos of real human faces. A non-blend is a regular photo of a human face.,JK,,,,,,,,,,,,,,,,,,,,,,,,,,,,,,,,,,,,,,,,,,,,,,516.8199,0,28,28,23,1,109,0,0,0,0,1,98,,,,,,,,,,,,,,,,,,,,,,,,,,,,,,,,,,,,,,,,,,,,,,,,,,,,,,,,,,,,,,,,,,,,,,,,,,
,,,,513236,001,2024-02-02_11h37.57.261,fluency,2022.2.5,Win32,60.24096386,,,,,,,,,,,,,,,,,,,,,,,,,,,,,,,,,,,,,,,,,,,,,,,,,,,,,,,,,,,,,,,,,,,,,,,,,,,,,,,,,,0,0,0,0,1,,"[""k""]",[1.5822999999522835],2,"[""k""]",[1.5820999999045853],,,,,,,,,,,,,,,,,,,,,,,,,,,,,,,,,,,,,,,,,,,,,,,,,,,,,,,,,,,,,,,,,,,,,
,,,,513236,001,2024-02-02_11h37.57.261,fluency,2022.2.5,Win32,60.24096386,,,,,,,,,,,,,,,,,,,,,,,1,3,img/B03_01.jpg,BLEND,Press J if the face is a BLEND and K if the face is a NON-BLEND,A blend is a computer-generated image created by combining together multiple photos of real human faces. A non-blend is a regular photo of a human face.,JK,,,,,,,,,,,,,,,,,,,,,,,,,,,,,,,,7,1.6978,,,,,,,,,,,,,,0,28,28,23,1,,,,,,,,,,,,,space,1.0505,,,,,,,,,,,,,,,,,,,,,,,,,,,,,,,,,,,,,,,,,,,,,,,,,,,,,,,,,,,,,,,,,,,
,,,,513236,001,2024-02-02_11h37.57.261,fluency,2022.2.5,Win32,60.24096386,,,,,,,,,,,,,,,,,,,,,,,2,3,img/B03_02.jpg,BLEND,Press J if the face is a BLEND and K if the face is a NON-BLEND,A blend is a computer-generated image created by combining together multiple photos of real human faces. A non-blend is a regular photo of a human face.,JK,,,,,,,,,,,,,,,,,,,,,,,,,,,,,,,,,,,,,,,,,,,,,,524.6332,0,29,29,24,1,109,0,0,0,0,1,98,,,,,,,,,,,,,,,,,,,,,,,,,,,,,,,,,,,,,,,,,,,,,,,,,,,,,,,,,,,,,,,,,,,,,,,,,,
,,,,513236,001,2024-02-02_11h37.57.261,fluency,2022.2.5,Win32,60.24096386,,,,,,,,,,,,,,,,,,,,,,,,,,,,,,,,,,,,,,,,,,,,,,,,,,,,,,,,,,,,,,,,,,,,,,,,,,,,,,,,,,0,0,0,0,1,,"[""j""]",[1.967999999999961],2,"[""j""]",[1.967999999999961],,,,,,,,,,,,,,,,,,,,,,,,,,,,,,,,,,,,,,,,,,,,,,,,,,,,,,,,,,,,,,,,,,,,,
,,,,513236,001,2024-02-02_11h37.57.261,fluency,2022.2.5,Win32,60.24096386,,,,,,,,,,,,,,,,,,,,,,,2,3,img/B03_02.jpg,BLEND,Press J if the face is a BLEND and K if the face is a NON-BLEND,A blend is a computer-generated image created by combining together multiple photos of real human faces. A non-blend is a regular photo of a human face.,JK,,,,,,,,,,,,,,,,,,,,,,,,,,,,,,,,7,3.5155,,,,,,,,,,,,,,0,29,29,24,1,,,,,,,,,,,,,space,1.3157,,,,,,,,,,,,,,,,,,,,,,,,,,,,,,,,,,,,,,,,,,,,,,,,,,,,,,,,,,,,,,,,,,,
,,,,513236,001,2024-02-02_11h37.57.261,fluency,2022.2.5,Win32,60.24096386,,,,,,,,,,,,,,,,,,,,,,,3,1,img/B01_03.jpg,BLEND,Press J if the face is a BLEND and K if the face is a NON-BLEND,A blend is a computer-generated image created by combining together multiple photos of real human faces. A non-blend is a regular photo of a human face.,JK,,,,,,,,,,,,,,,,,,,,,,,,,,,,,,,,,,,,,,,,,,,,,,533.5465,0,30,30,3,1,109,0,0,0,0,1,98,,,,,,,,,,,,,,,,,,,,,,,,,,,,,,,,,,,,,,,,,,,,,,,,,,,,,,,,,,,,,,,,,,,,,,,,,,
,,,,513236,001,2024-02-02_11h37.57.261,fluency,2022.2.5,Win32,60.24096386,,,,,,,,,,,,,,,,,,,,,,,,,,,,,,,,,,,,,,,,,,,,,,,,,,,,,,,,,,,,,,,,,,,,,,,,,,,,,,,,,,0,0,0,0,1,,"[""j""]",[1.6772000000477192],2,"[""j""]",[1.6769000000953156],,,,,,,,,,,,,,,,,,,,,,,,,,,,,,,,,,,,,,,,,,,,,,,,,,,,,,,,,,,,,,,,,,,,,
,,,,513236,001,2024-02-02_11h37.57.261,fluency,2022.2.5,Win32,60.24096386,,,,,,,,,,,,,,,,,,,,,,,3,1,img/B01_03.jpg,BLEND,Press J if the face is a BLEND and K if the face is a NON-BLEND,A blend is a computer-generated image created by combining together multiple photos of real human faces. A non-blend is a regular photo of a human face.,JK,,,,,,,,,,,,,,,,,,,,,,,,,,,,,,,,6,4.4576,,,,,,,,,,,,,,0,30,30,3,1,,,,,,,,,,,,,space,1.3032,,,,,,,,,,,,,,,,,,,,,,,,,,,,,,,,,,,,,,,,,,,,,,,,,,,,,,,,,,,,,,,,,,,
,,,,513236,001,2024-02-02_11h37.57.261,fluency,2022.2.5,Win32,60.24096386,,,,,,,,,,,,,,,,,,,,,,,1,9,img/B09_01.jpg,BLEND,Press J if the face is a BLEND and K if the face is a NON-BLEND,A blend is a computer-generated image created by combining together multiple photos of real human faces. A non-blend is a regular photo of a human face.,JK,,,,,,,,,,,,,,,,,,,,,,,,,,,,,,,,,,,,,,,,,,,,,,544.4242,0,31,31,89,1,109,0,0,0,0,1,98,,,,,,,,,,,,,,,,,,,,,,,,,,,,,,,,,,,,,,,,,,,,,,,,,,,,,,,,,,,,,,,,,,,,,,,,,,
,,,,513236,001,2024-02-02_11h37.57.261,fluency,2022.2.5,Win32,60.24096386,,,,,,,,,,,,,,,,,,,,,,,,,,,,,,,,,,,,,,,,,,,,,,,,,,,,,,,,,,,,,,,,,,,,,,,,,,,,,,,,,,0,0,0,0,1,,"[""k""]",[1.4965999999045607],2,"[""k""]",[1.496499999999969],,,,,,,,,,,,,,,,,,,,,,,,,,,,,,,,,,,,,,,,,,,,,,,,,,,,,,,,,,,,,,,,,,,,,
,,,,513236,001,2024-02-02_11h37.57.261,fluency,2022.2.5,Win32,60.24096386,,,,,,,,,,,,,,,,,,,,,,,1,9,img/B09_01.jpg,BLEND,Press J if the face is a BLEND and K if the face is a NON-BLEND,A blend is a computer-generated image created by combining together multiple photos of real human faces. A non-blend is a regular photo of a human face.,JK,,,,,,,,,,,,,,,,,,,,,,,,,,,,,,,,6,2.5422,,,,,,,,,,,,,,0,31,31,89,1,,,,,,,,,,,,,space,2.0664,,,,,,,,,,,,,,,,,,,,,,,,,,,,,,,,,,,,,,,,,,,,,,,,,,,,,,,,,,,,,,,,,,,
,,,,513236,001,2024-02-02_11h37.57.261,fluency,2022.2.5,Win32,60.24096386,,,,,,,,,,,,,,,,,,,,,,,0,4,img/B04_00.jpg,BLEND,Press J if the face is a BLEND and K if the face is a NON-BLEND,A blend is a computer-generated image created by combining together multiple photos of real human faces. A non-blend is a regular photo of a human face.,JK,,,,,,,,,,,,,,,,,,,,,,,,,,,,,,,,,,,,,,,,,,,,,,554.1214,0,32,32,33,1,109,0,0,0,0,1,98,,,,,,,,,,,,,,,,,,,,,,,,,,,,,,,,,,,,,,,,,,,,,,,,,,,,,,,,,,,,,,,,,,,,,,,,,,
,,,,513236,001,2024-02-02_11h37.57.261,fluency,2022.2.5,Win32,60.24096386,,,,,,,,,,,,,,,,,,,,,,,,,,,,,,,,,,,,,,,,,,,,,,,,,,,,,,,,,,,,,,,,,,,,,,,,,,,,,,,,,,0,0,0,0,1,,"[""k""]",[0.9664999999999964],2,"[""k""]",[0.9666000001429893],,,,,,,,,,,,,,,,,,,,,,,,,,,,,,,,,,,,,,,,,,,,,,,,,,,,,,,,,,,,,,,,,,,,,
,,,,513236,001,2024-02-02_11h37.57.261,fluency,2022.2.5,Win32,60.24096386,,,,,,,,,,,,,,,,,,,,,,,0,4,img/B04_00.jpg,BLEND,Press J if the face is a BLEND and K if the face is a NON-BLEND,A blend is a computer-generated image created by combining together multiple photos of real human faces. A non-blend is a regular photo of a human face.,JK,,,,,,,,,,,,,,,,,,,,,,,,,,,,,,,,7,1.0843,,,,,,,,,,,,,,0,32,32,33,1,,,,,,,,,,,,,space,1.6712,,,,,,,,,,,,,,,,,,,,,,,,,,,,,,,,,,,,,,,,,,,,,,,,,,,,,,,,,,,,,,,,,,,
,,,,513236,001,2024-02-02_11h37.57.261,fluency,2022.2.5,Win32,60.24096386,,,,,,,,,,,,,,,,,,,,,,,9,7,img/B07_09.jpg,BLEND,Press J if the face is a BLEND and K if the face is a NON-BLEND,A blend is a computer-generated image created by combining together multiple photos of real human faces. A non-blend is a regular photo of a human face.,JK,,,,,,,,,,,,,,,,,,,,,,,,,,,,,,,,,,,,,,,,,,,,,,560.9669,0,33,33,75,1,109,0,0,0,0,1,98,,,,,,,,,,,,,,,,,,,,,,,,,,,,,,,,,,,,,,,,,,,,,,,,,,,,,,,,,,,,,,,,,,,,,,,,,,
,,,,513236,001,2024-02-02_11h37.57.261,fluency,2022.2.5,Win32,60.24096386,,,,,,,,,,,,,,,,,,,,,,,,,,,,,,,,,,,,,,,,,,,,,,,,,,,,,,,,,,,,,,,,,,,,,,,,,,,,,,,,,,0,0,0,0,1,,"[""j""]",[1.5922999999522744],2,"[""j""]",[1.5923000001907894],,,,,,,,,,,,,,,,,,,,,,,,,,,,,,,,,,,,,,,,,,,,,,,,,,,,,,,,,,,,,,,,,,,,,
,,,,513236,001,2024-02-02_11h37.57.261,fluency,2022.2.5,Win32,60.24096386,,,,,,,,,,,,,,,,,,,,,,,9,7,img/B07_09.jpg,BLEND,Press J if the face is a BLEND and K if the face is a NON-BLEND,A blend is a computer-generated image created by combining together multiple photos of real human faces. A non-blend is a regular photo of a human face.,JK,,,,,,,,,,,,,,,,,,,,,,,,,,,,,,,,8,1.6648,,,,,,,,,,,,,,0,33,33,75,1,,,,,,,,,,,,,space,1.7528,,,,,,,,,,,,,,,,,,,,,,,,,,,,,,,,,,,,,,,,,,,,,,,,,,,,,,,,,,,,,,,,,,,
,,,,513236,001,2024-02-02_11h37.57.261,fluency,2022.2.5,Win32,60.24096386,,,,,,,,,,,,,,,,,,,,,,,1,2,img/B02_01.jpg,BLEND,Press J if the face is a BLEND and K if the face is a NON-BLEND,A blend is a computer-generated image created by combining together multiple photos of real human faces. A non-blend is a regular photo of a human face.,JK,,,,,,,,,,,,,,,,,,,,,,,,,,,,,,,,,,,,,,,,,,,,,,568.4637,0,34,34,12,1,109,0,0,0,0,1,98,,,,,,,,,,,,,,,,,,,,,,,,,,,,,,,,,,,,,,,,,,,,,,,,,,,,,,,,,,,,,,,,,,,,,,,,,,
,,,,513236,001,2024-02-02_11h37.57.261,fluency,2022.2.5,Win32,60.24096386,,,,,,,,,,,,,,,,,,,,,,,,,,,,,,,,,,,,,,,,,,,,,,,,,,,,,,,,,,,,,,,,,,,,,,,,,,,,,,,,,,0,0,0,0,1,,"[""j""]",[1.288799999952289],2,"[""j""]",[1.2887000000476974],,,,,,,,,,,,,,,,,,,,,,,,,,,,,,,,,,,,,,,,,,,,,,,,,,,,,,,,,,,,,,,,,,,,,
,,,,513236,001,2024-02-02_11h37.57.261,fluency,2022.2.5,Win32,60.24096386,,,,,,,,,,,,,,,,,,,,,,,1,2,img/B02_01.jpg,BLEND,Press J if the face is a BLEND and K if the face is a NON-BLEND,A blend is a computer-generated image created by combining together multiple photos of real human faces. A non-blend is a regular photo of a human face.,JK,,,,,,,,,,,,,,,,,,,,,,,,,,,,,,,,5,0.6107,,,,,,,,,,,,,,0,34,34,12,1,,,,,,,,,,,,,space,1.6322,,,,,,,,,,,,,,,,,,,,,,,,,,,,,,,,,,,,,,,,,,,,,,,,,,,,,,,,,,,,,,,,,,,
,,,,513236,001,2024-02-02_11h37.57.261,fluency,2022.2.5,Win32,60.24096386,,,,,,,,,,,,,,,,,,,,,,,2,1,img/B01_02.jpg,BLEND,Press J if the face is a BLEND and K if the face is a NON-BLEND,A blend is a computer-generated image created by combining together multiple photos of real human faces. A non-blend is a regular photo of a human face.,JK,,,,,,,,,,,,,,,,,,,,,,,,,,,,,,,,,,,,,,,,,,,,,,574.777,0,35,35,2,1,109,0,0,0,0,1,98,,,,,,,,,,,,,,,,,,,,,,,,,,,,,,,,,,,,,,,,,,,,,,,,,,,,,,,,,,,,,,,,,,,,,,,,,,
,,,,513236,001,2024-02-02_11h37.57.261,fluency,2022.2.5,Win32,60.24096386,,,,,,,,,,,,,,,,,,,,,,,,,,,,,,,,,,,,,,,,,,,,,,,,,,,,,,,,,,,,,,,,,,,,,,,,,,,,,,,,,,0,0,0,0,1,,"[""j""]",[1.2879000000954193],2,"[""j""]",[1.2878999998569043],,,,,,,,,,,,,,,,,,,,,,,,,,,,,,,,,,,,,,,,,,,,,,,,,,,,,,,,,,,,,,,,,,,,,
,,,,513236,001,2024-02-02_11h37.57.261,fluency,2022.2.5,Win32,60.24096386,,,,,,,,,,,,,,,,,,,,,,,2,1,img/B01_02.jpg,BLEND,Press J if the face is a BLEND and K if the face is a NON-BLEND,A blend is a computer-generated image created by combining together multiple photos of real human faces. A non-blend is a regular photo of a human face.,JK,,,,,,,,,,,,,,,,,,,,,,,,,,,,,,,,6,0.5537,,,,,,,,,,,,,,0,35,35,2,1,,,,,,,,,,,,,space,5.9197,,,,,,,,,,,,,,,,,,,,,,,,,,,,,,,,,,,,,,,,,,,,,,,,,,,,,,,,,,,,,,,,,,,
,,,,513236,001,2024-02-02_11h37.57.261,fluency,2022.2.5,Win32,60.24096386,,,,,,,,,,,,,,,,,,,,,,,7,8,img/B08_07.jpg,BLEND,Press J if the face is a BLEND and K if the face is a NON-BLEND,A blend is a computer-generated image created by combining together multiple photos of real human faces. A non-blend is a regular photo of a human face.,JK,,,,,,,,,,,,,,,,,,,,,,,,,,,,,,,,,,,,,,,,,,,,,,586.3563,0,36,36,84,1,109,0,0,0,0,1,98,,,,,,,,,,,,,,,,,,,,,,,,,,,,,,,,,,,,,,,,,,,,,,,,,,,,,,,,,,,,,,,,,,,,,,,,,,
,,,,513236,001,2024-02-02_11h37.57.261,fluency,2022.2.5,Win32,60.24096386,,,,,,,,,,,,,,,,,,,,,,,,,,,,,,,,,,,,,,,,,,,,,,,,,,,,,,,,,,,,,,,,,,,,,,,,,,,,,,,,,,0,0,0,0,1,,"[""j""]",[1.6716000001430302],2,"[""j""]",[1.6716000001430302],,,,,,,,,,,,,,,,,,,,,,,,,,,,,,,,,,,,,,,,,,,,,,,,,,,,,,,,,,,,,,,,,,,,,
,,,,513236,001,2024-02-02_11h37.57.261,fluency,2022.2.5,Win32,60.24096386,,,,,,,,,,,,,,,,,,,,,,,7,8,img/B08_07.jpg,BLEND,Press J if the face is a BLEND and K if the face is a NON-BLEND,A blend is a computer-generated image created by combining together multiple photos of real human faces. A non-blend is a regular photo of a human face.,JK,,,,,,,,,,,,,,,,,,,,,,,,,,,,,,,,7,3.7965,,,,,,,,,,,,,,0,36,36,84,1,,,,,,,,,,,,,space,1.0052,,,,,,,,,,,,,,,,,,,,,,,,,,,,,,,,,,,,,,,,,,,,,,,,,,,,,,,,,,,,,,,,,,,
,,,,513236,001,2024-02-02_11h37.57.261,fluency,2022.2.5,Win32,60.24096386,,,,,,,,,,,,,,,,,,,,,,,8,10,img/B10_08.jpg,BLEND,Press J if the face is a BLEND and K if the face is a NON-BLEND,A blend is a computer-generated image created by combining together multiple photos of real human faces. A non-blend is a regular photo of a human face.,JK,,,,,,,,,,,,,,,,,,,,,,,,,,,,,,,,,,,,,,,,,,,,,,596.2687,0,37,37,107,1,109,0,0,0,0,1,98,,,,,,,,,,,,,,,,,,,,,,,,,,,,,,,,,,,,,,,,,,,,,,,,,,,,,,,,,,,,,,,,,,,,,,,,,,
,,,,513236,001,2024-02-02_11h37.57.261,fluency,2022.2.5,Win32,60.24096386,,,,,,,,,,,,,,,,,,,,,,,,,,,,,,,,,,,,,,,,,,,,,,,,,,,,,,,,,,,,,,,,,,,,,,,,,,,,,,,,,,0,0,0,0,1,,"[""j""]",[2.0745000000000573],2,"[""j""]",[2.0743999998569507],,,,,,,,,,,,,,,,,,,,,,,,,,,,,,,,,,,,,,,,,,,,,,,,,,,,,,,,,,,,,,,,,,,,,
,,,,513236,001,2024-02-02_11h37.57.261,fluency,2022.2.5,Win32,60.24096386,,,,,,,,,,,,,,,,,,,,,,,8,10,img/B10_08.jpg,BLEND,Press J if the face is a BLEND and K if the face is a NON-BLEND,A blend is a computer-generated image created by combining together multiple photos of real human faces. A non-blend is a regular photo of a human face.,JK,,,,,,,,,,,,,,,,,,,,,,,,,,,,,,,,8,1.9847,,,,,,,,,,,,,,0,37,37,107,1,,,,,,,,,,,,,space,1.007,,,,,,,,,,,,,,,,,,,,,,,,,,,,,,,,,,,,,,,,,,,,,,,,,,,,,,,,,,,,,,,,,,,
,,,,513236,001,2024-02-02_11h37.57.261,fluency,2022.2.5,Win32,60.24096386,,,,,,,,,,,,,,,,,,,,,,,6,10,img/B10_06.jpg,BLEND,Press J if the face is a BLEND and K if the face is a NON-BLEND,A blend is a computer-generated image created by combining together multiple photos of real human faces. A non-blend is a regular photo of a human face.,JK,,,,,,,,,,,,,,,,,,,,,,,,,,,,,,,,,,,,,,,,,,,,,,603.3482,0,38,38,105,1,109,0,0,0,0,1,98,,,,,,,,,,,,,,,,,,,,,,,,,,,,,,,,,,,,,,,,,,,,,,,,,,,,,,,,,,,,,,,,,,,,,,,,,,
,,,,513236,001,2024-02-02_11h37.57.261,fluency,2022.2.5,Win32,60.24096386,,,,,,,,,,,,,,,,,,,,,,,,,,,,,,,,,,,,,,,,,,,,,,,,,,,,,,,,,,,,,,,,,,,,,,,,,,,,,,,,,,,,,,,,,,3,,,,,space,1.4096,0,0,0,0,1,,,,,,,,,,,,,,,,,,,,,,,,,,,,,,,,,,,,,,,,,,,,,,,,,,,,,,,,,,,,
,,,,513236,001,2024-02-02_11h37.57.261,fluency,2022.2.5,Win32,60.24096386,,,,,,,,,,,,,,,,,,,,,,,,,,,,,,,,,,,,,,,,,,,,,,,,,,,,,,,,,,,,,,,,,,,,,,,,,,,,,,,,,,0,0,0,0,1,,,,,,,,,,,,,,,,,,,,,,,,,,,,,,,,,,,,,,,,,,,,,,,,,,,,,,,,,,,,,,,,,,,,,,,,,,,
,,,,513236,001,2024-02-02_11h37.57.261,fluency,2022.2.5,Win32,60.24096386,,,,,,,,,,,,,,,,,,,,,,,6,10,img/B10_06.jpg,BLEND,Press J if the face is a BLEND and K if the face is a NON-BLEND,A blend is a computer-generated image created by combining together multiple photos of real human faces. A non-blend is a regular photo of a human face.,JK,,,,,,,,,,,,,,,,,,,,,,,,,,,,,,,,,,,,,,,,,,,,,,608.796,0,38,38,105,1,109,1,0,1,0,1,98,,,,,,,,,,,,,,,,,,,,,,,,,,,,,,,,,,,,,,,,,,,,,,,,,,,,,,,,,,,,,,,,,,,,,,,,,,
,,,,513236,001,2024-02-02_11h37.57.261,fluency,2022.2.5,Win32,60.24096386,,,,,,,,,,,,,,,,,,,,,,,,,,,,,,,,,,,,,,,,,,,,,,,,,,,,,,,,,,,,,,,,,,,,,,,,,,,,,,,,,,1,0,1,0,1,,"[""j""]",[0.6182000000476364],3,"[""j""]",[0.6179000000953465],,,,,,,,,,,,,,,,,,,,,,,,,,,,,,,,,,,,,,,,,,,,,,,,,,,,,,,,,,,,,,,,,,,,,
,,,,513236,001,2024-02-02_11h37.57.261,fluency,2022.2.5,Win32,60.24096386,,,,,,,,,,,,,,,,,,,,,,,6,10,img/B10_06.jpg,BLEND,Press J if the face is a BLEND and K if the face is a NON-BLEND,A blend is a computer-generated image created by combining together multiple photos of real human faces. A non-blend is a regular photo of a human face.,JK,,,,,,,,,,,,,,,,,,,,,,,,,,,,,,,,7,1.4666,,,,,,,,,,,,,,0,38,38,105,1,,,,,,,,,,,,,space,4.9499,,,,,,,,,,,,,,,,,,,,,,,,,,,,,,,,,,,,,,,,,,,,,,,,,,,,,,,,,,,,,,,,,,,
,,,,513236,001,2024-02-02_11h37.57.261,fluency,2022.2.5,Win32,60.24096386,,,,,,,,,,,,,,,,,,,,,,,1,1,img/B01_01.jpg,BLEND,Press J if the face is a BLEND and K if the face is a NON-BLEND,A blend is a computer-generated image created by combining together multiple photos of real human faces. A non-blend is a regular photo of a human face.,JK,,,,,,,,,,,,,,,,,,,,,,,,,,,,,,,,,,,,,,,,,,,,,,620.307,0,39,39,1,1,109,0,0,0,0,1,98,,,,,,,,,,,,,,,,,,,,,,,,,,,,,,,,,,,,,,,,,,,,,,,,,,,,,,,,,,,,,,,,,,,,,,,,,,
,,,,513236,001,2024-02-02_11h37.57.261,fluency,2022.2.5,Win32,60.24096386,,,,,,,,,,,,,,,,,,,,,,,,,,,,,,,,,,,,,,,,,,,,,,,,,,,,,,,,,,,,,,,,,,,,,,,,,,,,,,,,,,0,0,0,0,1,,"[""k""]",[1.5601999998092424],3,"[""k""]",[1.5601999998092424],,,,,,,,,,,,,,,,,,,,,,,,,,,,,,,,,,,,,,,,,,,,,,,,,,,,,,,,,,,,,,,,,,,,,
,,,,513236,001,2024-02-02_11h37.57.261,fluency,2022.2.5,Win32,60.24096386,,,,,,,,,,,,,,,,,,,,,,,1,1,img/B01_01.jpg,BLEND,Press J if the face is a BLEND and K if the face is a NON-BLEND,A blend is a computer-generated image created by combining together multiple photos of real human faces. A non-blend is a regular photo of a human face.,JK,,,,,,,,,,,,,,,,,,,,,,,,,,,,,,,,6,1.7264,,,,,,,,,,,,,,0,39,39,1,1,,,,,,,,,,,,,space,1.334,,,,,,,,,,,,,,,,,,,,,,,,,,,,,,,,,,,,,,,,,,,,,,,,,,,,,,,,,,,,,,,,,,,
,,,,513236,001,2024-02-02_11h37.57.261,fluency,2022.2.5,Win32,60.24096386,,,,,,,,,,,,,,,,,,,,,,,1,4,img/B04_01.jpg,BLEND,Press J if the face is a BLEND and K if the face is a NON-BLEND,A blend is a computer-generated image created by combining together multiple photos of real human faces. A non-blend is a regular photo of a human face.,JK,,,,,,,,,,,,,,,,,,,,,,,,,,,,,,,,,,,,,,,,,,,,,,628.4873,0,40,40,34,1,109,0,0,0,0,1,98,,,,,,,,,,,,,,,,,,,,,,,,,,,,,,,,,,,,,,,,,,,,,,,,,,,,,,,,,,,,,,,,,,,,,,,,,,
,,,,513236,001,2024-02-02_11h37.57.261,fluency,2022.2.5,Win32,60.24096386,,,,,,,,,,,,,,,,,,,,,,,,,,,,,,,,,,,,,,,,,,,,,,,,,,,,,,,,,,,,,,,,,,,,,,,,,,,,,,,,,,0,0,0,0,1,,"[""k""]",[1.465699999809317],3,"[""k""]",[1.4655999999046116],,,,,,,,,,,,,,,,,,,,,,,,,,,,,,,,,,,,,,,,,,,,,,,,,,,,,,,,,,,,,,,,,,,,,
,,,,513236,001,2024-02-02_11h37.57.261,fluency,2022.2.5,Win32,60.24096386,,,,,,,,,,,,,,,,,,,,,,,1,4,img/B04_01.jpg,BLEND,Press J if the face is a BLEND and K if the face is a NON-BLEND,A blend is a computer-generated image created by combining together multiple photos of real human faces. A non-blend is a regular photo of a human face.,JK,,,,,,,,,,,,,,,,,,,,,,,,,,,,,,,,8,1.7211,,,,,,,,,,,,,,0,40,40,34,1,,,,,,,,,,,,,space,1.6542,,,,,,,,,,,,,,,,,,,,,,,,,,,,,,,,,,,,,,,,,,,,,,,,,,,,,,,,,,,,,,,,,,,
,,,,513236,001,2024-02-02_11h37.57.261,fluency,2022.2.5,Win32,60.24096386,,,,,,,,,,,,,,,,,,,,,,,9,6,img/B06_09.jpg,BLEND,Press J if the face is a BLEND and K if the face is a NON-BLEND,A blend is a computer-generated image created by combining together multiple photos of real human faces. A non-blend is a regular photo of a human face.,JK,,,,,,,,,,,,,,,,,,,,,,,,,,,,,,,,,,,,,,,,,,,,,,636.9668,0,41,41,64,1,109,0,0,0,0,1,98,,,,,,,,,,,,,,,,,,,,,,,,,,,,,,,,,,,,,,,,,,,,,,,,,,,,,,,,,,,,,,,,,,,,,,,,,,
,,,,513236,001,2024-02-02_11h37.57.261,fluency,2022.2.5,Win32,60.24096386,,,,,,,,,,,,,,,,,,,,,,,,,,,,,,,,,,,,,,,,,,,,,,,,,,,,,,,,,,,,,,,,,,,,,,,,,,,,,,,,,,0,0,0,0,1,,"[""k""]",[1.2417999999523772],3,"[""k""]",[1.241599999904679],,,,,,,,,,,,,,,,,,,,,,,,,,,,,,,,,,,,,,,,,,,,,,,,,,,,,,,,,,,,,,,,,,,,,
,,,,513236,001,2024-02-02_11h37.57.261,fluency,2022.2.5,Win32,60.24096386,,,,,,,,,,,,,,,,,,,,,,,9,6,img/B06_09.jpg,BLEND,Press J if the face is a BLEND and K if the face is a NON-BLEND,A blend is a computer-generated image created by combining together multiple photos of real human faces. A non-blend is a regular photo of a human face.,JK,,,,,,,,,,,,,,,,,,,,,,,,,,,,,,,,8,2.3232,,,,,,,,,,,,,,0,41,41,64,1,,,,,,,,,,,,,space,1.5694,,,,,,,,,,,,,,,,,,,,,,,,,,,,,,,,,,,,,,,,,,,,,,,,,,,,,,,,,,,,,,,,,,,
,,,,513236,001,2024-02-02_11h37.57.261,fluency,2022.2.5,Win32,60.24096386,,,,,,,,,,,,,,,,,,,,,,,10,1,img/B01_10.jpg,BLEND,Press J if the face is a BLEND and K if the face is a NON-BLEND,A blend is a computer-generated image created by combining together multiple photos of real human faces. A non-blend is a regular photo of a human face.,JK,,,,,,,,,,,,,,,,,,,,,,,,,,,,,,,,,,,,,,,,,,,,,,645.9465,0,42,42,10,1,109,0,0,0,0,1,98,,,,,,,,,,,,,,,,,,,,,,,,,,,,,,,,,,,,,,,,,,,,,,,,,,,,,,,,,,,,,,,,,,,,,,,,,,
,,,,513236,001,2024-02-02_11h37.57.261,fluency,2022.2.5,Win32,60.24096386,,,,,,,,,,,,,,,,,,,,,,,,,,,,,,,,,,,,,,,,,,,,,,,,,,,,,,,,,,,,,,,,,,,,,,,,,,,,,,,,,,0,0,0,0,1,,"[""k""]",[1.3237999999522572],3,"[""k""]",[1.3235999999046726],,,,,,,,,,,,,,,,,,,,,,,,,,,,,,,,,,,,,,,,,,,,,,,,,,,,,,,,,,,,,,,,,,,,,
,,,,513236,001,2024-02-02_11h37.57.261,fluency,2022.2.5,Win32,60.24096386,,,,,,,,,,,,,,,,,,,,,,,10,1,img/B01_10.jpg,BLEND,Press J if the face is a BLEND and K if the face is a NON-BLEND,A blend is a computer-generated image created by combining together multiple photos of real human faces. A non-blend is a regular photo of a human face.,JK,,,,,,,,,,,,,,,,,,,,,,,,,,,,,,,,8,1.3856,,,,,,,,,,,,,,0,42,42,10,1,,,,,,,,,,,,,space,0.9499,,,,,,,,,,,,,,,,,,,,,,,,,,,,,,,,,,,,,,,,,,,,,,,,,,,,,,,,,,,,,,,,,,,
,,,,513236,001,2024-02-02_11h37.57.261,fluency,2022.2.5,Win32,60.24096386,,,,,,,,,,,,,,,,,,,,,,,3,4,img/B04_03.jpg,BLEND,Press J if the face is a BLEND and K if the face is a NON-BLEND,A blend is a computer-generated image created by combining together multiple photos of real human faces. A non-blend is a regular photo of a human face.,JK,,,,,,,,,,,,,,,,,,,,,,,,,,,,,,,,,,,,,,,,,,,,,,653.3602,0,43,43,36,1,109,0,0,0,0,1,98,,,,,,,,,,,,,,,,,,,,,,,,,,,,,,,,,,,,,,,,,,,,,,,,,,,,,,,,,,,,,,,,,,,,,,,,,,
,,,,513236,001,2024-02-02_11h37.57.261,fluency,2022.2.5,Win32,60.24096386,,,,,,,,,,,,,,,,,,,,,,,,,,,,,,,,,,,,,,,,,,,,,,,,,,,,,,,,,,,,,,,,,,,,,,,,,,,,,,,,,,0,0,0,0,1,,"[""k""]",[1.293399999856888],3,"[""k""]",[1.293399999856888],,,,,,,,,,,,,,,,,,,,,,,,,,,,,,,,,,,,,,,,,,,,,,,,,,,,,,,,,,,,,,,,,,,,,
,,,,513236,001,2024-02-02_11h37.57.261,fluency,2022.2.5,Win32,60.24096386,,,,,,,,,,,,,,,,,,,,,,,3,4,img/B04_03.jpg,BLEND,Press J if the face is a BLEND and K if the face is a NON-BLEND,A blend is a computer-generated image created by combining together multiple photos of real human faces. A non-blend is a regular photo of a human face.,JK,,,,,,,,,,,,,,,,,,,,,,,,,,,,,,,,8,1.633,,,,,,,,,,,,,,0,43,43,36,1,,,,,,,,,,,,,space,1.4018,,,,,,,,,,,,,,,,,,,,,,,,,,,,,,,,,,,,,,,,,,,,,,,,,,,,,,,,,,,,,,,,,,,
,,,,513236,001,2024-02-02_11h37.57.261,fluency,2022.2.5,Win32,60.24096386,,,,,,,,,,,,,,,,,,,,,,,7,5,img/B05_07.jpg,BLEND,Press J if the face is a BLEND and K if the face is a NON-BLEND,A blend is a computer-generated image created by combining together multiple photos of real human faces. A non-blend is a regular photo of a human face.,JK,,,,,,,,,,,,,,,,,,,,,,,,,,,,,,,,,,,,,,,,,,,,,,660.4896,0,44,44,51,1,109,0,0,0,0,1,98,,,,,,,,,,,,,,,,,,,,,,,,,,,,,,,,,,,,,,,,,,,,,,,,,,,,,,,,,,,,,,,,,,,,,,,,,,
,,,,513236,001,2024-02-02_11h37.57.261,fluency,2022.2.5,Win32,60.24096386,,,,,,,,,,,,,,,,,,,,,,,,,,,,,,,,,,,,,,,,,,,,,,,,,,,,,,,,,,,,,,,,,,,,,,,,,,,,,,,,,,0,0,0,0,1,,"[""j""]",[1.1460000000000719],3,"[""j""]",[1.1459000000953665],,,,,,,,,,,,,,,,,,,,,,,,,,,,,,,,,,,,,,,,,,,,,,,,,,,,,,,,,,,,,,,,,,,,,
,,,,513236,001,2024-02-02_11h37.57.261,fluency,2022.2.5,Win32,60.24096386,,,,,,,,,,,,,,,,,,,,,,,7,5,img/B05_07.jpg,BLEND,Press J if the face is a BLEND and K if the face is a NON-BLEND,A blend is a computer-generated image created by combining together multiple photos of real human faces. A non-blend is a regular photo of a human face.,JK,,,,,,,,,,,,,,,,,,,,,,,,,,,,,,,,7,1.9923,,,,,,,,,,,,,,0,44,44,51,1,,,,,,,,,,,,,space,1.4568,,,,,,,,,,,,,,,,,,,,,,,,,,,,,,,,,,,,,,,,,,,,,,,,,,,,,,,,,,,,,,,,,,,
,,,,513236,001,2024-02-02_11h37.57.261,fluency,2022.2.5,Win32,60.24096386,,,,,,,,,,,,,,,,,,,,,,,4,9,img/B09_04.jpg,BLEND,Press J if the face is a BLEND and K if the face is a NON-BLEND,A blend is a computer-generated image created by combining together multiple photos of real human faces. A non-blend is a regular photo of a human face.,JK,,,,,,,,,,,,,,,,,,,,,,,,,,,,,,,,,,,,,,,,,,,,,,669.0351,0,45,45,92,1,109,0,0,0,0,1,98,,,,,,,,,,,,,,,,,,,,,,,,,,,,,,,,,,,,,,,,,,,,,,,,,,,,,,,,,,,,,,,,,,,,,,,,,,
,,,,513236,001,2024-02-02_11h37.57.261,fluency,2022.2.5,Win32,60.24096386,,,,,,,,,,,,,,,,,,,,,,,,,,,,,,,,,,,,,,,,,,,,,,,,,,,,,,,,,,,,,,,,,,,,,,,,,,,,,,,,,,0,0,0,0,1,,"[""j""]",[1.5532000000476955],3,"[""j""]",[1.5532000000476955],,,,,,,,,,,,,,,,,,,,,,,,,,,,,,,,,,,,,,,,,,,,,,,,,,,,,,,,,,,,,,,,,,,,,
,,,,513236,001,2024-02-02_11h37.57.261,fluency,2022.2.5,Win32,60.24096386,,,,,,,,,,,,,,,,,,,,,,,4,9,img/B09_04.jpg,BLEND,Press J if the face is a BLEND and K if the face is a NON-BLEND,A blend is a computer-generated image created by combining together multiple photos of real human faces. A non-blend is a regular photo of a human face.,JK,,,,,,,,,,,,,,,,,,,,,,,,,,,,,,,,7,2.4299,,,,,,,,,,,,,,0,45,45,92,1,,,,,,,,,,,,,space,0.8902,,,,,,,,,,,,,,,,,,,,,,,,,,,,,,,,,,,,,,,,,,,,,,,,,,,,,,,,,,,,,,,,,,,
,,,,513236,001,2024-02-02_11h37.57.261,fluency,2022.2.5,Win32,60.24096386,,,,,,,,,,,,,,,,,,,,,,,10,3,img/B03_10.jpg,BLEND,Press J if the face is a BLEND and K if the face is a NON-BLEND,A blend is a computer-generated image created by combining together multiple photos of real human faces. A non-blend is a regular photo of a human face.,JK,,,,,,,,,,,,,,,,,,,,,,,,,,,,,,,,,,,,,,,,,,,,,,676.4496,0,46,46,32,1,109,0,0,0,0,1,98,,,,,,,,,,,,,,,,,,,,,,,,,,,,,,,,,,,,,,,,,,,,,,,,,,,,,,,,,,,,,,,,,,,,,,,,,,
,,,,513236,001,2024-02-02_11h37.57.261,fluency,2022.2.5,Win32,60.24096386,,,,,,,,,,,,,,,,,,,,,,,,,,,,,,,,,,,,,,,,,,,,,,,,,,,,,,,,,,,,,,,,,,,,,,,,,,,,,,,,,,0,0,0,0,1,,"[""k""]",[2.0344000000953884],3,"[""k""]",[2.03449999999998],,,,,,,,,,,,,,,,,,,,,,,,,,,,,,,,,,,,,,,,,,,,,,,,,,,,,,,,,,,,,,,,,,,,,
,,,,513236,001,2024-02-02_11h37.57.261,fluency,2022.2.5,Win32,60.24096386,,,,,,,,,,,,,,,,,,,,,,,10,3,img/B03_10.jpg,BLEND,Press J if the face is a BLEND and K if the face is a NON-BLEND,A blend is a computer-generated image created by combining together multiple photos of real human faces. A non-blend is a regular photo of a human face.,JK,,,,,,,,,,,,,,,,,,,,,,,,,,,,,,,,7,3.4325,,,,,,,,,,,,,,0,46,46,32,1,,,,,,,,,,,,,space,0.9324,,,,,,,,,,,,,,,,,,,,,,,,,,,,,,,,,,,,,,,,,,,,,,,,,,,,,,,,,,,,,,,,,,,
,,,,513236,001,2024-02-02_11h37.57.261,fluency,2022.2.5,Win32,60.24096386,,,,,,,,,,,,,,,,,,,,,,,4,2,img/B02_04.jpg,BLEND,Press J if the face is a BLEND and K if the face is a NON-BLEND,A blend is a computer-generated image created by combining together multiple photos of real human faces. A non-blend is a regular photo of a human face.,JK,,,,,,,,,,,,,,,,,,,,,,,,,,,,,,,,,,,,,,,,,,,,,,685.9117,0,47,47,15,1,109,0,0,0,0,1,98,,,,,,,,,,,,,,,,,,,,,,,,,,,,,,,,,,,,,,,,,,,,,,,,,,,,,,,,,,,,,,,,,,,,,,,,,,
,,,,513236,001,2024-02-02_11h37.57.261,fluency,2022.2.5,Win32,60.24096386,,,,,,,,,,,,,,,,,,,,,,,,,,,,,,,,,,,,,,,,,,,,,,,,,,,,,,,,,,,,,,,,,,,,,,,,,,,,,,,,,,0,0,0,0,1,,"[""j""]",[1.45799999999997],3,"[""j""]",[1.4578999998568634],,,,,,,,,,,,,,,,,,,,,,,,,,,,,,,,,,,,,,,,,,,,,,,,,,,,,,,,,,,,,,,,,,,,,
,,,,513236,001,2024-02-02_11h37.57.261,fluency,2022.2.5,Win32,60.24096386,,,,,,,,,,,,,,,,,,,,,,,4,2,img/B02_04.jpg,BLEND,Press J if the face is a BLEND and K if the face is a NON-BLEND,A blend is a computer-generated image created by combining together multiple photos of real human faces. A non-blend is a regular photo of a human face.,JK,,,,,,,,,,,,,,,,,,,,,,,,,,,,,,,,8,2.3964,,,,,,,,,,,,,,0,47,47,15,1,,,,,,,,,,,,,space,1.0077,,,,,,,,,,,,,,,,,,,,,,,,,,,,,,,,,,,,,,,,,,,,,,,,,,,,,,,,,,,,,,,,,,,
,,,,513236,001,2024-02-02_11h37.57.261,fluency,2022.2.5,Win32,60.24096386,,,,,,,,,,,,,,,,,,,,,,,8,8,img/B08_08.jpg,BLEND,Press J if the face is a BLEND and K if the face is a NON-BLEND,A blend is a computer-generated image created by combining together multiple photos of real human faces. A non-blend is a regular photo of a human face.,JK,,,,,,,,,,,,,,,,,,,,,,,,,,,,,,,,,,,,,,,,,,,,,,694.3914,0,48,48,85,1,109,0,0,0,0,1,98,,,,,,,,,,,,,,,,,,,,,,,,,,,,,,,,,,,,,,,,,,,,,,,,,,,,,,,,,,,,,,,,,,,,,,,,,,
,,,,513236,001,2024-02-02_11h37.57.261,fluency,2022.2.5,Win32,60.24096386,,,,,,,,,,,,,,,,,,,,,,,,,,,,,,,,,,,,,,,,,,,,,,,,,,,,,,,,,,,,,,,,,,,,,,,,,,,,,,,,,,0,0,0,0,1,,"[""j""]",[1.307400000095413],3,"[""j""]",[1.3055000000000518],,,,,,,,,,,,,,,,,,,,,,,,,,,,,,,,,,,,,,,,,,,,,,,,,,,,,,,,,,,,,,,,,,,,,
,,,,513236,001,2024-02-02_11h37.57.261,fluency,2022.2.5,Win32,60.24096386,,,,,,,,,,,,,,,,,,,,,,,8,8,img/B08_08.jpg,BLEND,Press J if the face is a BLEND and K if the face is a NON-BLEND,A blend is a computer-generated image created by combining together multiple photos of real human faces. A non-blend is a regular photo of a human face.,JK,,,,,,,,,,,,,,,,,,,,,,,,,,,,,,,,6,1.4891,,,,,,,,,,,,,,0,48,48,85,1,,,,,,,,,,,,,space,1.2508,,,,,,,,,,,,,,,,,,,,,,,,,,,,,,,,,,,,,,,,,,,,,,,,,,,,,,,,,,,,,,,,,,,
,,,,513236,001,2024-02-02_11h37.57.261,fluency,2022.2.5,Win32,60.24096386,,,,,,,,,,,,,,,,,,,,,,,7,1,img/B01_07.jpg,BLEND,Press J if the face is a BLEND and K if the face is a NON-BLEND,A blend is a computer-generated image created by combining together multiple photos of real human faces. A non-blend is a regular photo of a human face.,JK,,,,,,,,,,,,,,,,,,,,,,,,,,,,,,,,,,,,,,,,,,,,,,701.2218,0,49,49,7,1,109,0,0,0,0,1,98,,,,,,,,,,,,,,,,,,,,,,,,,,,,,,,,,,,,,,,,,,,,,,,,,,,,,,,,,,,,,,,,,,,,,,,,,,
,,,,513236,001,2024-02-02_11h37.57.261,fluency,2022.2.5,Win32,60.24096386,,,,,,,,,,,,,,,,,,,,,,,,,,,,,,,,,,,,,,,,,,,,,,,,,,,,,,,,,,,,,,,,,,,,,,,,,,,,,,,,,,0,0,0,0,1,,"[""j""]",[1.8588999998569307],3,"[""j""]",[1.858900000095332],,,,,,,,,,,,,,,,,,,,,,,,,,,,,,,,,,,,,,,,,,,,,,,,,,,,,,,,,,,,,,,,,,,,,
,,,,513236,001,2024-02-02_11h37.57.261,fluency,2022.2.5,Win32,60.24096386,,,,,,,,,,,,,,,,,,,,,,,7,1,img/B01_07.jpg,BLEND,Press J if the face is a BLEND and K if the face is a NON-BLEND,A blend is a computer-generated image created by combining together multiple photos of real human faces. A non-blend is a regular photo of a human face.,JK,,,,,,,,,,,,,,,,,,,,,,,,,,,,,,,,8,1.3049,,,,,,,,,,,,,,0,49,49,7,1,,,,,,,,,,,,,space,1.131,,,,,,,,,,,,,,,,,,,,,,,,,,,,,,,,,,,,,,,,,,,,,,,,,,,,,,,,,,,,,,,,,,,
,,,,513236,001,2024-02-02_11h37.57.261,fluency,2022.2.5,Win32,60.24096386,,,,,,,,,,,,,,,,,,,,,,,8,1,img/B01_08.jpg,BLEND,Press J if the face is a BLEND and K if the face is a NON-BLEND,A blend is a computer-generated image created by combining together multiple photos of real human faces. A non-blend is a regular photo of a human face.,JK,,,,,,,,,,,,,,,,,,,,,,,,,,,,,,,,,,,,,,,,,,,,,,707.735,0,50,50,8,1,109,0,0,0,0,1,98,,,,,,,,,,,,,,,,,,,,,,,,,,,,,,,,,,,,,,,,,,,,,,,,,,,,,,,,,,,,,,,,,,,,,,,,,,
,,,,513236,001,2024-02-02_11h37.57.261,fluency,2022.2.5,Win32,60.24096386,,,,,,,,,,,,,,,,,,,,,,,,,,,,,,,,,,,,,,,,,,,,,,,,,,,,,,,,,,,,,,,,,,,,,,,,,,,,,,,,,,0,0,0,0,1,,"[""j""]",[1.2722999999522244],3,"[""j""]",[1.2722999999522244],,,,,,,,,,,,,,,,,,,,,,,,,,,,,,,,,,,,,,,,,,,,,,,,,,,,,,,,,,,,,,,,,,,,,
,,,,513236,001,2024-02-02_11h37.57.261,fluency,2022.2.5,Win32,60.24096386,,,,,,,,,,,,,,,,,,,,,,,8,1,img/B01_08.jpg,BLEND,Press J if the face is a BLEND and K if the face is a NON-BLEND,A blend is a computer-generated image created by combining together multiple photos of real human faces. A non-blend is a regular photo of a human face.,JK,,,,,,,,,,,,,,,,,,,,,,,,,,,,,,,,8,0.9873,,,,,,,,,,,,,,0,50,50,8,1,,,,,,,,,,,,,space,1.4868,,,,,,,,,,,,,,,,,,,,,,,,,,,,,,,,,,,,,,,,,,,,,,,,,,,,,,,,,,,,,,,,,,,
,,,,513236,001,2024-02-02_11h37.57.261,fluency,2022.2.5,Win32,60.24096386,,,,,,,,,,,,,,,,,,,,,,,5,8,img/B08_05.jpg,BLEND,Press J if the face is a BLEND and K if the face is a NON-BLEND,A blend is a computer-generated image created by combining together multiple photos of real human faces. A non-blend is a regular photo of a human face.,JK,,,,,,,,,,,,,,,,,,,,,,,,,,,,,,,,,,,,,,,,,,,,,,715.2989,0,51,51,82,1,109,0,0,0,0,1,98,,,,,,,,,,,,,,,,,,,,,,,,,,,,,,,,,,,,,,,,,,,,,,,,,,,,,,,,,,,,,,,,,,,,,,,,,,
,,,,513236,001,2024-02-02_11h37.57.261,fluency,2022.2.5,Win32,60.24096386,,,,,,,,,,,,,,,,,,,,,,,,,,,,,,,,,,,,,,,,,,,,,,,,,,,,,,,,,,,,,,,,,,,,,,,,,,,,,,,,,,0,0,0,0,1,,"[""j""]",[2.190099999904646],3,"[""j""]",[2.190200000047753],,,,,,,,,,,,,,,,,,,,,,,,,,,,,,,,,,,,,,,,,,,,,,,,,,,,,,,,,,,,,,,,,,,,,
,,,,513236,001,2024-02-02_11h37.57.261,fluency,2022.2.5,Win32,60.24096386,,,,,,,,,,,,,,,,,,,,,,,5,8,img/B08_05.jpg,BLEND,Press J if the face is a BLEND and K if the face is a NON-BLEND,A blend is a computer-generated image created by combining together multiple photos of real human faces. A non-blend is a regular photo of a human face.,JK,,,,,,,,,,,,,,,,,,,,,,,,,,,,,,,,7,4.2264,,,,,,,,,,,,,,0,51,51,82,1,,,,,,,,,,,,,space,1.0597,,,,,,,,,,,,,,,,,,,,,,,,,,,,,,,,,,,,,,,,,,,,,,,,,,,,,,,,,,,,,,,,,,,
,,,,513236,001,2024-02-02_11h37.57.261,fluency,2022.2.5,Win32,60.24096386,,,,,,,,,,,,,,,,,,,,,,,9,9,img/B09_09.jpg,BLEND,Press J if the face is a BLEND and K if the face is a NON-BLEND,A blend is a computer-generated image created by combining together multiple photos of real human faces. A non-blend is a regular photo of a human face.,JK,,,,,,,,,,,,,,,,,,,,,,,,,,,,,,,,,,,,,,,,,,,,,,724.6595,0,52,52,97,1,109,0,0,0,0,1,98,,,,,,,,,,,,,,,,,,,,,,,,,,,,,,,,,,,,,,,,,,,,,,,,,,,,,,,,,,,,,,,,,,,,,,,,,,
,,,,513236,001,2024-02-02_11h37.57.261,fluency,2022.2.5,Win32,60.24096386,,,,,,,,,,,,,,,,,,,,,,,,,,,,,,,,,,,,,,,,,,,,,,,,,,,,,,,,,,,,,,,,,,,,,,,,,,,,,,,,,,0,0,0,0,1,,"[""k""]",[2.0235000000000127],3,"[""k""]",[2.02339999985702],,,,,,,,,,,,,,,,,,,,,,,,,,,,,,,,,,,,,,,,,,,,,,,,,,,,,,,,,,,,,,,,,,,,,
,,,,513236,001,2024-02-02_11h37.57.261,fluency,2022.2.5,Win32,60.24096386,,,,,,,,,,,,,,,,,,,,,,,9,9,img/B09_09.jpg,BLEND,Press J if the face is a BLEND and K if the face is a NON-BLEND,A blend is a computer-generated image created by combining together multiple photos of real human faces. A non-blend is a regular photo of a human face.,JK,,,,,,,,,,,,,,,,,,,,,,,,,,,,,,,,7,3.2025,,,,,,,,,,,,,,0,52,52,97,1,,,,,,,,,,,,,space,0.737,,,,,,,,,,,,,,,,,,,,,,,,,,,,,,,,,,,,,,,,,,,,,,,,,,,,,,,,,,,,,,,,,,,
,,,,513236,001,2024-02-02_11h37.57.261,fluency,2022.2.5,Win32,60.24096386,,,,,,,,,,,,,,,,,,,,,,,6,5,img/B05_06.jpg,BLEND,Press J if the face is a BLEND and K if the face is a NON-BLEND,A blend is a computer-generated image created by combining together multiple photos of real human faces. A non-blend is a regular photo of a human face.,JK,,,,,,,,,,,,,,,,,,,,,,,,,,,,,,,,,,,,,,,,,,,,,,733.6905,0,53,53,50,1,109,0,0,0,0,1,98,,,,,,,,,,,,,,,,,,,,,,,,,,,,,,,,,,,,,,,,,,,,,,,,,,,,,,,,,,,,,,,,,,,,,,,,,,
,,,,513236,001,2024-02-02_11h37.57.261,fluency,2022.2.5,Win32,60.24096386,,,,,,,,,,,,,,,,,,,,,,,,,,,,,,,,,,,,,,,,,,,,,,,,,,,,,,,,,,,,,,,,,,,,,,,,,,,,,,,,,,0,0,0,0,1,,"[""k""]",[2.291799999952218],3,"[""k""]",[2.291799999952218],,,,,,,,,,,,,,,,,,,,,,,,,,,,,,,,,,,,,,,,,,,,,,,,,,,,,,,,,,,,,,,,,,,,,
,,,,513236,001,2024-02-02_11h37.57.261,fluency,2022.2.5,Win32,60.24096386,,,,,,,,,,,,,,,,,,,,,,,6,5,img/B05_06.jpg,BLEND,Press J if the face is a BLEND and K if the face is a NON-BLEND,A blend is a computer-generated image created by combining together multiple photos of real human faces. A non-blend is a regular photo of a human face.,JK,,,,,,,,,,,,,,,,,,,,,,,,,,,,,,,,8,3.307,,,,,,,,,,,,,,0,53,53,50,1,,,,,,,,,,,,,space,0.922,,,,,,,,,,,,,,,,,,,,,,,,,,,,,,,,,,,,,,,,,,,,,,,,,,,,,,,,,,,,,,,,,,,
,,,,513236,001,2024-02-02_11h37.57.261,fluency,2022.2.5,Win32,60.24096386,,,,,,,,,,,,,,,,,,,,,,,10,5,img/B05_10.jpg,BLEND,Press J if the face is a BLEND and K if the face is a NON-BLEND,A blend is a computer-generated image created by combining together multiple photos of real human faces. A non-blend is a regular photo of a human face.,JK,,,,,,,,,,,,,,,,,,,,,,,,,,,,,,,,,,,,,,,,,,,,,,743.0034,0,54,54,54,1,109,0,0,0,0,1,98,,,,,,,,,,,,,,,,,,,,,,,,,,,,,,,,,,,,,,,,,,,,,,,,,,,,,,,,,,,,,,,,,,,,,,,,,,
,,,,513236,001,2024-02-02_11h37.57.261,fluency,2022.2.5,Win32,60.24096386,,,,,,,,,,,,,,,,,,,,,,,,,,,,,,,,,,,,,,,,,,,,,,,,,,,,,,,,,,,,,,,,,,,,,,,,,,,,,,,,,,0,0,0,0,1,,"[""j""]",[1.7742999999522908],3,"[""j""]",[1.7740999999045926],,,,,,,,,,,,,,,,,,,,,,,,,,,,,,,,,,,,,,,,,,,,,,,,,,,,,,,,,,,,,,,,,,,,,
,,,,513236,001,2024-02-02_11h37.57.261,fluency,2022.2.5,Win32,60.24096386,,,,,,,,,,,,,,,,,,,,,,,10,5,img/B05_10.jpg,BLEND,Press J if the face is a BLEND and K if the face is a NON-BLEND,A blend is a computer-generated image created by combining together multiple photos of real human faces. A non-blend is a regular photo of a human face.,JK,,,,,,,,,,,,,,,,,,,,,,,,,,,,,,,,7,3.321,,,,,,,,,,,,,,0,54,54,54,1,,,,,,,,,,,,,space,1.0363,,,,,,,,,,,,,,,,,,,,,,,,,,,,,,,,,,,,,,,,,,,,,,,,,,,,,,,,,,,,,,,,,,,
,,,,513236,001,2024-02-02_11h37.57.261,fluency,2022.2.5,Win32,60.24096386,,,,,,,,,,,,,,,,,,,,,,,5,9,img/B09_05.jpg,BLEND,Press J if the face is a BLEND and K if the face is a NON-BLEND,A blend is a computer-generated image created by combining together multiple photos of real human faces. A non-blend is a regular photo of a human face.,JK,,,,,,,,,,,,,,,,,,,,,,,,,,,,,,,,,,,,,,,,,,,,,,752.4485,0,55,55,93,1,109,0,0,0,0,1,98,,,,,,,,,,,,,,,,,,,,,,,,,,,,,,,,,,,,,,,,,,,,,,,,,,,,,,,,,,,,,,,,,,,,,,,,,,
,,,,513236,001,2024-02-02_11h37.57.261,fluency,2022.2.5,Win32,60.24096386,,,,,,,,,,,,,,,,,,,,,,,,,,,,,,,,,,,,,,,,,,,,,,,,,,,,,,,,,,,,,,,,,,,,,,,,,,,,,,,,,,,,,,,,,,4,,,,,space,1.6336,0,0,0,0,1,,,,,,,,,,,,,,,,,,,,,,,,,,,,,,,,,,,,,,,,,,,,,,,,,,,,,,,,,,,,
,,,,513236,001,2024-02-02_11h37.57.261,fluency,2022.2.5,Win32,60.24096386,,,,,,,,,,,,,,,,,,,,,,,,,,,,,,,,,,,,,,,,,,,,,,,,,,,,,,,,,,,,,,,,,,,,,,,,,,,,,,,,,,0,0,0,0,1,,,,,,,,,,,,,,,,,,,,,,,,,,,,,,,,,,,,,,,,,,,,,,,,,,,,,,,,,,,,,,,,,,,,,,,,,,,
,,,,513236,001,2024-02-02_11h37.57.261,fluency,2022.2.5,Win32,60.24096386,,,,,,,,,,,,,,,,,,,,,,,5,9,img/B09_05.jpg,BLEND,Press J if the face is a BLEND and K if the face is a NON-BLEND,A blend is a computer-generated image created by combining together multiple photos of real human faces. A non-blend is a regular photo of a human face.,JK,,,,,,,,,,,,,,,,,,,,,,,,,,,,,,,,,,,,,,,,,,,,,,759.1295,0,55,55,93,1,109,1,0,1,0,1,98,,,,,,,,,,,,,,,,,,,,,,,,,,,,,,,,,,,,,,,,,,,,,,,,,,,,,,,,,,,,,,,,,,,,,,,,,,
,,,,513236,001,2024-02-02_11h37.57.261,fluency,2022.2.5,Win32,60.24096386,,,,,,,,,,,,,,,,,,,,,,,,,,,,,,,,,,,,,,,,,,,,,,,,,,,,,,,,,,,,,,,,,,,,,,,,,,,,,,,,,,1,0,1,0,1,,"[""j""]",[0.4840000000000373],4,"[""j""]",[0.48390000009533196],,,,,,,,,,,,,,,,,,,,,,,,,,,,,,,,,,,,,,,,,,,,,,,,,,,,,,,,,,,,,,,,,,,,,
,,,,513236,001,2024-02-02_11h37.57.261,fluency,2022.2.5,Win32,60.24096386,,,,,,,,,,,,,,,,,,,,,,,5,9,img/B09_05.jpg,BLEND,Press J if the face is a BLEND and K if the face is a NON-BLEND,A blend is a computer-generated image created by combining together multiple photos of real human faces. A non-blend is a regular photo of a human face.,JK,,,,,,,,,,,,,,,,,,,,,,,,,,,,,,,,8,1.5089,,,,,,,,,,,,,,0,55,55,93,1,,,,,,,,,,,,,space,0.7554,,,,,,,,,,,,,,,,,,,,,,,,,,,,,,,,,,,,,,,,,,,,,,,,,,,,,,,,,,,,,,,,,,,
,,,,513236,001,2024-02-02_11h37.57.261,fluency,2022.2.5,Win32,60.24096386,,,,,,,,,,,,,,,,,,,,,,,9,8,img/B08_09.jpg,BLEND,Press J if the face is a BLEND and K if the face is a NON-BLEND,A blend is a computer-generated image created by combining together multiple photos of real human faces. A non-blend is a regular photo of a human face.,JK,,,,,,,,,,,,,,,,,,,,,,,,,,,,,,,,,,,,,,,,,,,,,,766.4593,0,56,56,86,1,109,0,0,0,0,1,98,,,,,,,,,,,,,,,,,,,,,,,,,,,,,,,,,,,,,,,,,,,,,,,,,,,,,,,,,,,,,,,,,,,,,,,,,,
,,,,513236,001,2024-02-02_11h37.57.261,fluency,2022.2.5,Win32,60.24096386,,,,,,,,,,,,,,,,,,,,,,,,,,,,,,,,,,,,,,,,,,,,,,,,,,,,,,,,,,,,,,,,,,,,,,,,,,,,,,,,,,0,0,0,0,1,,"[""j""]",[1.4057000000476592],4,"[""j""]",[1.4055999999046662],,,,,,,,,,,,,,,,,,,,,,,,,,,,,,,,,,,,,,,,,,,,,,,,,,,,,,,,,,,,,,,,,,,,,
,,,,513236,001,2024-02-02_11h37.57.261,fluency,2022.2.5,Win32,60.24096386,,,,,,,,,,,,,,,,,,,,,,,9,8,img/B08_09.jpg,BLEND,Press J if the face is a BLEND and K if the face is a NON-BLEND,A blend is a computer-generated image created by combining together multiple photos of real human faces. A non-blend is a regular photo of a human face.,JK,,,,,,,,,,,,,,,,,,,,,,,,,,,,,,,,7,2.9394,,,,,,,,,,,,,,0,56,56,86,1,,,,,,,,,,,,,space,0.7689,,,,,,,,,,,,,,,,,,,,,,,,,,,,,,,,,,,,,,,,,,,,,,,,,,,,,,,,,,,,,,,,,,,
,,,,513236,001,2024-02-02_11h37.57.261,fluency,2022.2.5,Win32,60.24096386,,,,,,,,,,,,,,,,,,,,,,,7,9,img/B09_07.jpg,BLEND,Press J if the face is a BLEND and K if the face is a NON-BLEND,A blend is a computer-generated image created by combining together multiple photos of real human faces. A non-blend is a regular photo of a human face.,JK,,,,,,,,,,,,,,,,,,,,,,,,,,,,,,,,,,,,,,,,,,,,,,775.2896,0,57,57,95,1,109,0,0,0,0,1,98,,,,,,,,,,,,,,,,,,,,,,,,,,,,,,,,,,,,,,,,,,,,,,,,,,,,,,,,,,,,,,,,,,,,,,,,,,
,,,,513236,001,2024-02-02_11h37.57.261,fluency,2022.2.5,Win32,60.24096386,,,,,,,,,,,,,,,,,,,,,,,,,,,,,,,,,,,,,,,,,,,,,,,,,,,,,,,,,,,,,,,,,,,,,,,,,,,,,,,,,,0,0,0,0,1,,"[""j""]",[1.4844000000954338],4,"[""j""]",[1.4843000001907285],,,,,,,,,,,,,,,,,,,,,,,,,,,,,,,,,,,,,,,,,,,,,,,,,,,,,,,,,,,,,,,,,,,,,
,,,,513236,001,2024-02-02_11h37.57.261,fluency,2022.2.5,Win32,60.24096386,,,,,,,,,,,,,,,,,,,,,,,7,9,img/B09_07.jpg,BLEND,Press J if the face is a BLEND and K if the face is a NON-BLEND,A blend is a computer-generated image created by combining together multiple photos of real human faces. A non-blend is a regular photo of a human face.,JK,,,,,,,,,,,,,,,,,,,,,,,,,,,,,,,,8,3.0542,,,,,,,,,,,,,,0,57,57,95,1,,,,,,,,,,,,,space,0.6392,,,,,,,,,,,,,,,,,,,,,,,,,,,,,,,,,,,,,,,,,,,,,,,,,,,,,,,,,,,,,,,,,,,
,,,,513236,001,2024-02-02_11h37.57.261,fluency,2022.2.5,Win32,60.24096386,,,,,,,,,,,,,,,,,,,,,,,10,2,img/B02_10.jpg,BLEND,Press J if the face is a BLEND and K if the face is a NON-BLEND,A blend is a computer-generated image created by combining together multiple photos of real human faces. A non-blend is a regular photo of a human face.,JK,,,,,,,,,,,,,,,,,,,,,,,,,,,,,,,,,,,,,,,,,,,,,,783.0673,0,58,58,21,1,109,0,0,0,0,1,98,,,,,,,,,,,,,,,,,,,,,,,,,,,,,,,,,,,,,,,,,,,,,,,,,,,,,,,,,,,,,,,,,,,,,,,,,,
,,,,513236,001,2024-02-02_11h37.57.261,fluency,2022.2.5,Win32,60.24096386,,,,,,,,,,,,,,,,,,,,,,,,,,,,,,,,,,,,,,,,,,,,,,,,,,,,,,,,,,,,,,,,,,,,,,,,,,,,,,,,,,0,0,0,0,1,,"[""j""]",[1.294200000047681],4,"[""j""]",[1.2937000000476928],,,,,,,,,,,,,,,,,,,,,,,,,,,,,,,,,,,,,,,,,,,,,,,,,,,,,,,,,,,,,,,,,,,,,
,,,,513236,001,2024-02-02_11h37.57.261,fluency,2022.2.5,Win32,60.24096386,,,,,,,,,,,,,,,,,,,,,,,10,2,img/B02_10.jpg,BLEND,Press J if the face is a BLEND and K if the face is a NON-BLEND,A blend is a computer-generated image created by combining together multiple photos of real human faces. A non-blend is a regular photo of a human face.,JK,,,,,,,,,,,,,,,,,,,,,,,,,,,,,,,,8,3.1585,,,,,,,,,,,,,,0,58,58,21,1,,,,,,,,,,,,,space,0.6217,,,,,,,,,,,,,,,,,,,,,,,,,,,,,,,,,,,,,,,,,,,,,,,,,,,,,,,,,,,,,,,,,,,
,,,,513236,001,2024-02-02_11h37.57.261,fluency,2022.2.5,Win32,60.24096386,,,,,,,,,,,,,,,,,,,,,,,0,6,img/B06_00.jpg,BLEND,Press J if the face is a BLEND and K if the face is a NON-BLEND,A blend is a computer-generated image created by combining together multiple photos of real human faces. A non-blend is a regular photo of a human face.,JK,,,,,,,,,,,,,,,,,,,,,,,,,,,,,,,,,,,,,,,,,,,,,,790.9153,0,59,59,55,1,109,0,0,0,0,1,98,,,,,,,,,,,,,,,,,,,,,,,,,,,,,,,,,,,,,,,,,,,,,,,,,,,,,,,,,,,,,,,,,,,,,,,,,,
,,,,513236,001,2024-02-02_11h37.57.261,fluency,2022.2.5,Win32,60.24096386,,,,,,,,,,,,,,,,,,,,,,,,,,,,,,,,,,,,,,,,,,,,,,,,,,,,,,,,,,,,,,,,,,,,,,,,,,,,,,,,,,0,0,0,0,1,,"[""j""]",[1.8649000000954175],4,"[""j""]",[1.8648999998569025],,,,,,,,,,,,,,,,,,,,,,,,,,,,,,,,,,,,,,,,,,,,,,,,,,,,,,,,,,,,,,,,,,,,,
,,,,513236,001,2024-02-02_11h37.57.261,fluency,2022.2.5,Win32,60.24096386,,,,,,,,,,,,,,,,,,,,,,,0,6,img/B06_00.jpg,BLEND,Press J if the face is a BLEND and K if the face is a NON-BLEND,A blend is a computer-generated image created by combining together multiple photos of real human faces. A non-blend is a regular photo of a human face.,JK,,,,,,,,,,,,,,,,,,,,,,,,,,,,,,,,6,1.8301,,,,,,,,,,,,,,0,59,59,55,1,,,,,,,,,,,,,space,1.1045,,,,,,,,,,,,,,,,,,,,,,,,,,,,,,,,,,,,,,,,,,,,,,,,,,,,,,,,,,,,,,,,,,,
,,,,513236,001,2024-02-02_11h37.57.261,fluency,2022.2.5,Win32,60.24096386,,,,,,,,,,,,,,,,,,,,,,,3,3,img/B03_03.jpg,BLEND,Press J if the face is a BLEND and K if the face is a NON-BLEND,A blend is a computer-generated image created by combining together multiple photos of real human faces. A non-blend is a regular photo of a human face.,JK,,,,,,,,,,,,,,,,,,,,,,,,,,,,,,,,,,,,,,,,,,,,,,798.9606,0,60,60,25,1,109,0,0,0,0,1,98,,,,,,,,,,,,,,,,,,,,,,,,,,,,,,,,,,,,,,,,,,,,,,,,,,,,,,,,,,,,,,,,,,,,,,,,,,
,,,,513236,001,2024-02-02_11h37.57.261,fluency,2022.2.5,Win32,60.24096386,,,,,,,,,,,,,,,,,,,,,,,,,,,,,,,,,,,,,,,,,,,,,,,,,,,,,,,,,,,,,,,,,,,,,,,,,,,,,,,,,,0,0,0,0,1,,"[""j""]",[1.9267000000476173],4,"[""j""]",[1.926700000047731],,,,,,,,,,,,,,,,,,,,,,,,,,,,,,,,,,,,,,,,,,,,,,,,,,,,,,,,,,,,,,,,,,,,,
,,,,513236,001,2024-02-02_11h37.57.261,fluency,2022.2.5,Win32,60.24096386,,,,,,,,,,,,,,,,,,,,,,,3,3,img/B03_03.jpg,BLEND,Press J if the face is a BLEND and K if the face is a NON-BLEND,A blend is a computer-generated image created by combining together multiple photos of real human faces. A non-blend is a regular photo of a human face.,JK,,,,,,,,,,,,,,,,,,,,,,,,,,,,,,,,8,1.3171,,,,,,,,,,,,,,0,60,60,25,1,,,,,,,,,,,,,space,2.6249,,,,,,,,,,,,,,,,,,,,,,,,,,,,,,,,,,,,,,,,,,,,,,,,,,,,,,,,,,,,,,,,,,,
,,,,513236,001,2024-02-02_11h37.57.261,fluency,2022.2.5,Win32,60.24096386,,,,,,,,,,,,,,,,,,,,,,,6,6,img/B06_06.jpg,BLEND,Press J if the face is a BLEND and K if the face is a NON-BLEND,A blend is a computer-generated image created by combining together multiple photos of real human faces. A non-blend is a regular photo of a human face.,JK,,,,,,,,,,,,,,,,,,,,,,,,,,,,,,,,,,,,,,,,,,,,,,808.0058,0,61,61,61,1,109,0,0,0,0,1,98,,,,,,,,,,,,,,,,,,,,,,,,,,,,,,,,,,,,,,,,,,,,,,,,,,,,,,,,,,,,,,,,,,,,,,,,,,
,,,,513236,001,2024-02-02_11h37.57.261,fluency,2022.2.5,Win32,60.24096386,,,,,,,,,,,,,,,,,,,,,,,,,,,,,,,,,,,,,,,,,,,,,,,,,,,,,,,,,,,,,,,,,,,,,,,,,,,,,,,,,,0,0,0,0,1,,"[""j""]",[0.7825000000000273],4,"[""j""]",[0.7825000000000273],,,,,,,,,,,,,,,,,,,,,,,,,,,,,,,,,,,,,,,,,,,,,,,,,,,,,,,,,,,,,,,,,,,,,
,,,,513236,001,2024-02-02_11h37.57.261,fluency,2022.2.5,Win32,60.24096386,,,,,,,,,,,,,,,,,,,,,,,6,6,img/B06_06.jpg,BLEND,Press J if the face is a BLEND and K if the face is a NON-BLEND,A blend is a computer-generated image created by combining together multiple photos of real human faces. A non-blend is a regular photo of a human face.,JK,,,,,,,,,,,,,,,,,,,,,,,,,,,,,,,,7,2.9807,,,,,,,,,,,,,,0,61,61,61,1,,,,,,,,,,,,,space,1.4425,,,,,,,,,,,,,,,,,,,,,,,,,,,,,,,,,,,,,,,,,,,,,,,,,,,,,,,,,,,,,,,,,,,
,,,,513236,001,2024-02-02_11h37.57.261,fluency,2022.2.5,Win32,60.24096386,,,,,,,,,,,,,,,,,,,,,,,8,9,img/B09_08.jpg,BLEND,Press J if the face is a BLEND and K if the face is a NON-BLEND,A blend is a computer-generated image created by combining together multiple photos of real human faces. A non-blend is a regular photo of a human face.,JK,,,,,,,,,,,,,,,,,,,,,,,,,,,,,,,,,,,,,,,,,,,,,,816.504,0,62,62,96,1,109,0,0,0,0,1,98,,,,,,,,,,,,,,,,,,,,,,,,,,,,,,,,,,,,,,,,,,,,,,,,,,,,,,,,,,,,,,,,,,,,,,,,,,
,,,,513236,001,2024-02-02_11h37.57.261,fluency,2022.2.5,Win32,60.24096386,,,,,,,,,,,,,,,,,,,,,,,,,,,,,,,,,,,,,,,,,,,,,,,,,,,,,,,,,,,,,,,,,,,,,,,,,,,,,,,,,,0,0,0,0,1,,"[""j""]",[1.587300000190794],4,"[""j""]",[1.5871000001430957],,,,,,,,,,,,,,,,,,,,,,,,,,,,,,,,,,,,,,,,,,,,,,,,,,,,,,,,,,,,,,,,,,,,,
,,,,513236,001,2024-02-02_11h37.57.261,fluency,2022.2.5,Win32,60.24096386,,,,,,,,,,,,,,,,,,,,,,,8,9,img/B09_08.jpg,BLEND,Press J if the face is a BLEND and K if the face is a NON-BLEND,A blend is a computer-generated image created by combining together multiple photos of real human faces. A non-blend is a regular photo of a human face.,JK,,,,,,,,,,,,,,,,,,,,,,,,,,,,,,,,8,3.0237,,,,,,,,,,,,,,0,62,62,96,1,,,,,,,,,,,,,space,0.8848,,,,,,,,,,,,,,,,,,,,,,,,,,,,,,,,,,,,,,,,,,,,,,,,,,,,,,,,,,,,,,,,,,,
,,,,513236,001,2024-02-02_11h37.57.261,fluency,2022.2.5,Win32,60.24096386,,,,,,,,,,,,,,,,,,,,,,,6,7,img/B07_06.jpg,BLEND,Press J if the face is a BLEND and K if the face is a NON-BLEND,A blend is a computer-generated image created by combining together multiple photos of real human faces. A non-blend is a regular photo of a human face.,JK,,,,,,,,,,,,,,,,,,,,,,,,,,,,,,,,,,,,,,,,,,,,,,824.4834,0,63,63,72,1,109,0,0,0,0,1,98,,,,,,,,,,,,,,,,,,,,,,,,,,,,,,,,,,,,,,,,,,,,,,,,,,,,,,,,,,,,,,,,,,,,,,,,,,
,,,,513236,001,2024-02-02_11h37.57.261,fluency,2022.2.5,Win32,60.24096386,,,,,,,,,,,,,,,,,,,,,,,,,,,,,,,,,,,,,,,,,,,,,,,,,,,,,,,,,,,,,,,,,,,,,,,,,,,,,,,,,,0,0,0,0,1,,"[""j""]",[1.3038999998569807],4,"[""j""]",[1.303799999952389],,,,,,,,,,,,,,,,,,,,,,,,,,,,,,,,,,,,,,,,,,,,,,,,,,,,,,,,,,,,,,,,,,,,,
,,,,513236,001,2024-02-02_11h37.57.261,fluency,2022.2.5,Win32,60.24096386,,,,,,,,,,,,,,,,,,,,,,,6,7,img/B07_06.jpg,BLEND,Press J if the face is a BLEND and K if the face is a NON-BLEND,A blend is a computer-generated image created by combining together multiple photos of real human faces. A non-blend is a regular photo of a human face.,JK,,,,,,,,,,,,,,,,,,,,,,,,,,,,,,,,7,2.8555,,,,,,,,,,,,,,0,63,63,72,1,,,,,,,,,,,,,space,0.7334,,,,,,,,,,,,,,,,,,,,,,,,,,,,,,,,,,,,,,,,,,,,,,,,,,,,,,,,,,,,,,,,,,,
,,,,513236,001,2024-02-02_11h37.57.261,fluency,2022.2.5,Win32,60.24096386,,,,,,,,,,,,,,,,,,,,,,,0,8,img/B08_00.jpg,BLEND,Press J if the face is a BLEND and K if the face is a NON-BLEND,A blend is a computer-generated image created by combining together multiple photos of real human faces. A non-blend is a regular photo of a human face.,JK,,,,,,,,,,,,,,,,,,,,,,,,,,,,,,,,,,,,,,,,,,,,,,832.1803,0,64,64,77,1,109,0,0,0,0,1,98,,,,,,,,,,,,,,,,,,,,,,,,,,,,,,,,,,,,,,,,,,,,,,,,,,,,,,,,,,,,,,,,,,,,,,,,,,
,,,,513236,001,2024-02-02_11h37.57.261,fluency,2022.2.5,Win32,60.24096386,,,,,,,,,,,,,,,,,,,,,,,,,,,,,,,,,,,,,,,,,,,,,,,,,,,,,,,,,,,,,,,,,,,,,,,,,,,,,,,,,,0,0,0,0,1,,"[""j""]",[1.8551000001430111],4,"[""j""]",[1.8550000000000182],,,,,,,,,,,,,,,,,,,,,,,,,,,,,,,,,,,,,,,,,,,,,,,,,,,,,,,,,,,,,,,,,,,,,
,,,,513236,001,2024-02-02_11h37.57.261,fluency,2022.2.5,Win32,60.24096386,,,,,,,,,,,,,,,,,,,,,,,0,8,img/B08_00.jpg,BLEND,Press J if the face is a BLEND and K if the face is a NON-BLEND,A blend is a computer-generated image created by combining together multiple photos of real human faces. A non-blend is a regular photo of a human face.,JK,,,,,,,,,,,,,,,,,,,,,,,,,,,,,,,,7,2.6034,,,,,,,,,,,,,,0,64,64,77,1,,,,,,,,,,,,,space,0.7186,,,,,,,,,,,,,,,,,,,,,,,,,,,,,,,,,,,,,,,,,,,,,,,,,,,,,,,,,,,,,,,,,,,
,,,,513236,001,2024-02-02_11h37.57.261,fluency,2022.2.5,Win32,60.24096386,,,,,,,,,,,,,,,,,,,,,,,9,2,img/B02_09.jpg,BLEND,Press J if the face is a BLEND and K if the face is a NON-BLEND,A blend is a computer-generated image created by combining together multiple photos of real human faces. A non-blend is a regular photo of a human face.,JK,,,,,,,,,,,,,,,,,,,,,,,,,,,,,,,,,,,,,,,,,,,,,,839.576,0,65,65,20,1,109,0,0,0,0,1,98,,,,,,,,,,,,,,,,,,,,,,,,,,,,,,,,,,,,,,,,,,,,,,,,,,,,,,,,,,,,,,,,,,,,,,,,,,
,,,,513236,001,2024-02-02_11h37.57.261,fluency,2022.2.5,Win32,60.24096386,,,,,,,,,,,,,,,,,,,,,,,,,,,,,,,,,,,,,,,,,,,,,,,,,,,,,,,,,,,,,,,,,,,,,,,,,,,,,,,,,,0,0,0,0,1,,"[""j""]",[1.5520999999046126],4,"[""j""]",[1.5521000001431275],,,,,,,,,,,,,,,,,,,,,,,,,,,,,,,,,,,,,,,,,,,,,,,,,,,,,,,,,,,,,,,,,,,,,
,,,,513236,001,2024-02-02_11h37.57.261,fluency,2022.2.5,Win32,60.24096386,,,,,,,,,,,,,,,,,,,,,,,9,2,img/B02_09.jpg,BLEND,Press J if the face is a BLEND and K if the face is a NON-BLEND,A blend is a computer-generated image created by combining together multiple photos of real human faces. A non-blend is a regular photo of a human face.,JK,,,,,,,,,,,,,,,,,,,,,,,,,,,,,,,,8,1.6251,,,,,,,,,,,,,,0,65,65,20,1,,,,,,,,,,,,,space,1.5632,,,,,,,,,,,,,,,,,,,,,,,,,,,,,,,,,,,,,,,,,,,,,,,,,,,,,,,,,,,,,,,,,,,
,,,,513236,001,2024-02-02_11h37.57.261,fluency,2022.2.5,Win32,60.24096386,,,,,,,,,,,,,,,,,,,,,,,6,1,img/B01_06.jpg,BLEND,Press J if the face is a BLEND and K if the face is a NON-BLEND,A blend is a computer-generated image created by combining together multiple photos of real human faces. A non-blend is a regular photo of a human face.,JK,,,,,,,,,,,,,,,,,,,,,,,,,,,,,,,,,,,,,,,,,,,,,,846.857,0,66,66,6,1,109,0,0,0,0,1,98,,,,,,,,,,,,,,,,,,,,,,,,,,,,,,,,,,,,,,,,,,,,,,,,,,,,,,,,,,,,,,,,,,,,,,,,,,
,,,,513236,001,2024-02-02_11h37.57.261,fluency,2022.2.5,Win32,60.24096386,,,,,,,,,,,,,,,,,,,,,,,,,,,,,,,,,,,,,,,,,,,,,,,,,,,,,,,,,,,,,,,,,,,,,,,,,,,,,,,,,,0,0,0,0,1,,"[""j""]",[2.8304000000953238],4,"[""j""]",[2.8304000000953238],,,,,,,,,,,,,,,,,,,,,,,,,,,,,,,,,,,,,,,,,,,,,,,,,,,,,,,,,,,,,,,,,,,,,
,,,,513236,001,2024-02-02_11h37.57.261,fluency,2022.2.5,Win32,60.24096386,,,,,,,,,,,,,,,,,,,,,,,6,1,img/B01_06.jpg,BLEND,Press J if the face is a BLEND and K if the face is a NON-BLEND,A blend is a computer-generated image created by combining together multiple photos of real human faces. A non-blend is a regular photo of a human face.,JK,,,,,,,,,,,,,,,,,,,,,,,,,,,,,,,,6,2.484,,,,,,,,,,,,,,0,66,66,6,1,,,,,,,,,,,,,space,1.852,,,,,,,,,,,,,,,,,,,,,,,,,,,,,,,,,,,,,,,,,,,,,,,,,,,,,,,,,,,,,,,,,,,
,,,,513236,001,2024-02-02_11h37.57.261,fluency,2022.2.5,Win32,60.24096386,,,,,,,,,,,,,,,,,,,,,,,6,3,img/B03_06.jpg,BLEND,Press J if the face is a BLEND and K if the face is a NON-BLEND,A blend is a computer-generated image created by combining together multiple photos of real human faces. A non-blend is a regular photo of a human face.,JK,,,,,,,,,,,,,,,,,,,,,,,,,,,,,,,,,,,,,,,,,,,,,,856.3025,0,67,67,28,1,109,0,0,0,0,1,98,,,,,,,,,,,,,,,,,,,,,,,,,,,,,,,,,,,,,,,,,,,,,,,,,,,,,,,,,,,,,,,,,,,,,,,,,,
,,,,513236,001,2024-02-02_11h37.57.261,fluency,2022.2.5,Win32,60.24096386,,,,,,,,,,,,,,,,,,,,,,,,,,,,,,,,,,,,,,,,,,,,,,,,,,,,,,,,,,,,,,,,,,,,,,,,,,,,,,,,,,0,0,0,0,1,,"[""j""]",[1.6434999999999036],4,"[""j""]",[1.643599999904609],,,,,,,,,,,,,,,,,,,,,,,,,,,,,,,,,,,,,,,,,,,,,,,,,,,,,,,,,,,,,,,,,,,,,
,,,,513236,001,2024-02-02_11h37.57.261,fluency,2022.2.5,Win32,60.24096386,,,,,,,,,,,,,,,,,,,,,,,6,3,img/B03_06.jpg,BLEND,Press J if the face is a BLEND and K if the face is a NON-BLEND,A blend is a computer-generated image created by combining together multiple photos of real human faces. A non-blend is a regular photo of a human face.,JK,,,,,,,,,,,,,,,,,,,,,,,,,,,,,,,,8,1.3036,,,,,,,,,,,,,,0,67,67,28,1,,,,,,,,,,,,,space,1.919,,,,,,,,,,,,,,,,,,,,,,,,,,,,,,,,,,,,,,,,,,,,,,,,,,,,,,,,,,,,,,,,,,,
,,,,513236,001,2024-02-02_11h37.57.261,fluency,2022.2.5,Win32,60.24096386,,,,,,,,,,,,,,,,,,,,,,,7,4,img/B04_07.jpg,BLEND,Press J if the face is a BLEND and K if the face is a NON-BLEND,A blend is a computer-generated image created by combining together multiple photos of real human faces. A non-blend is a regular photo of a human face.,JK,,,,,,,,,,,,,,,,,,,,,,,,,,,,,,,,,,,,,,,,,,,,,,864.6155,0,68,68,40,1,109,0,0,0,0,1,98,,,,,,,,,,,,,,,,,,,,,,,,,,,,,,,,,,,,,,,,,,,,,,,,,,,,,,,,,,,,,,,,,,,,,,,,,,
,,,,513236,001,2024-02-02_11h37.57.261,fluency,2022.2.5,Win32,60.24096386,,,,,,,,,,,,,,,,,,,,,,,,,,,,,,,,,,,,,,,,,,,,,,,,,,,,,,,,,,,,,,,,,,,,,,,,,,,,,,,,,,0,0,0,0,1,,"[""j""]",[1.1399000000953947],4,"[""j""]",[1.1397999999524018],,,,,,,,,,,,,,,,,,,,,,,,,,,,,,,,,,,,,,,,,,,,,,,,,,,,,,,,,,,,,,,,,,,,,
,,,,513236,001,2024-02-02_11h37.57.261,fluency,2022.2.5,Win32,60.24096386,,,,,,,,,,,,,,,,,,,,,,,7,4,img/B04_07.jpg,BLEND,Press J if the face is a BLEND and K if the face is a NON-BLEND,A blend is a computer-generated image created by combining together multiple photos of real human faces. A non-blend is a regular photo of a human face.,JK,,,,,,,,,,,,,,,,,,,,,,,,,,,,,,,,9,1.502,,,,,,,,,,,,,,0,68,68,40,1,,,,,,,,,,,,,space,2.119,,,,,,,,,,,,,,,,,,,,,,,,,,,,,,,,,,,,,,,,,,,,,,,,,,,,,,,,,,,,,,,,,,,
