idTextbox.text,welcomeDone.numClicks,welcomeDone.timesOn,welcomeDone.timesOff,participant,session,date,expName,psychopyVersion,OS,frameRate,consent_advance.keys,consent_advance.rt,consent_advance_2.keys,consent_advance_2.rt,consentClick.x,consentClick.y,consentClick.leftButton,consentClick.midButton,consentClick.rightButton,consentClick.time,consentClick.clicked_name,instr_advance_3.keys,instr_advance_3.rt,spec_instr_adv.keys,spec_instr_adv.rt,spec_instr_adv2.keys,spec_instr_adv2.rt,instrLoop.thisRepN,instrLoop.thisTrialN,instrLoop.thisN,instrLoop.thisIndex,instrLoop.ran,steps,fams,face_file,cond,instr,term,key_map,attnKeyResp1.keys,attnKeyResp1.rt,q1.thisRepN,q1.thisTrialN,q1.thisN,q1.thisIndex,q1.ran,attnKeyResp2.keys,attnKeyResp2.rt,q2.thisRepN,q2.thisTrialN,q2.thisN,q2.thisIndex,q2.ran,attnKeyResp3.keys,attnKeyResp3.rt,q3.thisRepN,q3.thisTrialN,q3.thisN,q3.thisIndex,q3.ran,practiceStart.keys,practiceStart.rt,practiceResp.keys,practiceResp.rt,timesRedone,practiceRepeat.thisRepN,practiceRepeat.thisTrialN,practiceRepeat.thisN,practiceRepeat.thisIndex,practiceRepeat.ran,attrRating.keys,attrRating.rt,practiceTrial.thisRepN,practiceTrial.thisTrialN,practiceTrial.thisN,practiceTrial.thisIndex,practiceTrial.ran,key_resp_3.keys,key_resp_3.rt,attnChecker.thisRepN,attnChecker.thisTrialN,attnChecker.thisN,attnChecker.thisIndex,attnChecker.ran,faceOnsetTime,trials.thisRepN,trials.thisTrialN,trials.thisN,trials.thisIndex,trials.ran,trials.order,repeat_loop.thisRepN,repeat_loop.thisTrialN,repeat_loop.thisN,repeat_loop.thisIndex,repeat_loop.ran,repeat_loop.order,catResp.keys,globalTimesRedone,catAllKeys.keys,redo_keypress.keys,redo_keypress.rt,redo_feedback_loop.thisRepN,redo_feedback_loop.thisTrialN,redo_feedback_loop.thisN,redo_feedback_loop.thisIndex,redo_feedback_loop.ran,catResp.rt,catAllKeys.rt,contResp.keys,contResp.rt,contResp_2.keys,contResp_2.rt,respQ1.response,respQ1.rt,respQ2.response,respQ2.rt,respQ3.response,respQ3.rt,respQ4.response,respQ4.rt,surveyContinue1.numClicks,surveyContinue1.timesOn,surveyContinue1.timesOff,respQ5.response,respQ5.rt,respQ6.response,respQ6.rt,respQ7.response,respQ7.rt,respQ8.response,respQ8.rt,surveyContinue2.numClicks,surveyContinue2.timesOn,surveyContinue2.timesOff,respQ9.response,respQ9.rt,respQ10.response,respQ10.rt,respQ11.response,respQ11.rt,respQ12.response,respQ12.rt,surveyContinue3.numClicks,surveyContinue3.timesOn,surveyContinue3.timesOff,respQ13.response,respQ13.rt,respQ14.response,respQ14.rt,respQ15.response,respQ15.rt,surveyContinue4.numClicks,surveyContinue4.timesOn,surveyContinue4.timesOff,respAge.response,respAge.rt,genderResp1.response,genderResp1.rt,genderResp2.text,demogexitClick.numClicks,demogexitClick.timesOn,demogexitClick.timesOff,textbox.text,openAnswerClick.numClicks,openAnswerClick.timesOn,openAnswerClick.timesOff,debriefEnd.keys,debriefEnd.rt,exitKey.keys,exitKey.rt
546bd06ffdf99b2b8df97e88,1,[21.683600000023844],[21.683600000023844],049024,001,2024-02-02_18h38.02.405,fluency,2022.2.5,Win32,121.9512195,,,,,,,,,,,,,,,,,,,,,,,,,,,,,,,,,,,,,,,,,,,,,,,,,,,,,,,,,,,,,,,,,,,,,,,,,,,,,,,,,,,,,,,,,,,,,,,,,,,,,,,,,,,,,,,,,,,,,,,,,,,,,,,,,,,,,,,,,,,,,,,,,,,,,,,,,,,,,,,,,
,,,,049024,001,2024-02-02_18h38.02.405,fluency,2022.2.5,Win32,121.9512195,space,41.0801,,,,,,,,,,,,,,,,,,,,,,,,,,,,,,,,,,,,,,,,,,,,,,,,,,,,,,,,,,,,,,,,,,,,,,,,,,,,,,,,,,,,,,,,,,,,,,,,,,,,,,,,,,,,,,,,,,,,,,,,,,,,,,,,,,,,,,,,,,,,,,,,,,,,,,,,,,,,,,,
,,,,049024,001,2024-02-02_18h38.02.405,fluency,2022.2.5,Win32,121.9512195,,,space,23.6257,,,,,,,,,,,,,,,,,,,,,,,,,,,,,,,,,,,,,,,,,,,,,,,,,,,,,,,,,,,,,,,,,,,,,,,,,,,,,,,,,,,,,,,,,,,,,,,,,,,,,,,,,,,,,,,,,,,,,,,,,,,,,,,,,,,,,,,,,,,,,,,,,,,,,,,,,,,,,
,,,,049024,001,2024-02-02_18h38.02.405,fluency,2022.2.5,Win32,121.9512195,,,,,0.305555556,-0.329166667,1,0,0,44.0842,iAgree,,,,,,,,,,,,,,,,,,,,,,,,,,,,,,,,,,,,,,,,,,,,,,,,,,,,,,,,,,,,,,,,,,,,,,,,,,,,,,,,,,,,,,,,,,,,,,,,,,,,,,,,,,,,,,,,,,,,,,,,,,,,,,,,,,,,,,,,,,,,,,,,,,,,,,
,,,,049024,001,2024-02-02_18h38.02.405,fluency,2022.2.5,Win32,121.9512195,,,,,,,,,,,,space,36.9199,,,,,,,,,,,,,,,,,,,,,,,,,,,,,,,,,,,,,,,,,,,,,,,,,,,,,,,,,,,,,,,,,,,,,,,,,,,,,,,,,,,,,,,,,,,,,,,,,,,,,,,,,,,,,,,,,,,,,,,,,,,,,,,,,,,,,,,,,,,,,,,,,,,,
,,,,049024,001,2024-02-02_18h38.02.405,fluency,2022.2.5,Win32,121.9512195,,,,,,,,,,,,,,space,131.3581,space,9.0366,0,0,0,103,1,4,10,img/B10_04.jpg,GCNB,Press J if the face is NONBINARY and K if the face is GENDER-CONFORMING,Gender-conforming means that the face appears to be a typical example of its gender. Nonbinary means that the face does not conform to any particular gender norms.,KJ,,,,,,,,,,,,,,,,,,,,,,,,,,,,,,,,,,,,,,,,,,,,,,,,,,,,,,,,,,,,,,,,,,,,,,,,,,,,,,,,,,,,,,,,,,,,,,,,,,,,,,,,,,,,,,,,,,,,,,,,,,,,,,,,,,,,
,,,,049024,001,2024-02-02_18h38.02.405,fluency,2022.2.5,Win32,121.9512195,,,,,,,,,,,,,,,,,,,,,,,,,,,,,,c,9.952,0,0,0,0,1,,,,,,,,,,,,,,,,,,,,,,,,,,,,,,,,,,,,,,,,,,,,,,,,,,,,,,,,,,,,,,,,,,,,,,,,,,,,,,,,,,,,,,,,,,,,,,,,,,,,,,,,,,,,,,,,,,,,,,,,,,,,,
,,,,049024,001,2024-02-02_18h38.02.405,fluency,2022.2.5,Win32,121.9512195,,,,,,,,,,,,,,,,,,,,,,,,,,,,,,,,,,,,,a,6.0394,0,0,0,0,1,,,,,,,,,,,,,,,,,,,,,,,,,,,,,,,,,,,,,,,,,,,,,,,,,,,,,,,,,,,,,,,,,,,,,,,,,,,,,,,,,,,,,,,,,,,,,,,,,,,,,,,,,,,,,,,,,,,,,,
,,,,049024,001,2024-02-02_18h38.02.405,fluency,2022.2.5,Win32,121.9512195,,,,,,,,,,,,,,,,,,,,,,,,,,,,,,,,,,,,,,,,,,,,c,9.52,0,0,0,0,1,,,,,,,,,,,,,,,,,,,,,,,,,,,,,,,,,,,,,,,,,,,,,,,,,,,,,,,,,,,,,,,,,,,,,,,,,,,,,,,,,,,,,,,,,,,,,,,,,,,,,,,,,,,,,,,
,,,,049024,001,2024-02-02_18h38.02.405,fluency,2022.2.5,Win32,121.9512195,,,,,,,,,,,,,,,,,,,,,,,,,,,,,,,,,,,,,,,,,,,,,,,,,,,space,6.4787,k,1.5286,0,0,0,0,0,1,,,,,,,,,,,,,,,,,,,,,,,,,,,,,,,,,,,,,,,,,,,,,,,,,,,,,,,,,,,,,,,,,,,,,,,,,,,,,,,,,,,,,,,,,,,,,,,,,,,,,
,,,,049024,001,2024-02-02_18h38.02.405,fluency,2022.2.5,Win32,121.9512195,,,,,,,,,,,,,,,,,,,,,,,,,,,,,,,,,,,,,,,,,,,,,,,,,,,,,,,,,,,,,6,9.9402,0,0,0,0,1,,,,,,,,,,,,,,,,,,,,,,,,,,,,,,,,,,,,,,,,,,,,,,,,,,,,,,,,,,,,,,,,,,,,,,,,,,,,,,,,,,,,,,,,,,,,,,
,,,,049024,001,2024-02-02_18h38.02.405,fluency,2022.2.5,Win32,121.9512195,,,,,,,,,,,,,,,,,,,,,,,,,,,,,,,,,,,,,,,,,,,,,,,,,,,,,,,,,,,,,,,,,,,,space,5.0061,0,0,0,0,1,,,,,,,,,,,,,,,,,,,,,,,,,,,,,,,,,,,,,,,,,,,,,,,,,,,,,,,,,,,,,,,,,,,,,,,,,,,,,,,,,,,,,,,
,,,,049024,001,2024-02-02_18h38.02.405,fluency,2022.2.5,Win32,121.9512195,,,,,,,,,,,,,,,,,,,,,,,5,1,img/B01_05.jpg,GCNB,Press J if the face is NONBINARY and K if the face is GENDER-CONFORMING,Gender-conforming means that the face appears to be a typical example of its gender. Nonbinary means that the face does not conform to any particular gender norms.,KJ,,,,,,,,,,,,,,,,,,,,,,,,,,,,,,,,,,,,,,,,,,,,,,379.1227,0,0,0,5,1,109,0,0,0,0,1,98,,,,,,,,,,,,,,,,,,,,,,,,,,,,,,,,,,,,,,,,,,,,,,,,,,,,,,,,,,,,,,,,,,,,,,,,,,
,,,,049024,001,2024-02-02_18h38.02.405,fluency,2022.2.5,Win32,121.9512195,,,,,,,,,,,,,,,,,,,,,,,,,,,,,,,,,,,,,,,,,,,,,,,,,,,,,,,,,,,,,,,,,,,,,,,,,,,,,,,,,,,,,,,,,1,,space,7.0297,0,0,0,0,1,,,,,,,,,,,,,,,,,,,,,,,,,,,,,,,,,,,,,,,,,,,,,,,,,,,,,,,,,,,,,,,,
,,,,049024,001,2024-02-02_18h38.02.405,fluency,2022.2.5,Win32,121.9512195,,,,,,,,,,,,,,,,,,,,,,,,,,,,,,,,,,,,,,,,,,,,,,,,,,,,,,,,,,,,,,,,,,,,,,,,,,,,,,,,,,0,0,0,0,1,,,,,,,,,,,,,,,,,,,,,,,,,,,,,,,,,,,,,,,,,,,,,,,,,,,,,,,,,,,,,,,,,,,,,,,,,,,
,,,,049024,001,2024-02-02_18h38.02.405,fluency,2022.2.5,Win32,121.9512195,,,,,,,,,,,,,,,,,,,,,,,5,1,img/B01_05.jpg,GCNB,Press J if the face is NONBINARY and K if the face is GENDER-CONFORMING,Gender-conforming means that the face appears to be a typical example of its gender. Nonbinary means that the face does not conform to any particular gender norms.,KJ,,,,,,,,,,,,,,,,,,,,,,,,,,,,,,,,,,,,,,,,,,,,,,390.1889,0,0,0,5,1,109,1,0,1,0,1,98,,,,,,,,,,,,,,,,,,,,,,,,,,,,,,,,,,,,,,,,,,,,,,,,,,,,,,,,,,,,,,,,,,,,,,,,,,
,,,,049024,001,2024-02-02_18h38.02.405,fluency,2022.2.5,Win32,121.9512195,,,,,,,,,,,,,,,,,,,,,,,,,,,,,,,,,,,,,,,,,,,,,,,,,,,,,,,,,,,,,,,,,,,,,,,,,,,,,,,,,,1,0,1,0,1,,"[""k""]",1,"[""k""]",,,,,,,,[0.6363999999761631],[0.6363999999761631],,,,,,,,,,,,,,,,,,,,,,,,,,,,,,,,,,,,,,,,,,,,,,,,,,,,,,,,,,,,,,
,,,,049024,001,2024-02-02_18h38.02.405,fluency,2022.2.5,Win32,121.9512195,,,,,,,,,,,,,,,,,,,,,,,5,1,img/B01_05.jpg,GCNB,Press J if the face is NONBINARY and K if the face is GENDER-CONFORMING,Gender-conforming means that the face appears to be a typical example of its gender. Nonbinary means that the face does not conform to any particular gender norms.,KJ,,,,,,,,,,,,,,,,,,,,,,,,,,,,,,,,5,6.2316,,,,,,,,,,,,,,0,0,0,5,1,,,,,,,,,,,,,,,,,,,,space,8.9768,,,,,,,,,,,,,,,,,,,,,,,,,,,,,,,,,,,,,,,,,,,,,,,,,,,,,,,,,,,,
,,,,049024,001,2024-02-02_18h38.02.405,fluency,2022.2.5,Win32,121.9512195,,,,,,,,,,,,,,,,,,,,,,,3,10,img/B10_03.jpg,GCNB,Press J if the face is NONBINARY and K if the face is GENDER-CONFORMING,Gender-conforming means that the face appears to be a typical example of its gender. Nonbinary means that the face does not conform to any particular gender norms.,KJ,,,,,,,,,,,,,,,,,,,,,,,,,,,,,,,,,,,,,,,,,,,,,,409.4559,0,1,1,102,1,109,0,0,0,0,1,98,,,,,,,,,,,,,,,,,,,,,,,,,,,,,,,,,,,,,,,,,,,,,,,,,,,,,,,,,,,,,,,,,,,,,,,,,,
,,,,049024,001,2024-02-02_18h38.02.405,fluency,2022.2.5,Win32,121.9512195,,,,,,,,,,,,,,,,,,,,,,,,,,,,,,,,,,,,,,,,,,,,,,,,,,,,,,,,,,,,,,,,,,,,,,,,,,,,,,,,,,0,0,0,0,1,,"[""k""]",1,"[""k""]",,,,,,,,[0.8071000000238087],[0.8071000000238087],,,,,,,,,,,,,,,,,,,,,,,,,,,,,,,,,,,,,,,,,,,,,,,,,,,,,,,,,,,,,,
,,,,049024,001,2024-02-02_18h38.02.405,fluency,2022.2.5,Win32,121.9512195,,,,,,,,,,,,,,,,,,,,,,,3,10,img/B10_03.jpg,GCNB,Press J if the face is NONBINARY and K if the face is GENDER-CONFORMING,Gender-conforming means that the face appears to be a typical example of its gender. Nonbinary means that the face does not conform to any particular gender norms.,KJ,,,,,,,,,,,,,,,,,,,,,,,,,,,,,,,,7,3.9559,,,,,,,,,,,,,,0,1,1,102,1,,,,,,,,,,,,,,,,,,,,space,5.1148,,,,,,,,,,,,,,,,,,,,,,,,,,,,,,,,,,,,,,,,,,,,,,,,,,,,,,,,,,,,
,,,,049024,001,2024-02-02_18h38.02.405,fluency,2022.2.5,Win32,121.9512195,,,,,,,,,,,,,,,,,,,,,,,1,8,img/B08_01.jpg,GCNB,Press J if the face is NONBINARY and K if the face is GENDER-CONFORMING,Gender-conforming means that the face appears to be a typical example of its gender. Nonbinary means that the face does not conform to any particular gender norms.,KJ,,,,,,,,,,,,,,,,,,,,,,,,,,,,,,,,,,,,,,,,,,,,,,423.5646,0,2,2,78,1,109,0,0,0,0,1,98,,,,,,,,,,,,,,,,,,,,,,,,,,,,,,,,,,,,,,,,,,,,,,,,,,,,,,,,,,,,,,,,,,,,,,,,,,
,,,,049024,001,2024-02-02_18h38.02.405,fluency,2022.2.5,Win32,121.9512195,,,,,,,,,,,,,,,,,,,,,,,,,,,,,,,,,,,,,,,,,,,,,,,,,,,,,,,,,,,,,,,,,,,,,,,,,,,,,,,,,,0,0,0,0,1,,"[""k""]",1,"[""k""]",,,,,,,,[0.9963999999761199],[0.9963999999761199],,,,,,,,,,,,,,,,,,,,,,,,,,,,,,,,,,,,,,,,,,,,,,,,,,,,,,,,,,,,,,
,,,,049024,001,2024-02-02_18h38.02.405,fluency,2022.2.5,Win32,121.9512195,,,,,,,,,,,,,,,,,,,,,,,1,8,img/B08_01.jpg,GCNB,Press J if the face is NONBINARY and K if the face is GENDER-CONFORMING,Gender-conforming means that the face appears to be a typical example of its gender. Nonbinary means that the face does not conform to any particular gender norms.,KJ,,,,,,,,,,,,,,,,,,,,,,,,,,,,,,,,5,2.0056,,,,,,,,,,,,,,0,2,2,78,1,,,,,,,,,,,,,,,,,,,,space,1.4442,,,,,,,,,,,,,,,,,,,,,,,,,,,,,,,,,,,,,,,,,,,,,,,,,,,,,,,,,,,,
,,,,049024,001,2024-02-02_18h38.02.405,fluency,2022.2.5,Win32,121.9512195,,,,,,,,,,,,,,,,,,,,,,,7,5,img/B05_07.jpg,GCNB,Press J if the face is NONBINARY and K if the face is GENDER-CONFORMING,Gender-conforming means that the face appears to be a typical example of its gender. Nonbinary means that the face does not conform to any particular gender norms.,KJ,,,,,,,,,,,,,,,,,,,,,,,,,,,,,,,,,,,,,,,,,,,,,,432.0648,0,3,3,51,1,109,0,0,0,0,1,98,,,,,,,,,,,,,,,,,,,,,,,,,,,,,,,,,,,,,,,,,,,,,,,,,,,,,,,,,,,,,,,,,,,,,,,,,,
,,,,049024,001,2024-02-02_18h38.02.405,fluency,2022.2.5,Win32,121.9512195,,,,,,,,,,,,,,,,,,,,,,,,,,,,,,,,,,,,,,,,,,,,,,,,,,,,,,,,,,,,,,,,,,,,,,,,,,,,,,,,,,0,0,0,0,1,,"[""k""]",1,"[""k""]",,,,,,,,[1.1055999999046549],[1.1055000000000064],,,,,,,,,,,,,,,,,,,,,,,,,,,,,,,,,,,,,,,,,,,,,,,,,,,,,,,,,,,,,,
,,,,049024,001,2024-02-02_18h38.02.405,fluency,2022.2.5,Win32,121.9512195,,,,,,,,,,,,,,,,,,,,,,,7,5,img/B05_07.jpg,GCNB,Press J if the face is NONBINARY and K if the face is GENDER-CONFORMING,Gender-conforming means that the face appears to be a typical example of its gender. Nonbinary means that the face does not conform to any particular gender norms.,KJ,,,,,,,,,,,,,,,,,,,,,,,,,,,,,,,,5,3.9867,,,,,,,,,,,,,,0,3,3,51,1,,,,,,,,,,,,,,,,,,,,space,2.7654,,,,,,,,,,,,,,,,,,,,,,,,,,,,,,,,,,,,,,,,,,,,,,,,,,,,,,,,,,,,
,,,,049024,001,2024-02-02_18h38.02.405,fluency,2022.2.5,Win32,121.9512195,,,,,,,,,,,,,,,,,,,,,,,7,7,img/B07_07.jpg,GCNB,Press J if the face is NONBINARY and K if the face is GENDER-CONFORMING,Gender-conforming means that the face appears to be a typical example of its gender. Nonbinary means that the face does not conform to any particular gender norms.,KJ,,,,,,,,,,,,,,,,,,,,,,,,,,,,,,,,,,,,,,,,,,,,,,443.8565,0,4,4,73,1,109,0,0,0,0,1,98,,,,,,,,,,,,,,,,,,,,,,,,,,,,,,,,,,,,,,,,,,,,,,,,,,,,,,,,,,,,,,,,,,,,,,,,,,
,,,,049024,001,2024-02-02_18h38.02.405,fluency,2022.2.5,Win32,121.9512195,,,,,,,,,,,,,,,,,,,,,,,,,,,,,,,,,,,,,,,,,,,,,,,,,,,,,,,,,,,,,,,,,,,,,,,,,,,,,,,,,,0,0,0,0,1,,"[""k""]",1,"[""k""]",,,,,,,,[1.171299999952339],[1.171299999952339],,,,,,,,,,,,,,,,,,,,,,,,,,,,,,,,,,,,,,,,,,,,,,,,,,,,,,,,,,,,,,
,,,,049024,001,2024-02-02_18h38.02.405,fluency,2022.2.5,Win32,121.9512195,,,,,,,,,,,,,,,,,,,,,,,7,7,img/B07_07.jpg,GCNB,Press J if the face is NONBINARY and K if the face is GENDER-CONFORMING,Gender-conforming means that the face appears to be a typical example of its gender. Nonbinary means that the face does not conform to any particular gender norms.,KJ,,,,,,,,,,,,,,,,,,,,,,,,,,,,,,,,7,3.6162,,,,,,,,,,,,,,0,4,4,73,1,,,,,,,,,,,,,,,,,,,,space,1.7471,,,,,,,,,,,,,,,,,,,,,,,,,,,,,,,,,,,,,,,,,,,,,,,,,,,,,,,,,,,,
,,,,049024,001,2024-02-02_18h38.02.405,fluency,2022.2.5,Win32,121.9512195,,,,,,,,,,,,,,,,,,,,,,,6,10,img/B10_06.jpg,GCNB,Press J if the face is NONBINARY and K if the face is GENDER-CONFORMING,Gender-conforming means that the face appears to be a typical example of its gender. Nonbinary means that the face does not conform to any particular gender norms.,KJ,,,,,,,,,,,,,,,,,,,,,,,,,,,,,,,,,,,,,,,,,,,,,,453.2484,0,5,5,105,1,109,0,0,0,0,1,98,,,,,,,,,,,,,,,,,,,,,,,,,,,,,,,,,,,,,,,,,,,,,,,,,,,,,,,,,,,,,,,,,,,,,,,,,,
,,,,049024,001,2024-02-02_18h38.02.405,fluency,2022.2.5,Win32,121.9512195,,,,,,,,,,,,,,,,,,,,,,,,,,,,,,,,,,,,,,,,,,,,,,,,,,,,,,,,,,,,,,,,,,,,,,,,,,,,,,,,,,0,0,0,0,1,,"[""k""]",1,"[""k""]",,,,,,,,[1.8737999999523254],[1.8737999999523254],,,,,,,,,,,,,,,,,,,,,,,,,,,,,,,,,,,,,,,,,,,,,,,,,,,,,,,,,,,,,,
,,,,049024,001,2024-02-02_18h38.02.405,fluency,2022.2.5,Win32,121.9512195,,,,,,,,,,,,,,,,,,,,,,,6,10,img/B10_06.jpg,GCNB,Press J if the face is NONBINARY and K if the face is GENDER-CONFORMING,Gender-conforming means that the face appears to be a typical example of its gender. Nonbinary means that the face does not conform to any particular gender norms.,KJ,,,,,,,,,,,,,,,,,,,,,,,,,,,,,,,,5,10.1064,,,,,,,,,,,,,,0,5,5,105,1,,,,,,,,,,,,,,,,,,,,space,4.4892,,,,,,,,,,,,,,,,,,,,,,,,,,,,,,,,,,,,,,,,,,,,,,,,,,,,,,,,,,,,
,,,,049024,001,2024-02-02_18h38.02.405,fluency,2022.2.5,Win32,121.9512195,,,,,,,,,,,,,,,,,,,,,,,9,1,img/B01_09.jpg,GCNB,Press J if the face is NONBINARY and K if the face is GENDER-CONFORMING,Gender-conforming means that the face appears to be a typical example of its gender. Nonbinary means that the face does not conform to any particular gender norms.,KJ,,,,,,,,,,,,,,,,,,,,,,,,,,,,,,,,,,,,,,,,,,,,,,471.8902,0,6,6,9,1,109,0,0,0,0,1,98,,,,,,,,,,,,,,,,,,,,,,,,,,,,,,,,,,,,,,,,,,,,,,,,,,,,,,,,,,,,,,,,,,,,,,,,,,
,,,,049024,001,2024-02-02_18h38.02.405,fluency,2022.2.5,Win32,121.9512195,,,,,,,,,,,,,,,,,,,,,,,,,,,,,,,,,,,,,,,,,,,,,,,,,,,,,,,,,,,,,,,,,,,,,,,,,,,,,,,,,,0,0,0,0,1,,"[""k""]",1,"[""k""]",,,,,,,,[2.521000000000015],[2.520899999976166],,,,,,,,,,,,,,,,,,,,,,,,,,,,,,,,,,,,,,,,,,,,,,,,,,,,,,,,,,,,,,
,,,,049024,001,2024-02-02_18h38.02.405,fluency,2022.2.5,Win32,121.9512195,,,,,,,,,,,,,,,,,,,,,,,9,1,img/B01_09.jpg,GCNB,Press J if the face is NONBINARY and K if the face is GENDER-CONFORMING,Gender-conforming means that the face appears to be a typical example of its gender. Nonbinary means that the face does not conform to any particular gender norms.,KJ,,,,,,,,,,,,,,,,,,,,,,,,,,,,,,,,6,5.8106,,,,,,,,,,,,,,0,6,6,9,1,,,,,,,,,,,,,,,,,,,,space,9.2268,,,,,,,,,,,,,,,,,,,,,,,,,,,,,,,,,,,,,,,,,,,,,,,,,,,,,,,,,,,,
,,,,049024,001,2024-02-02_18h38.02.405,fluency,2022.2.5,Win32,121.9512195,,,,,,,,,,,,,,,,,,,,,,,10,7,img/B07_10.jpg,GCNB,Press J if the face is NONBINARY and K if the face is GENDER-CONFORMING,Gender-conforming means that the face appears to be a typical example of its gender. Nonbinary means that the face does not conform to any particular gender norms.,KJ,,,,,,,,,,,,,,,,,,,,,,,,,,,,,,,,,,,,,,,,,,,,,,491.9822,0,7,7,76,1,109,0,0,0,0,1,98,,,,,,,,,,,,,,,,,,,,,,,,,,,,,,,,,,,,,,,,,,,,,,,,,,,,,,,,,,,,,,,,,,,,,,,,,,
,,,,049024,001,2024-02-02_18h38.02.405,fluency,2022.2.5,Win32,121.9512195,,,,,,,,,,,,,,,,,,,,,,,,,,,,,,,,,,,,,,,,,,,,,,,,,,,,,,,,,,,,,,,,,,,,,,,,,,,,,,,,,,0,0,0,0,1,,"[""k""]",1,"[""k""]",,,,,,,,[1.2973999999761645],[1.2975000000000136],,,,,,,,,,,,,,,,,,,,,,,,,,,,,,,,,,,,,,,,,,,,,,,,,,,,,,,,,,,,,,
,,,,049024,001,2024-02-02_18h38.02.405,fluency,2022.2.5,Win32,121.9512195,,,,,,,,,,,,,,,,,,,,,,,10,7,img/B07_10.jpg,GCNB,Press J if the face is NONBINARY and K if the face is GENDER-CONFORMING,Gender-conforming means that the face appears to be a typical example of its gender. Nonbinary means that the face does not conform to any particular gender norms.,KJ,,,,,,,,,,,,,,,,,,,,,,,,,,,,,,,,7,1.764,,,,,,,,,,,,,,0,7,7,76,1,,,,,,,,,,,,,,,,,,,,space,1.5761,,,,,,,,,,,,,,,,,,,,,,,,,,,,,,,,,,,,,,,,,,,,,,,,,,,,,,,,,,,,
,,,,049024,001,2024-02-02_18h38.02.405,fluency,2022.2.5,Win32,121.9512195,,,,,,,,,,,,,,,,,,,,,,,7,3,img/B03_07.jpg,GCNB,Press J if the face is NONBINARY and K if the face is GENDER-CONFORMING,Gender-conforming means that the face appears to be a typical example of its gender. Nonbinary means that the face does not conform to any particular gender norms.,KJ,,,,,,,,,,,,,,,,,,,,,,,,,,,,,,,,,,,,,,,,,,,,,,500.3738,0,8,8,29,1,109,0,0,0,0,1,98,,,,,,,,,,,,,,,,,,,,,,,,,,,,,,,,,,,,,,,,,,,,,,,,,,,,,,,,,,,,,,,,,,,,,,,,,,
,,,,049024,001,2024-02-02_18h38.02.405,fluency,2022.2.5,Win32,121.9512195,,,,,,,,,,,,,,,,,,,,,,,,,,,,,,,,,,,,,,,,,,,,,,,,,,,,,,,,,,,,,,,,,,,,,,,,,,,,,,,,,,0,0,0,0,1,,"[""k""]",1,"[""k""]",,,,,,,,[1.3253999999761845],[1.3253999999761845],,,,,,,,,,,,,,,,,,,,,,,,,,,,,,,,,,,,,,,,,,,,,,,,,,,,,,,,,,,,,,
,,,,049024,001,2024-02-02_18h38.02.405,fluency,2022.2.5,Win32,121.9512195,,,,,,,,,,,,,,,,,,,,,,,7,3,img/B03_07.jpg,GCNB,Press J if the face is NONBINARY and K if the face is GENDER-CONFORMING,Gender-conforming means that the face appears to be a typical example of its gender. Nonbinary means that the face does not conform to any particular gender norms.,KJ,,,,,,,,,,,,,,,,,,,,,,,,,,,,,,,,6,4.824,,,,,,,,,,,,,,0,8,8,29,1,,,,,,,,,,,,,,,,,,,,space,1.147,,,,,,,,,,,,,,,,,,,,,,,,,,,,,,,,,,,,,,,,,,,,,,,,,,,,,,,,,,,,
,,,,049024,001,2024-02-02_18h38.02.405,fluency,2022.2.5,Win32,121.9512195,,,,,,,,,,,,,,,,,,,,,,,6,1,img/B01_06.jpg,GCNB,Press J if the face is NONBINARY and K if the face is GENDER-CONFORMING,Gender-conforming means that the face appears to be a typical example of its gender. Nonbinary means that the face does not conform to any particular gender norms.,KJ,,,,,,,,,,,,,,,,,,,,,,,,,,,,,,,,,,,,,,,,,,,,,,511.3823,0,9,9,6,1,109,0,0,0,0,1,98,,,,,,,,,,,,,,,,,,,,,,,,,,,,,,,,,,,,,,,,,,,,,,,,,,,,,,,,,,,,,,,,,,,,,,,,,,
,,,,049024,001,2024-02-02_18h38.02.405,fluency,2022.2.5,Win32,121.9512195,,,,,,,,,,,,,,,,,,,,,,,,,,,,,,,,,,,,,,,,,,,,,,,,,,,,,,,,,,,,,,,,,,,,,,,,,,,,,,,,,,0,0,0,0,1,,"[""j""]",1,"[""j""]",,,,,,,,[1.3218999999761536],[1.3218999999761536],,,,,,,,,,,,,,,,,,,,,,,,,,,,,,,,,,,,,,,,,,,,,,,,,,,,,,,,,,,,,,
,,,,049024,001,2024-02-02_18h38.02.405,fluency,2022.2.5,Win32,121.9512195,,,,,,,,,,,,,,,,,,,,,,,6,1,img/B01_06.jpg,GCNB,Press J if the face is NONBINARY and K if the face is GENDER-CONFORMING,Gender-conforming means that the face appears to be a typical example of its gender. Nonbinary means that the face does not conform to any particular gender norms.,KJ,,,,,,,,,,,,,,,,,,,,,,,,,,,,,,,,5,7.6398,,,,,,,,,,,,,,0,9,9,6,1,,,,,,,,,,,,,,,,,,,,space,1.6206,,,,,,,,,,,,,,,,,,,,,,,,,,,,,,,,,,,,,,,,,,,,,,,,,,,,,,,,,,,,
,,,,049024,001,2024-02-02_18h38.02.405,fluency,2022.2.5,Win32,121.9512195,,,,,,,,,,,,,,,,,,,,,,,2,10,img/B10_02.jpg,GCNB,Press J if the face is NONBINARY and K if the face is GENDER-CONFORMING,Gender-conforming means that the face appears to be a typical example of its gender. Nonbinary means that the face does not conform to any particular gender norms.,KJ,,,,,,,,,,,,,,,,,,,,,,,,,,,,,,,,,,,,,,,,,,,,,,525.6907,0,10,10,101,1,109,0,0,0,0,1,98,,,,,,,,,,,,,,,,,,,,,,,,,,,,,,,,,,,,,,,,,,,,,,,,,,,,,,,,,,,,,,,,,,,,,,,,,,
,,,,049024,001,2024-02-02_18h38.02.405,fluency,2022.2.5,Win32,121.9512195,,,,,,,,,,,,,,,,,,,,,,,,,,,,,,,,,,,,,,,,,,,,,,,,,,,,,,,,,,,,,,,,,,,,,,,,,,,,,,,,,,0,0,0,0,1,,"[""k""]",1,"[""k""]",,,,,,,,[0.7891000000238364],[0.7891000000238364],,,,,,,,,,,,,,,,,,,,,,,,,,,,,,,,,,,,,,,,,,,,,,,,,,,,,,,,,,,,,,
,,,,049024,001,2024-02-02_18h38.02.405,fluency,2022.2.5,Win32,121.9512195,,,,,,,,,,,,,,,,,,,,,,,2,10,img/B10_02.jpg,GCNB,Press J if the face is NONBINARY and K if the face is GENDER-CONFORMING,Gender-conforming means that the face appears to be a typical example of its gender. Nonbinary means that the face does not conform to any particular gender norms.,KJ,,,,,,,,,,,,,,,,,,,,,,,,,,,,,,,,7,1.372,,,,,,,,,,,,,,0,10,10,101,1,,,,,,,,,,,,,,,,,,,,space,2.15,,,,,,,,,,,,,,,,,,,,,,,,,,,,,,,,,,,,,,,,,,,,,,,,,,,,,,,,,,,,
,,,,049024,001,2024-02-02_18h38.02.405,fluency,2022.2.5,Win32,121.9512195,,,,,,,,,,,,,,,,,,,,,,,8,8,img/B08_08.jpg,GCNB,Press J if the face is NONBINARY and K if the face is GENDER-CONFORMING,Gender-conforming means that the face appears to be a typical example of its gender. Nonbinary means that the face does not conform to any particular gender norms.,KJ,,,,,,,,,,,,,,,,,,,,,,,,,,,,,,,,,,,,,,,,,,,,,,533.2658,0,11,11,85,1,109,0,0,0,0,1,98,,,,,,,,,,,,,,,,,,,,,,,,,,,,,,,,,,,,,,,,,,,,,,,,,,,,,,,,,,,,,,,,,,,,,,,,,,
,,,,049024,001,2024-02-02_18h38.02.405,fluency,2022.2.5,Win32,121.9512195,,,,,,,,,,,,,,,,,,,,,,,,,,,,,,,,,,,,,,,,,,,,,,,,,,,,,,,,,,,,,,,,,,,,,,,,,,,,,,,,,,0,0,0,0,1,,"[""k""]",1,"[""k""]",,,,,,,,[1.629000000000019],[1.629000000000019],,,,,,,,,,,,,,,,,,,,,,,,,,,,,,,,,,,,,,,,,,,,,,,,,,,,,,,,,,,,,,
,,,,049024,001,2024-02-02_18h38.02.405,fluency,2022.2.5,Win32,121.9512195,,,,,,,,,,,,,,,,,,,,,,,8,8,img/B08_08.jpg,GCNB,Press J if the face is NONBINARY and K if the face is GENDER-CONFORMING,Gender-conforming means that the face appears to be a typical example of its gender. Nonbinary means that the face does not conform to any particular gender norms.,KJ,,,,,,,,,,,,,,,,,,,,,,,,,,,,,,,,6,5.2098,,,,,,,,,,,,,,0,11,11,85,1,,,,,,,,,,,,,,,,,,,,space,1.0155,,,,,,,,,,,,,,,,,,,,,,,,,,,,,,,,,,,,,,,,,,,,,,,,,,,,,,,,,,,,
,,,,049024,001,2024-02-02_18h38.02.405,fluency,2022.2.5,Win32,121.9512195,,,,,,,,,,,,,,,,,,,,,,,10,2,img/B02_10.jpg,GCNB,Press J if the face is NONBINARY and K if the face is GENDER-CONFORMING,Gender-conforming means that the face appears to be a typical example of its gender. Nonbinary means that the face does not conform to any particular gender norms.,KJ,,,,,,,,,,,,,,,,,,,,,,,,,,,,,,,,,,,,,,,,,,,,,,543.5411,0,12,12,21,1,109,0,0,0,0,1,98,,,,,,,,,,,,,,,,,,,,,,,,,,,,,,,,,,,,,,,,,,,,,,,,,,,,,,,,,,,,,,,,,,,,,,,,,,
,,,,049024,001,2024-02-02_18h38.02.405,fluency,2022.2.5,Win32,121.9512195,,,,,,,,,,,,,,,,,,,,,,,,,,,,,,,,,,,,,,,,,,,,,,,,,,,,,,,,,,,,,,,,,,,,,,,,,,,,,,,,,,0,0,0,0,1,,"[""k""]",1,"[""k""]",,,,,,,,[1.2128999999761163],[1.2127999999522672],,,,,,,,,,,,,,,,,,,,,,,,,,,,,,,,,,,,,,,,,,,,,,,,,,,,,,,,,,,,,,
,,,,049024,001,2024-02-02_18h38.02.405,fluency,2022.2.5,Win32,121.9512195,,,,,,,,,,,,,,,,,,,,,,,10,2,img/B02_10.jpg,GCNB,Press J if the face is NONBINARY and K if the face is GENDER-CONFORMING,Gender-conforming means that the face appears to be a typical example of its gender. Nonbinary means that the face does not conform to any particular gender norms.,KJ,,,,,,,,,,,,,,,,,,,,,,,,,,,,,,,,7,7.3947,,,,,,,,,,,,,,0,12,12,21,1,,,,,,,,,,,,,,,,,,,,space,0.8745,,,,,,,,,,,,,,,,,,,,,,,,,,,,,,,,,,,,,,,,,,,,,,,,,,,,,,,,,,,,
,,,,049024,001,2024-02-02_18h38.02.405,fluency,2022.2.5,Win32,121.9512195,,,,,,,,,,,,,,,,,,,,,,,4,10,img/B10_04.jpg,GCNB,Press J if the face is NONBINARY and K if the face is GENDER-CONFORMING,Gender-conforming means that the face appears to be a typical example of its gender. Nonbinary means that the face does not conform to any particular gender norms.,KJ,,,,,,,,,,,,,,,,,,,,,,,,,,,,,,,,,,,,,,,,,,,,,,555.8579,0,13,13,103,1,109,0,0,0,0,1,98,,,,,,,,,,,,,,,,,,,,,,,,,,,,,,,,,,,,,,,,,,,,,,,,,,,,,,,,,,,,,,,,,,,,,,,,,,
,,,,049024,001,2024-02-02_18h38.02.405,fluency,2022.2.5,Win32,121.9512195,,,,,,,,,,,,,,,,,,,,,,,,,,,,,,,,,,,,,,,,,,,,,,,,,,,,,,,,,,,,,,,,,,,,,,,,,,,,,,,,,,0,0,0,0,1,,"[""k""]",1,"[""k""]",,,,,,,,[1.464800000071591],[1.464700000047742],,,,,,,,,,,,,,,,,,,,,,,,,,,,,,,,,,,,,,,,,,,,,,,,,,,,,,,,,,,,,,
,,,,049024,001,2024-02-02_18h38.02.405,fluency,2022.2.5,Win32,121.9512195,,,,,,,,,,,,,,,,,,,,,,,4,10,img/B10_04.jpg,GCNB,Press J if the face is NONBINARY and K if the face is GENDER-CONFORMING,Gender-conforming means that the face appears to be a typical example of its gender. Nonbinary means that the face does not conform to any particular gender norms.,KJ,,,,,,,,,,,,,,,,,,,,,,,,,,,,,,,,6,8.0008,,,,,,,,,,,,,,0,13,13,103,1,,,,,,,,,,,,,,,,,,,,space,1.1346,,,,,,,,,,,,,,,,,,,,,,,,,,,,,,,,,,,,,,,,,,,,,,,,,,,,,,,,,,,,
,,,,049024,001,2024-02-02_18h38.02.405,fluency,2022.2.5,Win32,121.9512195,,,,,,,,,,,,,,,,,,,,,,,10,4,img/B04_10.jpg,GCNB,Press J if the face is NONBINARY and K if the face is GENDER-CONFORMING,Gender-conforming means that the face appears to be a typical example of its gender. Nonbinary means that the face does not conform to any particular gender norms.,KJ,,,,,,,,,,,,,,,,,,,,,,,,,,,,,,,,,,,,,,,,,,,,,,569.0335,0,14,14,43,1,109,0,0,0,0,1,98,,,,,,,,,,,,,,,,,,,,,,,,,,,,,,,,,,,,,,,,,,,,,,,,,,,,,,,,,,,,,,,,,,,,,,,,,,
,,,,049024,001,2024-02-02_18h38.02.405,fluency,2022.2.5,Win32,121.9512195,,,,,,,,,,,,,,,,,,,,,,,,,,,,,,,,,,,,,,,,,,,,,,,,,,,,,,,,,,,,,,,,,,,,,,,,,,,,,,,,,,0,0,0,0,1,,"[""k""]",1,"[""k""]",,,,,,,,[1.5625999999045916],[1.5625999999045916],,,,,,,,,,,,,,,,,,,,,,,,,,,,,,,,,,,,,,,,,,,,,,,,,,,,,,,,,,,,,,
,,,,049024,001,2024-02-02_18h38.02.405,fluency,2022.2.5,Win32,121.9512195,,,,,,,,,,,,,,,,,,,,,,,10,4,img/B04_10.jpg,GCNB,Press J if the face is NONBINARY and K if the face is GENDER-CONFORMING,Gender-conforming means that the face appears to be a typical example of its gender. Nonbinary means that the face does not conform to any particular gender norms.,KJ,,,,,,,,,,,,,,,,,,,,,,,,,,,,,,,,7,3.8086,,,,,,,,,,,,,,0,14,14,43,1,,,,,,,,,,,,,,,,,,,,space,1.3548,,,,,,,,,,,,,,,,,,,,,,,,,,,,,,,,,,,,,,,,,,,,,,,,,,,,,,,,,,,,
,,,,049024,001,2024-02-02_18h38.02.405,fluency,2022.2.5,Win32,121.9512195,,,,,,,,,,,,,,,,,,,,,,,5,6,img/B06_05.jpg,GCNB,Press J if the face is NONBINARY and K if the face is GENDER-CONFORMING,Gender-conforming means that the face appears to be a typical example of its gender. Nonbinary means that the face does not conform to any particular gender norms.,KJ,,,,,,,,,,,,,,,,,,,,,,,,,,,,,,,,,,,,,,,,,,,,,,578.233,0,15,15,60,1,109,0,0,0,0,1,98,,,,,,,,,,,,,,,,,,,,,,,,,,,,,,,,,,,,,,,,,,,,,,,,,,,,,,,,,,,,,,,,,,,,,,,,,,
,,,,049024,001,2024-02-02_18h38.02.405,fluency,2022.2.5,Win32,121.9512195,,,,,,,,,,,,,,,,,,,,,,,,,,,,,,,,,,,,,,,,,,,,,,,,,,,,,,,,,,,,,,,,,,,,,,,,,,,,,,,,,,0,0,0,0,1,,"[""k""]",1,"[""k""]",,,,,,,,[1.5905999999046116],[1.5904999999999063],,,,,,,,,,,,,,,,,,,,,,,,,,,,,,,,,,,,,,,,,,,,,,,,,,,,,,,,,,,,,,
,,,,049024,001,2024-02-02_18h38.02.405,fluency,2022.2.5,Win32,121.9512195,,,,,,,,,,,,,,,,,,,,,,,5,6,img/B06_05.jpg,GCNB,Press J if the face is NONBINARY and K if the face is GENDER-CONFORMING,Gender-conforming means that the face appears to be a typical example of its gender. Nonbinary means that the face does not conform to any particular gender norms.,KJ,,,,,,,,,,,,,,,,,,,,,,,,,,,,,,,,4,3.2396,,,,,,,,,,,,,,0,15,15,60,1,,,,,,,,,,,,,,,,,,,,space,2.2144,,,,,,,,,,,,,,,,,,,,,,,,,,,,,,,,,,,,,,,,,,,,,,,,,,,,,,,,,,,,
,,,,049024,001,2024-02-02_18h38.02.405,fluency,2022.2.5,Win32,121.9512195,,,,,,,,,,,,,,,,,,,,,,,8,1,img/B01_08.jpg,GCNB,Press J if the face is NONBINARY and K if the face is GENDER-CONFORMING,Gender-conforming means that the face appears to be a typical example of its gender. Nonbinary means that the face does not conform to any particular gender norms.,KJ,,,,,,,,,,,,,,,,,,,,,,,,,,,,,,,,,,,,,,,,,,,,,,587.7248,0,16,16,8,1,109,0,0,0,0,1,98,,,,,,,,,,,,,,,,,,,,,,,,,,,,,,,,,,,,,,,,,,,,,,,,,,,,,,,,,,,,,,,,,,,,,,,,,,
,,,,049024,001,2024-02-02_18h38.02.405,fluency,2022.2.5,Win32,121.9512195,,,,,,,,,,,,,,,,,,,,,,,,,,,,,,,,,,,,,,,,,,,,,,,,,,,,,,,,,,,,,,,,,,,,,,,,,,,,,,,,,,0,0,0,0,1,,"[""j""]",1,"[""j""]",,,,,,,,[1.899799999952279],[1.899799999952279],,,,,,,,,,,,,,,,,,,,,,,,,,,,,,,,,,,,,,,,,,,,,,,,,,,,,,,,,,,,,,
,,,,049024,001,2024-02-02_18h38.02.405,fluency,2022.2.5,Win32,121.9512195,,,,,,,,,,,,,,,,,,,,,,,8,1,img/B01_08.jpg,GCNB,Press J if the face is NONBINARY and K if the face is GENDER-CONFORMING,Gender-conforming means that the face appears to be a typical example of its gender. Nonbinary means that the face does not conform to any particular gender norms.,KJ,,,,,,,,,,,,,,,,,,,,,,,,,,,,,,,,5,6.9691,,,,,,,,,,,,,,0,16,16,8,1,,,,,,,,,,,,,,,,,,,,space,1.0247,,,,,,,,,,,,,,,,,,,,,,,,,,,,,,,,,,,,,,,,,,,,,,,,,,,,,,,,,,,,
,,,,049024,001,2024-02-02_18h38.02.405,fluency,2022.2.5,Win32,121.9512195,,,,,,,,,,,,,,,,,,,,,,,8,2,img/B02_08.jpg,GCNB,Press J if the face is NONBINARY and K if the face is GENDER-CONFORMING,Gender-conforming means that the face appears to be a typical example of its gender. Nonbinary means that the face does not conform to any particular gender norms.,KJ,,,,,,,,,,,,,,,,,,,,,,,,,,,,,,,,,,,,,,,,,,,,,,599.7585,0,17,17,19,1,109,0,0,0,0,1,98,,,,,,,,,,,,,,,,,,,,,,,,,,,,,,,,,,,,,,,,,,,,,,,,,,,,,,,,,,,,,,,,,,,,,,,,,,
,,,,049024,001,2024-02-02_18h38.02.405,fluency,2022.2.5,Win32,121.9512195,,,,,,,,,,,,,,,,,,,,,,,,,,,,,,,,,,,,,,,,,,,,,,,,,,,,,,,,,,,,,,,,,,,,,,,,,,,,,,,,,,0,0,0,0,1,,"[""k""]",1,"[""k""]",,,,,,,,[2.308199999928547],[2.308100000023842],,,,,,,,,,,,,,,,,,,,,,,,,,,,,,,,,,,,,,,,,,,,,,,,,,,,,,,,,,,,,,
,,,,049024,001,2024-02-02_18h38.02.405,fluency,2022.2.5,Win32,121.9512195,,,,,,,,,,,,,,,,,,,,,,,8,2,img/B02_08.jpg,GCNB,Press J if the face is NONBINARY and K if the face is GENDER-CONFORMING,Gender-conforming means that the face appears to be a typical example of its gender. Nonbinary means that the face does not conform to any particular gender norms.,KJ,,,,,,,,,,,,,,,,,,,,,,,,,,,,,,,,7,11.7812,,,,,,,,,,,,,,0,17,17,19,1,,,,,,,,,,,,,,,,,,,,space,1.2465,,,,,,,,,,,,,,,,,,,,,,,,,,,,,,,,,,,,,,,,,,,,,,,,,,,,,,,,,,,,
,,,,049024,001,2024-02-02_18h38.02.405,fluency,2022.2.5,Win32,121.9512195,,,,,,,,,,,,,,,,,,,,,,,10,6,img/B06_10.jpg,GCNB,Press J if the face is NONBINARY and K if the face is GENDER-CONFORMING,Gender-conforming means that the face appears to be a typical example of its gender. Nonbinary means that the face does not conform to any particular gender norms.,KJ,,,,,,,,,,,,,,,,,,,,,,,,,,,,,,,,,,,,,,,,,,,,,,616.8241,0,18,18,65,1,109,0,0,0,0,1,98,,,,,,,,,,,,,,,,,,,,,,,,,,,,,,,,,,,,,,,,,,,,,,,,,,,,,,,,,,,,,,,,,,,,,,,,,,
,,,,049024,001,2024-02-02_18h38.02.405,fluency,2022.2.5,Win32,121.9512195,,,,,,,,,,,,,,,,,,,,,,,,,,,,,,,,,,,,,,,,,,,,,,,,,,,,,,,,,,,,,,,,,,,,,,,,,,,,,,,,,,0,0,0,0,1,,"[""j""]",1,"[""j""]",,,,,,,,[2.0979000000954784],[2.0979000000954784],,,,,,,,,,,,,,,,,,,,,,,,,,,,,,,,,,,,,,,,,,,,,,,,,,,,,,,,,,,,,,
,,,,049024,001,2024-02-02_18h38.02.405,fluency,2022.2.5,Win32,121.9512195,,,,,,,,,,,,,,,,,,,,,,,10,6,img/B06_10.jpg,GCNB,Press J if the face is NONBINARY and K if the face is GENDER-CONFORMING,Gender-conforming means that the face appears to be a typical example of its gender. Nonbinary means that the face does not conform to any particular gender norms.,KJ,,,,,,,,,,,,,,,,,,,,,,,,,,,,,,,,5,7.227,,,,,,,,,,,,,,0,18,18,65,1,,,,,,,,,,,,,,,,,,,,space,0.651,,,,,,,,,,,,,,,,,,,,,,,,,,,,,,,,,,,,,,,,,,,,,,,,,,,,,,,,,,,,
,,,,049024,001,2024-02-02_18h38.02.405,fluency,2022.2.5,Win32,121.9512195,,,,,,,,,,,,,,,,,,,,,,,10,10,img/B10_10.jpg,GCNB,Press J if the face is NONBINARY and K if the face is GENDER-CONFORMING,Gender-conforming means that the face appears to be a typical example of its gender. Nonbinary means that the face does not conform to any particular gender norms.,KJ,,,,,,,,,,,,,,,,,,,,,,,,,,,,,,,,,,,,,,,,,,,,,,629.7338,0,19,19,109,1,109,0,0,0,0,1,98,,,,,,,,,,,,,,,,,,,,,,,,,,,,,,,,,,,,,,,,,,,,,,,,,,,,,,,,,,,,,,,,,,,,,,,,,,
,,,,049024,001,2024-02-02_18h38.02.405,fluency,2022.2.5,Win32,121.9512195,,,,,,,,,,,,,,,,,,,,,,,,,,,,,,,,,,,,,,,,,,,,,,,,,,,,,,,,,,,,,,,,,,,,,,,,,,,,,,,,,,0,0,0,0,1,,"[""k""]",1,"[""k""]",,,,,,,,[1.4505000000000337],[1.4503999999761845],,,,,,,,,,,,,,,,,,,,,,,,,,,,,,,,,,,,,,,,,,,,,,,,,,,,,,,,,,,,,,
,,,,049024,001,2024-02-02_18h38.02.405,fluency,2022.2.5,Win32,121.9512195,,,,,,,,,,,,,,,,,,,,,,,10,10,img/B10_10.jpg,GCNB,Press J if the face is NONBINARY and K if the face is GENDER-CONFORMING,Gender-conforming means that the face appears to be a typical example of its gender. Nonbinary means that the face does not conform to any particular gender norms.,KJ,,,,,,,,,,,,,,,,,,,,,,,,,,,,,,,,4,1.9378,,,,,,,,,,,,,,0,19,19,109,1,,,,,,,,,,,,,,,,,,,,space,0.9052,,,,,,,,,,,,,,,,,,,,,,,,,,,,,,,,,,,,,,,,,,,,,,,,,,,,,,,,,,,,
,,,,049024,001,2024-02-02_18h38.02.405,fluency,2022.2.5,Win32,121.9512195,,,,,,,,,,,,,,,,,,,,,,,1,3,img/B03_01.jpg,GCNB,Press J if the face is NONBINARY and K if the face is GENDER-CONFORMING,Gender-conforming means that the face appears to be a typical example of its gender. Nonbinary means that the face does not conform to any particular gender norms.,KJ,,,,,,,,,,,,,,,,,,,,,,,,,,,,,,,,,,,,,,,,,,,,,,637.6176,0,20,20,23,1,109,0,0,0,0,1,98,,,,,,,,,,,,,,,,,,,,,,,,,,,,,,,,,,,,,,,,,,,,,,,,,,,,,,,,,,,,,,,,,,,,,,,,,,
,,,,049024,001,2024-02-02_18h38.02.405,fluency,2022.2.5,Win32,121.9512195,,,,,,,,,,,,,,,,,,,,,,,,,,,,,,,,,,,,,,,,,,,,,,,,,,,,,,,,,,,,,,,,,,,,,,,,,,,,,,,,,,0,0,0,0,1,,"[""k""]",1,"[""k""]",,,,,,,,[0.9428999999762482],[0.9430000000000973],,,,,,,,,,,,,,,,,,,,,,,,,,,,,,,,,,,,,,,,,,,,,,,,,,,,,,,,,,,,,,
,,,,049024,001,2024-02-02_18h38.02.405,fluency,2022.2.5,Win32,121.9512195,,,,,,,,,,,,,,,,,,,,,,,1,3,img/B03_01.jpg,GCNB,Press J if the face is NONBINARY and K if the face is GENDER-CONFORMING,Gender-conforming means that the face appears to be a typical example of its gender. Nonbinary means that the face does not conform to any particular gender norms.,KJ,,,,,,,,,,,,,,,,,,,,,,,,,,,,,,,,7,1.6635,,,,,,,,,,,,,,0,20,20,23,1,,,,,,,,,,,,,,,,,,,,space,0.9665,,,,,,,,,,,,,,,,,,,,,,,,,,,,,,,,,,,,,,,,,,,,,,,,,,,,,,,,,,,,
,,,,049024,001,2024-02-02_18h38.02.405,fluency,2022.2.5,Win32,121.9512195,,,,,,,,,,,,,,,,,,,,,,,4,1,img/B01_04.jpg,GCNB,Press J if the face is NONBINARY and K if the face is GENDER-CONFORMING,Gender-conforming means that the face appears to be a typical example of its gender. Nonbinary means that the face does not conform to any particular gender norms.,KJ,,,,,,,,,,,,,,,,,,,,,,,,,,,,,,,,,,,,,,,,,,,,,,644.2922,0,21,21,4,1,109,0,0,0,0,1,98,,,,,,,,,,,,,,,,,,,,,,,,,,,,,,,,,,,,,,,,,,,,,,,,,,,,,,,,,,,,,,,,,,,,,,,,,,
,,,,049024,001,2024-02-02_18h38.02.405,fluency,2022.2.5,Win32,121.9512195,,,,,,,,,,,,,,,,,,,,,,,,,,,,,,,,,,,,,,,,,,,,,,,,,,,,,,,,,,,,,,,,,,,,,,,,,,,,,,,,,,0,0,0,0,1,,"[""j""]",1,"[""j""]",,,,,,,,[1.4293999999761127],[1.4294999999999618],,,,,,,,,,,,,,,,,,,,,,,,,,,,,,,,,,,,,,,,,,,,,,,,,,,,,,,,,,,,,,
,,,,049024,001,2024-02-02_18h38.02.405,fluency,2022.2.5,Win32,121.9512195,,,,,,,,,,,,,,,,,,,,,,,4,1,img/B01_04.jpg,GCNB,Press J if the face is NONBINARY and K if the face is GENDER-CONFORMING,Gender-conforming means that the face appears to be a typical example of its gender. Nonbinary means that the face does not conform to any particular gender norms.,KJ,,,,,,,,,,,,,,,,,,,,,,,,,,,,,,,,4,1.0812,,,,,,,,,,,,,,0,21,21,4,1,,,,,,,,,,,,,,,,,,,,space,0.8639,,,,,,,,,,,,,,,,,,,,,,,,,,,,,,,,,,,,,,,,,,,,,,,,,,,,,,,,,,,,
,,,,049024,001,2024-02-02_18h38.02.405,fluency,2022.2.5,Win32,121.9512195,,,,,,,,,,,,,,,,,,,,,,,0,6,img/B06_00.jpg,GCNB,Press J if the face is NONBINARY and K if the face is GENDER-CONFORMING,Gender-conforming means that the face appears to be a typical example of its gender. Nonbinary means that the face does not conform to any particular gender norms.,KJ,,,,,,,,,,,,,,,,,,,,,,,,,,,,,,,,,,,,,,,,,,,,,,650.2674,0,22,22,55,1,109,0,0,0,0,1,98,,,,,,,,,,,,,,,,,,,,,,,,,,,,,,,,,,,,,,,,,,,,,,,,,,,,,,,,,,,,,,,,,,,,,,,,,,
,,,,049024,001,2024-02-02_18h38.02.405,fluency,2022.2.5,Win32,121.9512195,,,,,,,,,,,,,,,,,,,,,,,,,,,,,,,,,,,,,,,,,,,,,,,,,,,,,,,,,,,,,,,,,,,,,,,,,,,,,,,,,,0,0,0,0,1,,"[""k""]",1,"[""k""]",,,,,,,,[1.2988000000715374],[1.2989000000953865],,,,,,,,,,,,,,,,,,,,,,,,,,,,,,,,,,,,,,,,,,,,,,,,,,,,,,,,,,,,,,
,,,,049024,001,2024-02-02_18h38.02.405,fluency,2022.2.5,Win32,121.9512195,,,,,,,,,,,,,,,,,,,,,,,0,6,img/B06_00.jpg,GCNB,Press J if the face is NONBINARY and K if the face is GENDER-CONFORMING,Gender-conforming means that the face appears to be a typical example of its gender. Nonbinary means that the face does not conform to any particular gender norms.,KJ,,,,,,,,,,,,,,,,,,,,,,,,,,,,,,,,6,3.8951,,,,,,,,,,,,,,0,22,22,55,1,,,,,,,,,,,,,,,,,,,,space,0.7379,,,,,,,,,,,,,,,,,,,,,,,,,,,,,,,,,,,,,,,,,,,,,,,,,,,,,,,,,,,,
,,,,049024,001,2024-02-02_18h38.02.405,fluency,2022.2.5,Win32,121.9512195,,,,,,,,,,,,,,,,,,,,,,,0,7,img/B07_00.jpg,GCNB,Press J if the face is NONBINARY and K if the face is GENDER-CONFORMING,Gender-conforming means that the face appears to be a typical example of its gender. Nonbinary means that the face does not conform to any particular gender norms.,KJ,,,,,,,,,,,,,,,,,,,,,,,,,,,,,,,,,,,,,,,,,,,,,,658.9425,0,23,23,66,1,109,0,0,0,0,1,98,,,,,,,,,,,,,,,,,,,,,,,,,,,,,,,,,,,,,,,,,,,,,,,,,,,,,,,,,,,,,,,,,,,,,,,,,,
,,,,049024,001,2024-02-02_18h38.02.405,fluency,2022.2.5,Win32,121.9512195,,,,,,,,,,,,,,,,,,,,,,,,,,,,,,,,,,,,,,,,,,,,,,,,,,,,,,,,,,,,,,,,,,,,,,,,,,,,,,,,,,0,0,0,0,1,,"[""k""]",1,"[""k""]",,,,,,,,[1.3898999999761372],[1.3898999999761372],,,,,,,,,,,,,,,,,,,,,,,,,,,,,,,,,,,,,,,,,,,,,,,,,,,,,,,,,,,,,,
,,,,049024,001,2024-02-02_18h38.02.405,fluency,2022.2.5,Win32,121.9512195,,,,,,,,,,,,,,,,,,,,,,,0,7,img/B07_00.jpg,GCNB,Press J if the face is NONBINARY and K if the face is GENDER-CONFORMING,Gender-conforming means that the face appears to be a typical example of its gender. Nonbinary means that the face does not conform to any particular gender norms.,KJ,,,,,,,,,,,,,,,,,,,,,,,,,,,,,,,,6,1.4252,,,,,,,,,,,,,,0,23,23,66,1,,,,,,,,,,,,,,,,,,,,space,1.5537,,,,,,,,,,,,,,,,,,,,,,,,,,,,,,,,,,,,,,,,,,,,,,,,,,,,,,,,,,,,
,,,,049024,001,2024-02-02_18h38.02.405,fluency,2022.2.5,Win32,121.9512195,,,,,,,,,,,,,,,,,,,,,,,9,9,img/B09_09.jpg,GCNB,Press J if the face is NONBINARY and K if the face is GENDER-CONFORMING,Gender-conforming means that the face appears to be a typical example of its gender. Nonbinary means that the face does not conform to any particular gender norms.,KJ,,,,,,,,,,,,,,,,,,,,,,,,,,,,,,,,,,,,,,,,,,,,,,666.9593,0,24,24,97,1,109,0,0,0,0,1,98,,,,,,,,,,,,,,,,,,,,,,,,,,,,,,,,,,,,,,,,,,,,,,,,,,,,,,,,,,,,,,,,,,,,,,,,,,
,,,,049024,001,2024-02-02_18h38.02.405,fluency,2022.2.5,Win32,121.9512195,,,,,,,,,,,,,,,,,,,,,,,,,,,,,,,,,,,,,,,,,,,,,,,,,,,,,,,,,,,,,,,,,,,,,,,,,,,,,,,,,,0,0,0,0,1,,"[""k""]",1,"[""k""]",,,,,,,,[1.7463000000715283],[1.7463000000715283],,,,,,,,,,,,,,,,,,,,,,,,,,,,,,,,,,,,,,,,,,,,,,,,,,,,,,,,,,,,,,
,,,,049024,001,2024-02-02_18h38.02.405,fluency,2022.2.5,Win32,121.9512195,,,,,,,,,,,,,,,,,,,,,,,9,9,img/B09_09.jpg,GCNB,Press J if the face is NONBINARY and K if the face is GENDER-CONFORMING,Gender-conforming means that the face appears to be a typical example of its gender. Nonbinary means that the face does not conform to any particular gender norms.,KJ,,,,,,,,,,,,,,,,,,,,,,,,,,,,,,,,4,3.3016,,,,,,,,,,,,,,0,24,24,97,1,,,,,,,,,,,,,,,,,,,,space,1.2406,,,,,,,,,,,,,,,,,,,,,,,,,,,,,,,,,,,,,,,,,,,,,,,,,,,,,,,,,,,,
,,,,049024,001,2024-02-02_18h38.02.405,fluency,2022.2.5,Win32,121.9512195,,,,,,,,,,,,,,,,,,,,,,,0,5,img/B05_00.jpg,GCNB,Press J if the face is NONBINARY and K if the face is GENDER-CONFORMING,Gender-conforming means that the face appears to be a typical example of its gender. Nonbinary means that the face does not conform to any particular gender norms.,KJ,,,,,,,,,,,,,,,,,,,,,,,,,,,,,,,,,,,,,,,,,,,,,,675.5508,0,25,25,44,1,109,0,0,0,0,1,98,,,,,,,,,,,,,,,,,,,,,,,,,,,,,,,,,,,,,,,,,,,,,,,,,,,,,,,,,,,,,,,,,,,,,,,,,,
,,,,049024,001,2024-02-02_18h38.02.405,fluency,2022.2.5,Win32,121.9512195,,,,,,,,,,,,,,,,,,,,,,,,,,,,,,,,,,,,,,,,,,,,,,,,,,,,,,,,,,,,,,,,,,,,,,,,,,,,,,,,,,0,0,0,0,1,,"[""k""]",1,"[""k""]",,,,,,,,[1.33660000002385],[1.3367000000476992],,,,,,,,,,,,,,,,,,,,,,,,,,,,,,,,,,,,,,,,,,,,,,,,,,,,,,,,,,,,,,
,,,,049024,001,2024-02-02_18h38.02.405,fluency,2022.2.5,Win32,121.9512195,,,,,,,,,,,,,,,,,,,,,,,0,5,img/B05_00.jpg,GCNB,Press J if the face is NONBINARY and K if the face is GENDER-CONFORMING,Gender-conforming means that the face appears to be a typical example of its gender. Nonbinary means that the face does not conform to any particular gender norms.,KJ,,,,,,,,,,,,,,,,,,,,,,,,,,,,,,,,5,0.4135,,,,,,,,,,,,,,0,25,25,44,1,,,,,,,,,,,,,,,,,,,,space,1.5349,,,,,,,,,,,,,,,,,,,,,,,,,,,,,,,,,,,,,,,,,,,,,,,,,,,,,,,,,,,,
,,,,049024,001,2024-02-02_18h38.02.405,fluency,2022.2.5,Win32,121.9512195,,,,,,,,,,,,,,,,,,,,,,,3,9,img/B09_03.jpg,GCNB,Press J if the face is NONBINARY and K if the face is GENDER-CONFORMING,Gender-conforming means that the face appears to be a typical example of its gender. Nonbinary means that the face does not conform to any particular gender norms.,KJ,,,,,,,,,,,,,,,,,,,,,,,,,,,,,,,,,,,,,,,,,,,,,,682.5261,0,26,26,91,1,109,0,0,0,0,1,98,,,,,,,,,,,,,,,,,,,,,,,,,,,,,,,,,,,,,,,,,,,,,,,,,,,,,,,,,,,,,,,,,,,,,,,,,,
,,,,049024,001,2024-02-02_18h38.02.405,fluency,2022.2.5,Win32,121.9512195,,,,,,,,,,,,,,,,,,,,,,,,,,,,,,,,,,,,,,,,,,,,,,,,,,,,,,,,,,,,,,,,,,,,,,,,,,,,,,,,,,0,0,0,0,1,,"[""j""]",1,"[""j""]",,,,,,,,[2.3847999999522926],[2.3847000000475873],,,,,,,,,,,,,,,,,,,,,,,,,,,,,,,,,,,,,,,,,,,,,,,,,,,,,,,,,,,,,,
,,,,049024,001,2024-02-02_18h38.02.405,fluency,2022.2.5,Win32,121.9512195,,,,,,,,,,,,,,,,,,,,,,,3,9,img/B09_03.jpg,GCNB,Press J if the face is NONBINARY and K if the face is GENDER-CONFORMING,Gender-conforming means that the face appears to be a typical example of its gender. Nonbinary means that the face does not conform to any particular gender norms.,KJ,,,,,,,,,,,,,,,,,,,,,,,,,,,,,,,,4,1.5243,,,,,,,,,,,,,,0,26,26,91,1,,,,,,,,,,,,,,,,,,,,space,0.9234,,,,,,,,,,,,,,,,,,,,,,,,,,,,,,,,,,,,,,,,,,,,,,,,,,,,,,,,,,,,
,,,,049024,001,2024-02-02_18h38.02.405,fluency,2022.2.5,Win32,121.9512195,,,,,,,,,,,,,,,,,,,,,,,3,6,img/B06_03.jpg,GCNB,Press J if the face is NONBINARY and K if the face is GENDER-CONFORMING,Gender-conforming means that the face appears to be a typical example of its gender. Nonbinary means that the face does not conform to any particular gender norms.,KJ,,,,,,,,,,,,,,,,,,,,,,,,,,,,,,,,,,,,,,,,,,,,,,689.01,0,27,27,58,1,109,0,0,0,0,1,98,,,,,,,,,,,,,,,,,,,,,,,,,,,,,,,,,,,,,,,,,,,,,,,,,,,,,,,,,,,,,,,,,,,,,,,,,,
,,,,049024,001,2024-02-02_18h38.02.405,fluency,2022.2.5,Win32,121.9512195,,,,,,,,,,,,,,,,,,,,,,,,,,,,,,,,,,,,,,,,,,,,,,,,,,,,,,,,,,,,,,,,,,,,,,,,,,,,,,,,,,0,0,0,0,1,,"[""k""]",1,"[""k""]",,,,,,,,[2.0298999999761236],[2.0298999999761236],,,,,,,,,,,,,,,,,,,,,,,,,,,,,,,,,,,,,,,,,,,,,,,,,,,,,,,,,,,,,,
,,,,049024,001,2024-02-02_18h38.02.405,fluency,2022.2.5,Win32,121.9512195,,,,,,,,,,,,,,,,,,,,,,,3,6,img/B06_03.jpg,GCNB,Press J if the face is NONBINARY and K if the face is GENDER-CONFORMING,Gender-conforming means that the face appears to be a typical example of its gender. Nonbinary means that the face does not conform to any particular gender norms.,KJ,,,,,,,,,,,,,,,,,,,,,,,,,,,,,,,,5,1.7229,,,,,,,,,,,,,,0,27,27,58,1,,,,,,,,,,,,,,,,,,,,space,1.2782,,,,,,,,,,,,,,,,,,,,,,,,,,,,,,,,,,,,,,,,,,,,,,,,,,,,,,,,,,,,
,,,,049024,001,2024-02-02_18h38.02.405,fluency,2022.2.5,Win32,121.9512195,,,,,,,,,,,,,,,,,,,,,,,1,6,img/B06_01.jpg,GCNB,Press J if the face is NONBINARY and K if the face is GENDER-CONFORMING,Gender-conforming means that the face appears to be a typical example of its gender. Nonbinary means that the face does not conform to any particular gender norms.,KJ,,,,,,,,,,,,,,,,,,,,,,,,,,,,,,,,,,,,,,,,,,,,,,697.0512,0,28,28,56,1,109,0,0,0,0,1,98,,,,,,,,,,,,,,,,,,,,,,,,,,,,,,,,,,,,,,,,,,,,,,,,,,,,,,,,,,,,,,,,,,,,,,,,,,
,,,,049024,001,2024-02-02_18h38.02.405,fluency,2022.2.5,Win32,121.9512195,,,,,,,,,,,,,,,,,,,,,,,,,,,,,,,,,,,,,,,,,,,,,,,,,,,,,,,,,,,,,,,,,,,,,,,,,,,,,,,,,,0,0,0,0,1,,"[""k""]",1,"[""k""]",,,,,,,,[1.367100000023811],[1.367100000023811],,,,,,,,,,,,,,,,,,,,,,,,,,,,,,,,,,,,,,,,,,,,,,,,,,,,,,,,,,,,,,
,,,,049024,001,2024-02-02_18h38.02.405,fluency,2022.2.5,Win32,121.9512195,,,,,,,,,,,,,,,,,,,,,,,1,6,img/B06_01.jpg,GCNB,Press J if the face is NONBINARY and K if the face is GENDER-CONFORMING,Gender-conforming means that the face appears to be a typical example of its gender. Nonbinary means that the face does not conform to any particular gender norms.,KJ,,,,,,,,,,,,,,,,,,,,,,,,,,,,,,,,5,0.9194,,,,,,,,,,,,,,0,28,28,56,1,,,,,,,,,,,,,,,,,,,,space,3.3707,,,,,,,,,,,,,,,,,,,,,,,,,,,,,,,,,,,,,,,,,,,,,,,,,,,,,,,,,,,,
,,,,049024,001,2024-02-02_18h38.02.405,fluency,2022.2.5,Win32,121.9512195,,,,,,,,,,,,,,,,,,,,,,,1,10,img/B10_01.jpg,GCNB,Press J if the face is NONBINARY and K if the face is GENDER-CONFORMING,Gender-conforming means that the face appears to be a typical example of its gender. Nonbinary means that the face does not conform to any particular gender norms.,KJ,,,,,,,,,,,,,,,,,,,,,,,,,,,,,,,,,,,,,,,,,,,,,,705.3848,0,29,29,100,1,109,0,0,0,0,1,98,,,,,,,,,,,,,,,,,,,,,,,,,,,,,,,,,,,,,,,,,,,,,,,,,,,,,,,,,,,,,,,,,,,,,,,,,,
,,,,049024,001,2024-02-02_18h38.02.405,fluency,2022.2.5,Win32,121.9512195,,,,,,,,,,,,,,,,,,,,,,,,,,,,,,,,,,,,,,,,,,,,,,,,,,,,,,,,,,,,,,,,,,,,,,,,,,,,,,,,,,0,0,0,0,1,,"[""k""]",1,"[""k""]",,,,,,,,[1.08010000002389],[1.08010000002389],,,,,,,,,,,,,,,,,,,,,,,,,,,,,,,,,,,,,,,,,,,,,,,,,,,,,,,,,,,,,,
,,,,049024,001,2024-02-02_18h38.02.405,fluency,2022.2.5,Win32,121.9512195,,,,,,,,,,,,,,,,,,,,,,,1,10,img/B10_01.jpg,GCNB,Press J if the face is NONBINARY and K if the face is GENDER-CONFORMING,Gender-conforming means that the face appears to be a typical example of its gender. Nonbinary means that the face does not conform to any particular gender norms.,KJ,,,,,,,,,,,,,,,,,,,,,,,,,,,,,,,,7,0.4548,,,,,,,,,,,,,,0,29,29,100,1,,,,,,,,,,,,,,,,,,,,space,1.2764,,,,,,,,,,,,,,,,,,,,,,,,,,,,,,,,,,,,,,,,,,,,,,,,,,,,,,,,,,,,
,,,,049024,001,2024-02-02_18h38.02.405,fluency,2022.2.5,Win32,121.9512195,,,,,,,,,,,,,,,,,,,,,,,5,10,img/B10_05.jpg,GCNB,Press J if the face is NONBINARY and K if the face is GENDER-CONFORMING,Gender-conforming means that the face appears to be a typical example of its gender. Nonbinary means that the face does not conform to any particular gender norms.,KJ,,,,,,,,,,,,,,,,,,,,,,,,,,,,,,,,,,,,,,,,,,,,,,712.1598,0,30,30,104,1,109,0,0,0,0,1,98,,,,,,,,,,,,,,,,,,,,,,,,,,,,,,,,,,,,,,,,,,,,,,,,,,,,,,,,,,,,,,,,,,,,,,,,,,
,,,,049024,001,2024-02-02_18h38.02.405,fluency,2022.2.5,Win32,121.9512195,,,,,,,,,,,,,,,,,,,,,,,,,,,,,,,,,,,,,,,,,,,,,,,,,,,,,,,,,,,,,,,,,,,,,,,,,,,,,,,,,,0,0,0,0,1,,"[""k""]",1,"[""k""]",,,,,,,,[1.8372000000476874],[1.8372000000476874],,,,,,,,,,,,,,,,,,,,,,,,,,,,,,,,,,,,,,,,,,,,,,,,,,,,,,,,,,,,,,
,,,,049024,001,2024-02-02_18h38.02.405,fluency,2022.2.5,Win32,121.9512195,,,,,,,,,,,,,,,,,,,,,,,5,10,img/B10_05.jpg,GCNB,Press J if the face is NONBINARY and K if the face is GENDER-CONFORMING,Gender-conforming means that the face appears to be a typical example of its gender. Nonbinary means that the face does not conform to any particular gender norms.,KJ,,,,,,,,,,,,,,,,,,,,,,,,,,,,,,,,5,2.417,,,,,,,,,,,,,,0,30,30,104,1,,,,,,,,,,,,,,,,,,,,space,0.7681,,,,,,,,,,,,,,,,,,,,,,,,,,,,,,,,,,,,,,,,,,,,,,,,,,,,,,,,,,,,
,,,,049024,001,2024-02-02_18h38.02.405,fluency,2022.2.5,Win32,121.9512195,,,,,,,,,,,,,,,,,,,,,,,4,9,img/B09_04.jpg,GCNB,Press J if the face is NONBINARY and K if the face is GENDER-CONFORMING,Gender-conforming means that the face appears to be a typical example of its gender. Nonbinary means that the face does not conform to any particular gender norms.,KJ,,,,,,,,,,,,,,,,,,,,,,,,,,,,,,,,,,,,,,,,,,,,,,719.385,0,31,31,92,1,109,0,0,0,0,1,98,,,,,,,,,,,,,,,,,,,,,,,,,,,,,,,,,,,,,,,,,,,,,,,,,,,,,,,,,,,,,,,,,,,,,,,,,,
,,,,049024,001,2024-02-02_18h38.02.405,fluency,2022.2.5,Win32,121.9512195,,,,,,,,,,,,,,,,,,,,,,,,,,,,,,,,,,,,,,,,,,,,,,,,,,,,,,,,,,,,,,,,,,,,,,,,,,,,,,,,,,0,0,0,0,1,,"[""j""]",1,"[""j""]",,,,,,,,[2.072200000047701],[2.07230000007155],,,,,,,,,,,,,,,,,,,,,,,,,,,,,,,,,,,,,,,,,,,,,,,,,,,,,,,,,,,,,,
,,,,049024,001,2024-02-02_18h38.02.405,fluency,2022.2.5,Win32,121.9512195,,,,,,,,,,,,,,,,,,,,,,,4,9,img/B09_04.jpg,GCNB,Press J if the face is NONBINARY and K if the face is GENDER-CONFORMING,Gender-conforming means that the face appears to be a typical example of its gender. Nonbinary means that the face does not conform to any particular gender norms.,KJ,,,,,,,,,,,,,,,,,,,,,,,,,,,,,,,,5,5.0519,,,,,,,,,,,,,,0,31,31,92,1,,,,,,,,,,,,,,,,,,,,space,0.5593,,,,,,,,,,,,,,,,,,,,,,,,,,,,,,,,,,,,,,,,,,,,,,,,,,,,,,,,,,,,
,,,,049024,001,2024-02-02_18h38.02.405,fluency,2022.2.5,Win32,121.9512195,,,,,,,,,,,,,,,,,,,,,,,5,4,img/B04_05.jpg,GCNB,Press J if the face is NONBINARY and K if the face is GENDER-CONFORMING,Gender-conforming means that the face appears to be a typical example of its gender. Nonbinary means that the face does not conform to any particular gender norms.,KJ,,,,,,,,,,,,,,,,,,,,,,,,,,,,,,,,,,,,,,,,,,,,,,730.0433,0,32,32,38,1,109,0,0,0,0,1,98,,,,,,,,,,,,,,,,,,,,,,,,,,,,,,,,,,,,,,,,,,,,,,,,,,,,,,,,,,,,,,,,,,,,,,,,,,
,,,,049024,001,2024-02-02_18h38.02.405,fluency,2022.2.5,Win32,121.9512195,,,,,,,,,,,,,,,,,,,,,,,,,,,,,,,,,,,,,,,,,,,,,,,,,,,,,,,,,,,,,,,,,,,,,,,,,,,,,,,,,,0,0,0,0,1,,"[""j""]",1,"[""j""]",,,,,,,,[2.60060000002386],[2.60060000002386],,,,,,,,,,,,,,,,,,,,,,,,,,,,,,,,,,,,,,,,,,,,,,,,,,,,,,,,,,,,,,
,,,,049024,001,2024-02-02_18h38.02.405,fluency,2022.2.5,Win32,121.9512195,,,,,,,,,,,,,,,,,,,,,,,5,4,img/B04_05.jpg,GCNB,Press J if the face is NONBINARY and K if the face is GENDER-CONFORMING,Gender-conforming means that the face appears to be a typical example of its gender. Nonbinary means that the face does not conform to any particular gender norms.,KJ,,,,,,,,,,,,,,,,,,,,,,,,,,,,,,,,6,3.2255,,,,,,,,,,,,,,0,32,32,38,1,,,,,,,,,,,,,,,,,,,,space,1.1151,,,,,,,,,,,,,,,,,,,,,,,,,,,,,,,,,,,,,,,,,,,,,,,,,,,,,,,,,,,,
,,,,049024,001,2024-02-02_18h38.02.405,fluency,2022.2.5,Win32,121.9512195,,,,,,,,,,,,,,,,,,,,,,,0,3,img/B03_00.jpg,GCNB,Press J if the face is NONBINARY and K if the face is GENDER-CONFORMING,Gender-conforming means that the face appears to be a typical example of its gender. Nonbinary means that the face does not conform to any particular gender norms.,KJ,,,,,,,,,,,,,,,,,,,,,,,,,,,,,,,,,,,,,,,,,,,,,,738.4186,0,33,33,22,1,109,0,0,0,0,1,98,,,,,,,,,,,,,,,,,,,,,,,,,,,,,,,,,,,,,,,,,,,,,,,,,,,,,,,,,,,,,,,,,,,,,,,,,,
,,,,049024,001,2024-02-02_18h38.02.405,fluency,2022.2.5,Win32,121.9512195,,,,,,,,,,,,,,,,,,,,,,,,,,,,,,,,,,,,,,,,,,,,,,,,,,,,,,,,,,,,,,,,,,,,,,,,,,,,,,,,,,0,0,0,0,1,,"[""k""]",1,"[""k""]",,,,,,,,[1.0651000000239037],[1.0652000000477528],,,,,,,,,,,,,,,,,,,,,,,,,,,,,,,,,,,,,,,,,,,,,,,,,,,,,,,,,,,,,,
,,,,049024,001,2024-02-02_18h38.02.405,fluency,2022.2.5,Win32,121.9512195,,,,,,,,,,,,,,,,,,,,,,,0,3,img/B03_00.jpg,GCNB,Press J if the face is NONBINARY and K if the face is GENDER-CONFORMING,Gender-conforming means that the face appears to be a typical example of its gender. Nonbinary means that the face does not conform to any particular gender norms.,KJ,,,,,,,,,,,,,,,,,,,,,,,,,,,,,,,,7,0.3967,,,,,,,,,,,,,,0,33,33,22,1,,,,,,,,,,,,,,,,,,,,space,1.592,,,,,,,,,,,,,,,,,,,,,,,,,,,,,,,,,,,,,,,,,,,,,,,,,,,,,,,,,,,,
,,,,049024,001,2024-02-02_18h38.02.405,fluency,2022.2.5,Win32,121.9512195,,,,,,,,,,,,,,,,,,,,,,,1,1,img/B01_01.jpg,GCNB,Press J if the face is NONBINARY and K if the face is GENDER-CONFORMING,Gender-conforming means that the face appears to be a typical example of its gender. Nonbinary means that the face does not conform to any particular gender norms.,KJ,,,,,,,,,,,,,,,,,,,,,,,,,,,,,,,,,,,,,,,,,,,,,,744.4436,0,34,34,1,1,109,0,0,0,0,1,98,,,,,,,,,,,,,,,,,,,,,,,,,,,,,,,,,,,,,,,,,,,,,,,,,,,,,,,,,,,,,,,,,,,,,,,,,,
,,,,049024,001,2024-02-02_18h38.02.405,fluency,2022.2.5,Win32,121.9512195,,,,,,,,,,,,,,,,,,,,,,,,,,,,,,,,,,,,,,,,,,,,,,,,,,,,,,,,,,,,,,,,,,,,,,,,,,,,,,,,,,0,0,0,0,1,,"[""k""]",1,"[""k""]",,,,,,,,[2.798899999976129],[2.798899999976129],,,,,,,,,,,,,,,,,,,,,,,,,,,,,,,,,,,,,,,,,,,,,,,,,,,,,,,,,,,,,,
,,,,049024,001,2024-02-02_18h38.02.405,fluency,2022.2.5,Win32,121.9512195,,,,,,,,,,,,,,,,,,,,,,,1,1,img/B01_01.jpg,GCNB,Press J if the face is NONBINARY and K if the face is GENDER-CONFORMING,Gender-conforming means that the face appears to be a typical example of its gender. Nonbinary means that the face does not conform to any particular gender norms.,KJ,,,,,,,,,,,,,,,,,,,,,,,,,,,,,,,,4,1.7226,,,,,,,,,,,,,,0,34,34,1,1,,,,,,,,,,,,,,,,,,,,space,0.9056,,,,,,,,,,,,,,,,,,,,,,,,,,,,,,,,,,,,,,,,,,,,,,,,,,,,,,,,,,,,
,,,,049024,001,2024-02-02_18h38.02.405,fluency,2022.2.5,Win32,121.9512195,,,,,,,,,,,,,,,,,,,,,,,10,1,img/B01_10.jpg,GCNB,Press J if the face is NONBINARY and K if the face is GENDER-CONFORMING,Gender-conforming means that the face appears to be a typical example of its gender. Nonbinary means that the face does not conform to any particular gender norms.,KJ,,,,,,,,,,,,,,,,,,,,,,,,,,,,,,,,,,,,,,,,,,,,,,751.1105,0,35,35,10,1,109,0,0,0,0,1,98,,,,,,,,,,,,,,,,,,,,,,,,,,,,,,,,,,,,,,,,,,,,,,,,,,,,,,,,,,,,,,,,,,,,,,,,,,
,,,,049024,001,2024-02-02_18h38.02.405,fluency,2022.2.5,Win32,121.9512195,,,,,,,,,,,,,,,,,,,,,,,,,,,,,,,,,,,,,,,,,,,,,,,,,,,,,,,,,,,,,,,,,,,,,,,,,,,,,,,,,,0,0,0,0,1,,"[""k""]",1,"[""k""]",,,,,,,,[1.9057999999523645],[1.9056999999285154],,,,,,,,,,,,,,,,,,,,,,,,,,,,,,,,,,,,,,,,,,,,,,,,,,,,,,,,,,,,,,
,,,,049024,001,2024-02-02_18h38.02.405,fluency,2022.2.5,Win32,121.9512195,,,,,,,,,,,,,,,,,,,,,,,10,1,img/B01_10.jpg,GCNB,Press J if the face is NONBINARY and K if the face is GENDER-CONFORMING,Gender-conforming means that the face appears to be a typical example of its gender. Nonbinary means that the face does not conform to any particular gender norms.,KJ,,,,,,,,,,,,,,,,,,,,,,,,,,,,,,,,5,3.0976,,,,,,,,,,,,,,0,35,35,10,1,,,,,,,,,,,,,,,,,,,,space,0.5323,,,,,,,,,,,,,,,,,,,,,,,,,,,,,,,,,,,,,,,,,,,,,,,,,,,,,,,,,,,,
,,,,049024,001,2024-02-02_18h38.02.405,fluency,2022.2.5,Win32,121.9512195,,,,,,,,,,,,,,,,,,,,,,,4,2,img/B02_04.jpg,GCNB,Press J if the face is NONBINARY and K if the face is GENDER-CONFORMING,Gender-conforming means that the face appears to be a typical example of its gender. Nonbinary means that the face does not conform to any particular gender norms.,KJ,,,,,,,,,,,,,,,,,,,,,,,,,,,,,,,,,,,,,,,,,,,,,,759.7855,0,36,36,15,1,109,0,0,0,0,1,98,,,,,,,,,,,,,,,,,,,,,,,,,,,,,,,,,,,,,,,,,,,,,,,,,,,,,,,,,,,,,,,,,,,,,,,,,,
,,,,049024,001,2024-02-02_18h38.02.405,fluency,2022.2.5,Win32,121.9512195,,,,,,,,,,,,,,,,,,,,,,,,,,,,,,,,,,,,,,,,,,,,,,,,,,,,,,,,,,,,,,,,,,,,,,,,,,,,,,,,,,0,0,0,0,1,,"[""k""]",1,"[""k""]",,,,,,,,[1.7433000000715992],[1.74320000004775],,,,,,,,,,,,,,,,,,,,,,,,,,,,,,,,,,,,,,,,,,,,,,,,,,,,,,,,,,,,,,
,,,,049024,001,2024-02-02_18h38.02.405,fluency,2022.2.5,Win32,121.9512195,,,,,,,,,,,,,,,,,,,,,,,4,2,img/B02_04.jpg,GCNB,Press J if the face is NONBINARY and K if the face is GENDER-CONFORMING,Gender-conforming means that the face appears to be a typical example of its gender. Nonbinary means that the face does not conform to any particular gender norms.,KJ,,,,,,,,,,,,,,,,,,,,,,,,,,,,,,,,5,0.4551,,,,,,,,,,,,,,0,36,36,15,1,,,,,,,,,,,,,,,,,,,,space,0.6864,,,,,,,,,,,,,,,,,,,,,,,,,,,,,,,,,,,,,,,,,,,,,,,,,,,,,,,,,,,,
,,,,049024,001,2024-02-02_18h38.02.405,fluency,2022.2.5,Win32,121.9512195,,,,,,,,,,,,,,,,,,,,,,,6,9,img/B09_06.jpg,GCNB,Press J if the face is NONBINARY and K if the face is GENDER-CONFORMING,Gender-conforming means that the face appears to be a typical example of its gender. Nonbinary means that the face does not conform to any particular gender norms.,KJ,,,,,,,,,,,,,,,,,,,,,,,,,,,,,,,,,,,,,,,,,,,,,,765.9607,0,37,37,94,1,109,0,0,0,0,1,98,,,,,,,,,,,,,,,,,,,,,,,,,,,,,,,,,,,,,,,,,,,,,,,,,,,,,,,,,,,,,,,,,,,,,,,,,,
,,,,049024,001,2024-02-02_18h38.02.405,fluency,2022.2.5,Win32,121.9512195,,,,,,,,,,,,,,,,,,,,,,,,,,,,,,,,,,,,,,,,,,,,,,,,,,,,,,,,,,,,,,,,,,,,,,,,,,,,,,,,,,0,0,0,0,1,,"[""k""]",1,"[""k""]",,,,,,,,[1.981300000071542],[1.981300000071542],,,,,,,,,,,,,,,,,,,,,,,,,,,,,,,,,,,,,,,,,,,,,,,,,,,,,,,,,,,,,,
,,,,049024,001,2024-02-02_18h38.02.405,fluency,2022.2.5,Win32,121.9512195,,,,,,,,,,,,,,,,,,,,,,,6,9,img/B09_06.jpg,GCNB,Press J if the face is NONBINARY and K if the face is GENDER-CONFORMING,Gender-conforming means that the face appears to be a typical example of its gender. Nonbinary means that the face does not conform to any particular gender norms.,KJ,,,,,,,,,,,,,,,,,,,,,,,,,,,,,,,,5,1.7735,,,,,,,,,,,,,,0,37,37,94,1,,,,,,,,,,,,,,,,,,,,space,1.8429,,,,,,,,,,,,,,,,,,,,,,,,,,,,,,,,,,,,,,,,,,,,,,,,,,,,,,,,,,,,
,,,,049024,001,2024-02-02_18h38.02.405,fluency,2022.2.5,Win32,121.9512195,,,,,,,,,,,,,,,,,,,,,,,9,10,img/B10_09.jpg,GCNB,Press J if the face is NONBINARY and K if the face is GENDER-CONFORMING,Gender-conforming means that the face appears to be a typical example of its gender. Nonbinary means that the face does not conform to any particular gender norms.,KJ,,,,,,,,,,,,,,,,,,,,,,,,,,,,,,,,,,,,,,,,,,,,,,774.6193,0,38,38,108,1,109,0,0,0,0,1,98,,,,,,,,,,,,,,,,,,,,,,,,,,,,,,,,,,,,,,,,,,,,,,,,,,,,,,,,,,,,,,,,,,,,,,,,,,
,,,,049024,001,2024-02-02_18h38.02.405,fluency,2022.2.5,Win32,121.9512195,,,,,,,,,,,,,,,,,,,,,,,,,,,,,,,,,,,,,,,,,,,,,,,,,,,,,,,,,,,,,,,,,,,,,,,,,,,,,,,,,,0,0,0,0,1,,"[""k""]",1,"[""k""]",,,,,,,,[2.3210999999047317],[2.321199999928581],,,,,,,,,,,,,,,,,,,,,,,,,,,,,,,,,,,,,,,,,,,,,,,,,,,,,,,,,,,,,,
,,,,049024,001,2024-02-02_18h38.02.405,fluency,2022.2.5,Win32,121.9512195,,,,,,,,,,,,,,,,,,,,,,,9,10,img/B10_09.jpg,GCNB,Press J if the face is NONBINARY and K if the face is GENDER-CONFORMING,Gender-conforming means that the face appears to be a typical example of its gender. Nonbinary means that the face does not conform to any particular gender norms.,KJ,,,,,,,,,,,,,,,,,,,,,,,,,,,,,,,,5,1.1493,,,,,,,,,,,,,,0,38,38,108,1,,,,,,,,,,,,,,,,,,,,space,1.1684,,,,,,,,,,,,,,,,,,,,,,,,,,,,,,,,,,,,,,,,,,,,,,,,,,,,,,,,,,,,
,,,,049024,001,2024-02-02_18h38.02.405,fluency,2022.2.5,Win32,121.9512195,,,,,,,,,,,,,,,,,,,,,,,10,3,img/B03_10.jpg,GCNB,Press J if the face is NONBINARY and K if the face is GENDER-CONFORMING,Gender-conforming means that the face appears to be a typical example of its gender. Nonbinary means that the face does not conform to any particular gender norms.,KJ,,,,,,,,,,,,,,,,,,,,,,,,,,,,,,,,,,,,,,,,,,,,,,781.9773,0,39,39,32,1,109,0,0,0,0,1,98,,,,,,,,,,,,,,,,,,,,,,,,,,,,,,,,,,,,,,,,,,,,,,,,,,,,,,,,,,,,,,,,,,,,,,,,,,
,,,,049024,001,2024-02-02_18h38.02.405,fluency,2022.2.5,Win32,121.9512195,,,,,,,,,,,,,,,,,,,,,,,,,,,,,,,,,,,,,,,,,,,,,,,,,,,,,,,,,,,,,,,,,,,,,,,,,,,,,,,,,,0,0,0,0,1,,"[""k""]",1,"[""k""]",,,,,,,,[2.13900000000001],[2.13900000000001],,,,,,,,,,,,,,,,,,,,,,,,,,,,,,,,,,,,,,,,,,,,,,,,,,,,,,,,,,,,,,
,,,,049024,001,2024-02-02_18h38.02.405,fluency,2022.2.5,Win32,121.9512195,,,,,,,,,,,,,,,,,,,,,,,10,3,img/B03_10.jpg,GCNB,Press J if the face is NONBINARY and K if the face is GENDER-CONFORMING,Gender-conforming means that the face appears to be a typical example of its gender. Nonbinary means that the face does not conform to any particular gender norms.,KJ,,,,,,,,,,,,,,,,,,,,,,,,,,,,,,,,4,2.1633,,,,,,,,,,,,,,0,39,39,32,1,,,,,,,,,,,,,,,,,,,,space,0.7211,,,,,,,,,,,,,,,,,,,,,,,,,,,,,,,,,,,,,,,,,,,,,,,,,,,,,,,,,,,,
,,,,049024,001,2024-02-02_18h38.02.405,fluency,2022.2.5,Win32,121.9512195,,,,,,,,,,,,,,,,,,,,,,,8,9,img/B09_08.jpg,GCNB,Press J if the face is NONBINARY and K if the face is GENDER-CONFORMING,Gender-conforming means that the face appears to be a typical example of its gender. Nonbinary means that the face does not conform to any particular gender norms.,KJ,,,,,,,,,,,,,,,,,,,,,,,,,,,,,,,,,,,,,,,,,,,,,,789.894,0,40,40,96,1,109,0,0,0,0,1,98,,,,,,,,,,,,,,,,,,,,,,,,,,,,,,,,,,,,,,,,,,,,,,,,,,,,,,,,,,,,,,,,,,,,,,,,,,
,,,,049024,001,2024-02-02_18h38.02.405,fluency,2022.2.5,Win32,121.9512195,,,,,,,,,,,,,,,,,,,,,,,,,,,,,,,,,,,,,,,,,,,,,,,,,,,,,,,,,,,,,,,,,,,,,,,,,,,,,,,,,,0,0,0,0,1,,"[""k""]",1,"[""k""]",,,,,,,,[2.0158999999761136],[2.015800000071522],,,,,,,,,,,,,,,,,,,,,,,,,,,,,,,,,,,,,,,,,,,,,,,,,,,,,,,,,,,,,,
,,,,049024,001,2024-02-02_18h38.02.405,fluency,2022.2.5,Win32,121.9512195,,,,,,,,,,,,,,,,,,,,,,,8,9,img/B09_08.jpg,GCNB,Press J if the face is NONBINARY and K if the face is GENDER-CONFORMING,Gender-conforming means that the face appears to be a typical example of its gender. Nonbinary means that the face does not conform to any particular gender norms.,KJ,,,,,,,,,,,,,,,,,,,,,,,,,,,,,,,,5,1.0499,,,,,,,,,,,,,,0,40,40,96,1,,,,,,,,,,,,,,,,,,,,space,0.5674,,,,,,,,,,,,,,,,,,,,,,,,,,,,,,,,,,,,,,,,,,,,,,,,,,,,,,,,,,,,
,,,,049024,001,2024-02-02_18h38.02.405,fluency,2022.2.5,Win32,121.9512195,,,,,,,,,,,,,,,,,,,,,,,0,8,img/B08_00.jpg,GCNB,Press J if the face is NONBINARY and K if the face is GENDER-CONFORMING,Gender-conforming means that the face appears to be a typical example of its gender. Nonbinary means that the face does not conform to any particular gender norms.,KJ,,,,,,,,,,,,,,,,,,,,,,,,,,,,,,,,,,,,,,,,,,,,,,795.5527,0,41,41,77,1,109,0,0,0,0,1,98,,,,,,,,,,,,,,,,,,,,,,,,,,,,,,,,,,,,,,,,,,,,,,,,,,,,,,,,,,,,,,,,,,,,,,,,,,
,,,,049024,001,2024-02-02_18h38.02.405,fluency,2022.2.5,Win32,121.9512195,,,,,,,,,,,,,,,,,,,,,,,,,,,,,,,,,,,,,,,,,,,,,,,,,,,,,,,,,,,,,,,,,,,,,,,,,,,,,,,,,,0,0,0,0,1,,"[""k""]",1,"[""k""]",,,,,,,,[2.054499999999962],[2.054499999999962],,,,,,,,,,,,,,,,,,,,,,,,,,,,,,,,,,,,,,,,,,,,,,,,,,,,,,,,,,,,,,
,,,,049024,001,2024-02-02_18h38.02.405,fluency,2022.2.5,Win32,121.9512195,,,,,,,,,,,,,,,,,,,,,,,0,8,img/B08_00.jpg,GCNB,Press J if the face is NONBINARY and K if the face is GENDER-CONFORMING,Gender-conforming means that the face appears to be a typical example of its gender. Nonbinary means that the face does not conform to any particular gender norms.,KJ,,,,,,,,,,,,,,,,,,,,,,,,,,,,,,,,4,3.1275,,,,,,,,,,,,,,0,41,41,77,1,,,,,,,,,,,,,,,,,,,,space,0.5521,,,,,,,,,,,,,,,,,,,,,,,,,,,,,,,,,,,,,,,,,,,,,,,,,,,,,,,,,,,,
,,,,049024,001,2024-02-02_18h38.02.405,fluency,2022.2.5,Win32,121.9512195,,,,,,,,,,,,,,,,,,,,,,,0,1,img/B01_00.jpg,GCNB,Press J if the face is NONBINARY and K if the face is GENDER-CONFORMING,Gender-conforming means that the face appears to be a typical example of its gender. Nonbinary means that the face does not conform to any particular gender norms.,KJ,,,,,,,,,,,,,,,,,,,,,,,,,,,,,,,,,,,,,,,,,,,,,,804.2777,0,42,42,0,1,109,0,0,0,0,1,98,,,,,,,,,,,,,,,,,,,,,,,,,,,,,,,,,,,,,,,,,,,,,,,,,,,,,,,,,,,,,,,,,,,,,,,,,,
,,,,049024,001,2024-02-02_18h38.02.405,fluency,2022.2.5,Win32,121.9512195,,,,,,,,,,,,,,,,,,,,,,,,,,,,,,,,,,,,,,,,,,,,,,,,,,,,,,,,,,,,,,,,,,,,,,,,,,,,,,,,,,0,0,0,0,1,,"[""k""]",1,"[""k""]",,,,,,,,[1.9881000000237918],[1.9881000000237918],,,,,,,,,,,,,,,,,,,,,,,,,,,,,,,,,,,,,,,,,,,,,,,,,,,,,,,,,,,,,,
,,,,049024,001,2024-02-02_18h38.02.405,fluency,2022.2.5,Win32,121.9512195,,,,,,,,,,,,,,,,,,,,,,,0,1,img/B01_00.jpg,GCNB,Press J if the face is NONBINARY and K if the face is GENDER-CONFORMING,Gender-conforming means that the face appears to be a typical example of its gender. Nonbinary means that the face does not conform to any particular gender norms.,KJ,,,,,,,,,,,,,,,,,,,,,,,,,,,,,,,,4,1.0037,,,,,,,,,,,,,,0,42,42,0,1,,,,,,,,,,,,,,,,,,,,space,0.5295,,,,,,,,,,,,,,,,,,,,,,,,,,,,,,,,,,,,,,,,,,,,,,,,,,,,,,,,,,,,
,,,,049024,001,2024-02-02_18h38.02.405,fluency,2022.2.5,Win32,121.9512195,,,,,,,,,,,,,,,,,,,,,,,3,8,img/B08_03.jpg,GCNB,Press J if the face is NONBINARY and K if the face is GENDER-CONFORMING,Gender-conforming means that the face appears to be a typical example of its gender. Nonbinary means that the face does not conform to any particular gender norms.,KJ,,,,,,,,,,,,,,,,,,,,,,,,,,,,,,,,,,,,,,,,,,,,,,809.8449,0,43,43,80,1,109,0,0,0,0,1,98,,,,,,,,,,,,,,,,,,,,,,,,,,,,,,,,,,,,,,,,,,,,,,,,,,,,,,,,,,,,,,,,,,,,,,,,,,
,,,,049024,001,2024-02-02_18h38.02.405,fluency,2022.2.5,Win32,121.9512195,,,,,,,,,,,,,,,,,,,,,,,,,,,,,,,,,,,,,,,,,,,,,,,,,,,,,,,,,,,,,,,,,,,,,,,,,,,,,,,,,,0,0,0,0,1,,"[""k""]",1,"[""k""]",,,,,,,,[2.0427000000477165],[2.0428000000715656],,,,,,,,,,,,,,,,,,,,,,,,,,,,,,,,,,,,,,,,,,,,,,,,,,,,,,,,,,,,,,
,,,,049024,001,2024-02-02_18h38.02.405,fluency,2022.2.5,Win32,121.9512195,,,,,,,,,,,,,,,,,,,,,,,3,8,img/B08_03.jpg,GCNB,Press J if the face is NONBINARY and K if the face is GENDER-CONFORMING,Gender-conforming means that the face appears to be a typical example of its gender. Nonbinary means that the face does not conform to any particular gender norms.,KJ,,,,,,,,,,,,,,,,,,,,,,,,,,,,,,,,4,4.3579,,,,,,,,,,,,,,0,43,43,80,1,,,,,,,,,,,,,,,,,,,,space,0.5458,,,,,,,,,,,,,,,,,,,,,,,,,,,,,,,,,,,,,,,,,,,,,,,,,,,,,,,,,,,,
,,,,049024,001,2024-02-02_18h38.02.405,fluency,2022.2.5,Win32,121.9512195,,,,,,,,,,,,,,,,,,,,,,,1,7,img/B07_01.jpg,GCNB,Press J if the face is NONBINARY and K if the face is GENDER-CONFORMING,Gender-conforming means that the face appears to be a typical example of its gender. Nonbinary means that the face does not conform to any particular gender norms.,KJ,,,,,,,,,,,,,,,,,,,,,,,,,,,,,,,,,,,,,,,,,,,,,,818.7946,0,44,44,67,1,109,0,0,0,0,1,98,,,,,,,,,,,,,,,,,,,,,,,,,,,,,,,,,,,,,,,,,,,,,,,,,,,,,,,,,,,,,,,,,,,,,,,,,,
,,,,049024,001,2024-02-02_18h38.02.405,fluency,2022.2.5,Win32,121.9512195,,,,,,,,,,,,,,,,,,,,,,,,,,,,,,,,,,,,,,,,,,,,,,,,,,,,,,,,,,,,,,,,,,,,,,,,,,,,,,,,,,0,0,0,0,1,,"[""k""]",1,"[""k""]",,,,,,,,[1.0454999999999472],[1.0454999999999472],,,,,,,,,,,,,,,,,,,,,,,,,,,,,,,,,,,,,,,,,,,,,,,,,,,,,,,,,,,,,,
,,,,049024,001,2024-02-02_18h38.02.405,fluency,2022.2.5,Win32,121.9512195,,,,,,,,,,,,,,,,,,,,,,,1,7,img/B07_01.jpg,GCNB,Press J if the face is NONBINARY and K if the face is GENDER-CONFORMING,Gender-conforming means that the face appears to be a typical example of its gender. Nonbinary means that the face does not conform to any particular gender norms.,KJ,,,,,,,,,,,,,,,,,,,,,,,,,,,,,,,,6,0.4017,,,,,,,,,,,,,,0,44,44,67,1,,,,,,,,,,,,,,,,,,,,space,0.8372,,,,,,,,,,,,,,,,,,,,,,,,,,,,,,,,,,,,,,,,,,,,,,,,,,,,,,,,,,,,
,,,,049024,001,2024-02-02_18h38.02.405,fluency,2022.2.5,Win32,121.9512195,,,,,,,,,,,,,,,,,,,,,,,6,3,img/B03_06.jpg,GCNB,Press J if the face is NONBINARY and K if the face is GENDER-CONFORMING,Gender-conforming means that the face appears to be a typical example of its gender. Nonbinary means that the face does not conform to any particular gender norms.,KJ,,,,,,,,,,,,,,,,,,,,,,,,,,,,,,,,,,,,,,,,,,,,,,824.0532,0,45,45,28,1,109,0,0,0,0,1,98,,,,,,,,,,,,,,,,,,,,,,,,,,,,,,,,,,,,,,,,,,,,,,,,,,,,,,,,,,,,,,,,,,,,,,,,,,
,,,,049024,001,2024-02-02_18h38.02.405,fluency,2022.2.5,Win32,121.9512195,,,,,,,,,,,,,,,,,,,,,,,,,,,,,,,,,,,,,,,,,,,,,,,,,,,,,,,,,,,,,,,,,,,,,,,,,,,,,,,,,,0,0,0,0,1,,"[""k""]",1,"[""k""]",,,,,,,,[1.9814999999999827],[1.9812999999522845],,,,,,,,,,,,,,,,,,,,,,,,,,,,,,,,,,,,,,,,,,,,,,,,,,,,,,,,,,,,,,
,,,,049024,001,2024-02-02_18h38.02.405,fluency,2022.2.5,Win32,121.9512195,,,,,,,,,,,,,,,,,,,,,,,6,3,img/B03_06.jpg,GCNB,Press J if the face is NONBINARY and K if the face is GENDER-CONFORMING,Gender-conforming means that the face appears to be a typical example of its gender. Nonbinary means that the face does not conform to any particular gender norms.,KJ,,,,,,,,,,,,,,,,,,,,,,,,,,,,,,,,5,2.9205,,,,,,,,,,,,,,0,45,45,28,1,,,,,,,,,,,,,,,,,,,,space,0.9554,,,,,,,,,,,,,,,,,,,,,,,,,,,,,,,,,,,,,,,,,,,,,,,,,,,,,,,,,,,,
,,,,049024,001,2024-02-02_18h38.02.405,fluency,2022.2.5,Win32,121.9512195,,,,,,,,,,,,,,,,,,,,,,,1,5,img/B05_01.jpg,GCNB,Press J if the face is NONBINARY and K if the face is GENDER-CONFORMING,Gender-conforming means that the face appears to be a typical example of its gender. Nonbinary means that the face does not conform to any particular gender norms.,KJ,,,,,,,,,,,,,,,,,,,,,,,,,,,,,,,,,,,,,,,,,,,,,,832.9696,0,46,46,45,1,109,0,0,0,0,1,98,,,,,,,,,,,,,,,,,,,,,,,,,,,,,,,,,,,,,,,,,,,,,,,,,,,,,,,,,,,,,,,,,,,,,,,,,,
,,,,049024,001,2024-02-02_18h38.02.405,fluency,2022.2.5,Win32,121.9512195,,,,,,,,,,,,,,,,,,,,,,,,,,,,,,,,,,,,,,,,,,,,,,,,,,,,,,,,,,,,,,,,,,,,,,,,,,,,,,,,,,0,0,0,0,1,,"[""k""]",1,"[""k""]",,,,,,,,[1.3195000000000618],[1.3193999999762127],,,,,,,,,,,,,,,,,,,,,,,,,,,,,,,,,,,,,,,,,,,,,,,,,,,,,,,,,,,,,,
,,,,049024,001,2024-02-02_18h38.02.405,fluency,2022.2.5,Win32,121.9512195,,,,,,,,,,,,,,,,,,,,,,,1,5,img/B05_01.jpg,GCNB,Press J if the face is NONBINARY and K if the face is GENDER-CONFORMING,Gender-conforming means that the face appears to be a typical example of its gender. Nonbinary means that the face does not conform to any particular gender norms.,KJ,,,,,,,,,,,,,,,,,,,,,,,,,,,,,,,,6,2.6339,,,,,,,,,,,,,,0,46,46,45,1,,,,,,,,,,,,,,,,,,,,space,0.7249,,,,,,,,,,,,,,,,,,,,,,,,,,,,,,,,,,,,,,,,,,,,,,,,,,,,,,,,,,,,
,,,,049024,001,2024-02-02_18h38.02.405,fluency,2022.2.5,Win32,121.9512195,,,,,,,,,,,,,,,,,,,,,,,9,2,img/B02_09.jpg,GCNB,Press J if the face is NONBINARY and K if the face is GENDER-CONFORMING,Gender-conforming means that the face appears to be a typical example of its gender. Nonbinary means that the face does not conform to any particular gender norms.,KJ,,,,,,,,,,,,,,,,,,,,,,,,,,,,,,,,,,,,,,,,,,,,,,840.3699,0,47,47,20,1,109,0,0,0,0,1,98,,,,,,,,,,,,,,,,,,,,,,,,,,,,,,,,,,,,,,,,,,,,,,,,,,,,,,,,,,,,,,,,,,,,,,,,,,
,,,,049024,001,2024-02-02_18h38.02.405,fluency,2022.2.5,Win32,121.9512195,,,,,,,,,,,,,,,,,,,,,,,,,,,,,,,,,,,,,,,,,,,,,,,,,,,,,,,,,,,,,,,,,,,,,,,,,,,,,,,,,,0,0,0,0,1,,"[""k""]",1,"[""k""]",,,,,,,,[1.2858999999760954],[1.2858999999760954],,,,,,,,,,,,,,,,,,,,,,,,,,,,,,,,,,,,,,,,,,,,,,,,,,,,,,,,,,,,,,
,,,,049024,001,2024-02-02_18h38.02.405,fluency,2022.2.5,Win32,121.9512195,,,,,,,,,,,,,,,,,,,,,,,9,2,img/B02_09.jpg,GCNB,Press J if the face is NONBINARY and K if the face is GENDER-CONFORMING,Gender-conforming means that the face appears to be a typical example of its gender. Nonbinary means that the face does not conform to any particular gender norms.,KJ,,,,,,,,,,,,,,,,,,,,,,,,,,,,,,,,7,0.661,,,,,,,,,,,,,,0,47,47,20,1,,,,,,,,,,,,,,,,,,,,space,0.9572,,,,,,,,,,,,,,,,,,,,,,,,,,,,,,,,,,,,,,,,,,,,,,,,,,,,,,,,,,,,
,,,,049024,001,2024-02-02_18h38.02.405,fluency,2022.2.5,Win32,121.9512195,,,,,,,,,,,,,,,,,,,,,,,3,5,img/B05_03.jpg,GCNB,Press J if the face is NONBINARY and K if the face is GENDER-CONFORMING,Gender-conforming means that the face appears to be a typical example of its gender. Nonbinary means that the face does not conform to any particular gender norms.,KJ,,,,,,,,,,,,,,,,,,,,,,,,,,,,,,,,,,,,,,,,,,,,,,846.0119,0,48,48,47,1,109,0,0,0,0,1,98,,,,,,,,,,,,,,,,,,,,,,,,,,,,,,,,,,,,,,,,,,,,,,,,,,,,,,,,,,,,,,,,,,,,,,,,,,
,,,,049024,001,2024-02-02_18h38.02.405,fluency,2022.2.5,Win32,121.9512195,,,,,,,,,,,,,,,,,,,,,,,,,,,,,,,,,,,,,,,,,,,,,,,,,,,,,,,,,,,,,,,,,,,,,,,,,,,,,,,,,,0,0,0,0,1,,"[""k""]",1,"[""k""]",,,,,,,,[1.4287000000476837],[1.4287000000476837],,,,,,,,,,,,,,,,,,,,,,,,,,,,,,,,,,,,,,,,,,,,,,,,,,,,,,,,,,,,,,
,,,,049024,001,2024-02-02_18h38.02.405,fluency,2022.2.5,Win32,121.9512195,,,,,,,,,,,,,,,,,,,,,,,3,5,img/B05_03.jpg,GCNB,Press J if the face is NONBINARY and K if the face is GENDER-CONFORMING,Gender-conforming means that the face appears to be a typical example of its gender. Nonbinary means that the face does not conform to any particular gender norms.,KJ,,,,,,,,,,,,,,,,,,,,,,,,,,,,,,,,5,6.6164,,,,,,,,,,,,,,0,48,48,47,1,,,,,,,,,,,,,,,,,,,,space,0.434,,,,,,,,,,,,,,,,,,,,,,,,,,,,,,,,,,,,,,,,,,,,,,,,,,,,,,,,,,,,
,,,,049024,001,2024-02-02_18h38.02.405,fluency,2022.2.5,Win32,121.9512195,,,,,,,,,,,,,,,,,,,,,,,4,6,img/B06_04.jpg,GCNB,Press J if the face is NONBINARY and K if the face is GENDER-CONFORMING,Gender-conforming means that the face appears to be a typical example of its gender. Nonbinary means that the face does not conform to any particular gender norms.,KJ,,,,,,,,,,,,,,,,,,,,,,,,,,,,,,,,,,,,,,,,,,,,,,857.1034,0,49,49,59,1,109,0,0,0,0,1,98,,,,,,,,,,,,,,,,,,,,,,,,,,,,,,,,,,,,,,,,,,,,,,,,,,,,,,,,,,,,,,,,,,,,,,,,,,
,,,,049024,001,2024-02-02_18h38.02.405,fluency,2022.2.5,Win32,121.9512195,,,,,,,,,,,,,,,,,,,,,,,,,,,,,,,,,,,,,,,,,,,,,,,,,,,,,,,,,,,,,,,,,,,,,,,,,,,,,,,,,,0,0,0,0,1,,"[""j""]",1,"[""j""]",,,,,,,,[1.5043000000714528],[1.5042000000477174],,,,,,,,,,,,,,,,,,,,,,,,,,,,,,,,,,,,,,,,,,,,,,,,,,,,,,,,,,,,,,
,,,,049024,001,2024-02-02_18h38.02.405,fluency,2022.2.5,Win32,121.9512195,,,,,,,,,,,,,,,,,,,,,,,4,6,img/B06_04.jpg,GCNB,Press J if the face is NONBINARY and K if the face is GENDER-CONFORMING,Gender-conforming means that the face appears to be a typical example of its gender. Nonbinary means that the face does not conform to any particular gender norms.,KJ,,,,,,,,,,,,,,,,,,,,,,,,,,,,,,,,5,2.9566,,,,,,,,,,,,,,0,49,49,59,1,,,,,,,,,,,,,,,,,,,,space,0.4053,,,,,,,,,,,,,,,,,,,,,,,,,,,,,,,,,,,,,,,,,,,,,,,,,,,,,,,,,,,,
,,,,049024,001,2024-02-02_18h38.02.405,fluency,2022.2.5,Win32,121.9512195,,,,,,,,,,,,,,,,,,,,,,,0,9,img/B09_00.jpg,GCNB,Press J if the face is NONBINARY and K if the face is GENDER-CONFORMING,Gender-conforming means that the face appears to be a typical example of its gender. Nonbinary means that the face does not conform to any particular gender norms.,KJ,,,,,,,,,,,,,,,,,,,,,,,,,,,,,,,,,,,,,,,,,,,,,,864.495,0,50,50,88,1,109,0,0,0,0,1,98,,,,,,,,,,,,,,,,,,,,,,,,,,,,,,,,,,,,,,,,,,,,,,,,,,,,,,,,,,,,,,,,,,,,,,,,,,
,,,,049024,001,2024-02-02_18h38.02.405,fluency,2022.2.5,Win32,121.9512195,,,,,,,,,,,,,,,,,,,,,,,,,,,,,,,,,,,,,,,,,,,,,,,,,,,,,,,,,,,,,,,,,,,,,,,,,,,,,,,,,,0,0,0,0,1,,"[""k""]",1,"[""k""]",,,,,,,,[1.3670000000000755],[1.3670000000000755],,,,,,,,,,,,,,,,,,,,,,,,,,,,,,,,,,,,,,,,,,,,,,,,,,,,,,,,,,,,,,
,,,,049024,001,2024-02-02_18h38.02.405,fluency,2022.2.5,Win32,121.9512195,,,,,,,,,,,,,,,,,,,,,,,0,9,img/B09_00.jpg,GCNB,Press J if the face is NONBINARY and K if the face is GENDER-CONFORMING,Gender-conforming means that the face appears to be a typical example of its gender. Nonbinary means that the face does not conform to any particular gender norms.,KJ,,,,,,,,,,,,,,,,,,,,,,,,,,,,,,,,5,1.4411,,,,,,,,,,,,,,0,50,50,88,1,,,,,,,,,,,,,,,,,,,,space,0.655,,,,,,,,,,,,,,,,,,,,,,,,,,,,,,,,,,,,,,,,,,,,,,,,,,,,,,,,,,,,
,,,,049024,001,2024-02-02_18h38.02.405,fluency,2022.2.5,Win32,121.9512195,,,,,,,,,,,,,,,,,,,,,,,6,5,img/B05_06.jpg,GCNB,Press J if the face is NONBINARY and K if the face is GENDER-CONFORMING,Gender-conforming means that the face appears to be a typical example of its gender. Nonbinary means that the face does not conform to any particular gender norms.,KJ,,,,,,,,,,,,,,,,,,,,,,,,,,,,,,,,,,,,,,,,,,,,,,870.62,0,51,51,50,1,109,0,0,0,0,1,98,,,,,,,,,,,,,,,,,,,,,,,,,,,,,,,,,,,,,,,,,,,,,,,,,,,,,,,,,,,,,,,,,,,,,,,,,,
,,,,049024,001,2024-02-02_18h38.02.405,fluency,2022.2.5,Win32,121.9512195,,,,,,,,,,,,,,,,,,,,,,,,,,,,,,,,,,,,,,,,,,,,,,,,,,,,,,,,,,,,,,,,,,,,,,,,,,,,,,,,,,0,0,0,0,1,,"[""k""]",1,"[""k""]",,,,,,,,[1.3558999999761454],[1.3558999999761454],,,,,,,,,,,,,,,,,,,,,,,,,,,,,,,,,,,,,,,,,,,,,,,,,,,,,,,,,,,,,,
,,,,049024,001,2024-02-02_18h38.02.405,fluency,2022.2.5,Win32,121.9512195,,,,,,,,,,,,,,,,,,,,,,,6,5,img/B05_06.jpg,GCNB,Press J if the face is NONBINARY and K if the face is GENDER-CONFORMING,Gender-conforming means that the face appears to be a typical example of its gender. Nonbinary means that the face does not conform to any particular gender norms.,KJ,,,,,,,,,,,,,,,,,,,,,,,,,,,,,,,,5,0.7726,,,,,,,,,,,,,,0,51,51,50,1,,,,,,,,,,,,,,,,,,,,space,0.6221,,,,,,,,,,,,,,,,,,,,,,,,,,,,,,,,,,,,,,,,,,,,,,,,,,,,,,,,,,,,
,,,,049024,001,2024-02-02_18h38.02.405,fluency,2022.2.5,Win32,121.9512195,,,,,,,,,,,,,,,,,,,,,,,9,5,img/B05_09.jpg,GCNB,Press J if the face is NONBINARY and K if the face is GENDER-CONFORMING,Gender-conforming means that the face appears to be a typical example of its gender. Nonbinary means that the face does not conform to any particular gender norms.,KJ,,,,,,,,,,,,,,,,,,,,,,,,,,,,,,,,,,,,,,,,,,,,,,877.0369,0,52,52,53,1,109,0,0,0,0,1,98,,,,,,,,,,,,,,,,,,,,,,,,,,,,,,,,,,,,,,,,,,,,,,,,,,,,,,,,,,,,,,,,,,,,,,,,,,
,,,,049024,001,2024-02-02_18h38.02.405,fluency,2022.2.5,Win32,121.9512195,,,,,,,,,,,,,,,,,,,,,,,,,,,,,,,,,,,,,,,,,,,,,,,,,,,,,,,,,,,,,,,,,,,,,,,,,,,,,,,,,,0,0,0,0,1,,"[""k""]",1,"[""k""]",,,,,,,,[1.3233000000715265],[1.3233000000715265],,,,,,,,,,,,,,,,,,,,,,,,,,,,,,,,,,,,,,,,,,,,,,,,,,,,,,,,,,,,,,
,,,,049024,001,2024-02-02_18h38.02.405,fluency,2022.2.5,Win32,121.9512195,,,,,,,,,,,,,,,,,,,,,,,9,5,img/B05_09.jpg,GCNB,Press J if the face is NONBINARY and K if the face is GENDER-CONFORMING,Gender-conforming means that the face appears to be a typical example of its gender. Nonbinary means that the face does not conform to any particular gender norms.,KJ,,,,,,,,,,,,,,,,,,,,,,,,,,,,,,,,5,0.3221,,,,,,,,,,,,,,0,52,52,53,1,,,,,,,,,,,,,,,,,,,,space,0.5143,,,,,,,,,,,,,,,,,,,,,,,,,,,,,,,,,,,,,,,,,,,,,,,,,,,,,,,,,,,,
,,,,049024,001,2024-02-02_18h38.02.405,fluency,2022.2.5,Win32,121.9512195,,,,,,,,,,,,,,,,,,,,,,,0,4,img/B04_00.jpg,GCNB,Press J if the face is NONBINARY and K if the face is GENDER-CONFORMING,Gender-conforming means that the face appears to be a typical example of its gender. Nonbinary means that the face does not conform to any particular gender norms.,KJ,,,,,,,,,,,,,,,,,,,,,,,,,,,,,,,,,,,,,,,,,,,,,,881.9036,0,53,53,33,1,109,0,0,0,0,1,98,,,,,,,,,,,,,,,,,,,,,,,,,,,,,,,,,,,,,,,,,,,,,,,,,,,,,,,,,,,,,,,,,,,,,,,,,,
,,,,049024,001,2024-02-02_18h38.02.405,fluency,2022.2.5,Win32,121.9512195,,,,,,,,,,,,,,,,,,,,,,,,,,,,,,,,,,,,,,,,,,,,,,,,,,,,,,,,,,,,,,,,,,,,,,,,,,,,,,,,,,0,0,0,0,1,,"[""k""]",1,"[""k""]",,,,,,,,[1.5286000000238573],[1.5287000000477065],,,,,,,,,,,,,,,,,,,,,,,,,,,,,,,,,,,,,,,,,,,,,,,,,,,,,,,,,,,,,,
,,,,049024,001,2024-02-02_18h38.02.405,fluency,2022.2.5,Win32,121.9512195,,,,,,,,,,,,,,,,,,,,,,,0,4,img/B04_00.jpg,GCNB,Press J if the face is NONBINARY and K if the face is GENDER-CONFORMING,Gender-conforming means that the face appears to be a typical example of its gender. Nonbinary means that the face does not conform to any particular gender norms.,KJ,,,,,,,,,,,,,,,,,,,,,,,,,,,,,,,,8,0.4714,,,,,,,,,,,,,,0,53,53,33,1,,,,,,,,,,,,,,,,,,,,space,0.7638,,,,,,,,,,,,,,,,,,,,,,,,,,,,,,,,,,,,,,,,,,,,,,,,,,,,,,,,,,,,
,,,,049024,001,2024-02-02_18h38.02.405,fluency,2022.2.5,Win32,121.9512195,,,,,,,,,,,,,,,,,,,,,,,4,8,img/B08_04.jpg,GCNB,Press J if the face is NONBINARY and K if the face is GENDER-CONFORMING,Gender-conforming means that the face appears to be a typical example of its gender. Nonbinary means that the face does not conform to any particular gender norms.,KJ,,,,,,,,,,,,,,,,,,,,,,,,,,,,,,,,,,,,,,,,,,,,,,888.1705,0,54,54,81,1,109,0,0,0,0,1,98,,,,,,,,,,,,,,,,,,,,,,,,,,,,,,,,,,,,,,,,,,,,,,,,,,,,,,,,,,,,,,,,,,,,,,,,,,
,,,,049024,001,2024-02-02_18h38.02.405,fluency,2022.2.5,Win32,121.9512195,,,,,,,,,,,,,,,,,,,,,,,,,,,,,,,,,,,,,,,,,,,,,,,,,,,,,,,,,,,,,,,,,,,,,,,,,,,,,,,,,,0,0,0,0,1,,"[""k""]",1,"[""k""]",,,,,,,,[1.5762999999523117],[1.5762999999523117],,,,,,,,,,,,,,,,,,,,,,,,,,,,,,,,,,,,,,,,,,,,,,,,,,,,,,,,,,,,,,
,,,,049024,001,2024-02-02_18h38.02.405,fluency,2022.2.5,Win32,121.9512195,,,,,,,,,,,,,,,,,,,,,,,4,8,img/B08_04.jpg,GCNB,Press J if the face is NONBINARY and K if the face is GENDER-CONFORMING,Gender-conforming means that the face appears to be a typical example of its gender. Nonbinary means that the face does not conform to any particular gender norms.,KJ,,,,,,,,,,,,,,,,,,,,,,,,,,,,,,,,5,0.7998,,,,,,,,,,,,,,0,54,54,81,1,,,,,,,,,,,,,,,,,,,,space,0.5134,,,,,,,,,,,,,,,,,,,,,,,,,,,,,,,,,,,,,,,,,,,,,,,,,,,,,,,,,,,,
,,,,049024,001,2024-02-02_18h38.02.405,fluency,2022.2.5,Win32,121.9512195,,,,,,,,,,,,,,,,,,,,,,,2,8,img/B08_02.jpg,GCNB,Press J if the face is NONBINARY and K if the face is GENDER-CONFORMING,Gender-conforming means that the face appears to be a typical example of its gender. Nonbinary means that the face does not conform to any particular gender norms.,KJ,,,,,,,,,,,,,,,,,,,,,,,,,,,,,,,,,,,,,,,,,,,,,,893.5119,0,55,55,79,1,109,0,0,0,0,1,98,,,,,,,,,,,,,,,,,,,,,,,,,,,,,,,,,,,,,,,,,,,,,,,,,,,,,,,,,,,,,,,,,,,,,,,,,,
,,,,049024,001,2024-02-02_18h38.02.405,fluency,2022.2.5,Win32,121.9512195,,,,,,,,,,,,,,,,,,,,,,,,,,,,,,,,,,,,,,,,,,,,,,,,,,,,,,,,,,,,,,,,,,,,,,,,,,,,,,,,,,0,0,0,0,1,,"[""k""]",1,"[""k""]",,,,,,,,[0.7694999999999936],[0.7694999999999936],,,,,,,,,,,,,,,,,,,,,,,,,,,,,,,,,,,,,,,,,,,,,,,,,,,,,,,,,,,,,,
,,,,049024,001,2024-02-02_18h38.02.405,fluency,2022.2.5,Win32,121.9512195,,,,,,,,,,,,,,,,,,,,,,,2,8,img/B08_02.jpg,GCNB,Press J if the face is NONBINARY and K if the face is GENDER-CONFORMING,Gender-conforming means that the face appears to be a typical example of its gender. Nonbinary means that the face does not conform to any particular gender norms.,KJ,,,,,,,,,,,,,,,,,,,,,,,,,,,,,,,,5,0.4155,,,,,,,,,,,,,,0,55,55,79,1,,,,,,,,,,,,,,,,,,,,space,0.4796,,,,,,,,,,,,,,,,,,,,,,,,,,,,,,,,,,,,,,,,,,,,,,,,,,,,,,,,,,,,
,,,,049024,001,2024-02-02_18h38.02.405,fluency,2022.2.5,Win32,121.9512195,,,,,,,,,,,,,,,,,,,,,,,8,6,img/B06_08.jpg,GCNB,Press J if the face is NONBINARY and K if the face is GENDER-CONFORMING,Gender-conforming means that the face appears to be a typical example of its gender. Nonbinary means that the face does not conform to any particular gender norms.,KJ,,,,,,,,,,,,,,,,,,,,,,,,,,,,,,,,,,,,,,,,,,,,,,898.4458,0,56,56,63,1,109,0,0,0,0,1,98,,,,,,,,,,,,,,,,,,,,,,,,,,,,,,,,,,,,,,,,,,,,,,,,,,,,,,,,,,,,,,,,,,,,,,,,,,
,,,,049024,001,2024-02-02_18h38.02.405,fluency,2022.2.5,Win32,121.9512195,,,,,,,,,,,,,,,,,,,,,,,,,,,,,,,,,,,,,,,,,,,,,,,,,,,,,,,,,,,,,,,,,,,,,,,,,,,,,,,,,,0,0,0,0,1,,"[""k""]",1,"[""k""]",,,,,,,,[2.650400000095374],[2.6503000000715247],,,,,,,,,,,,,,,,,,,,,,,,,,,,,,,,,,,,,,,,,,,,,,,,,,,,,,,,,,,,,,
,,,,049024,001,2024-02-02_18h38.02.405,fluency,2022.2.5,Win32,121.9512195,,,,,,,,,,,,,,,,,,,,,,,8,6,img/B06_08.jpg,GCNB,Press J if the face is NONBINARY and K if the face is GENDER-CONFORMING,Gender-conforming means that the face appears to be a typical example of its gender. Nonbinary means that the face does not conform to any particular gender norms.,KJ,,,,,,,,,,,,,,,,,,,,,,,,,,,,,,,,4,2.3288,,,,,,,,,,,,,,0,56,56,63,1,,,,,,,,,,,,,,,,,,,,space,0.6937,,,,,,,,,,,,,,,,,,,,,,,,,,,,,,,,,,,,,,,,,,,,,,,,,,,,,,,,,,,,
,,,,049024,001,2024-02-02_18h38.02.405,fluency,2022.2.5,Win32,121.9512195,,,,,,,,,,,,,,,,,,,,,,,7,6,img/B06_07.jpg,GCNB,Press J if the face is NONBINARY and K if the face is GENDER-CONFORMING,Gender-conforming means that the face appears to be a typical example of its gender. Nonbinary means that the face does not conform to any particular gender norms.,KJ,,,,,,,,,,,,,,,,,,,,,,,,,,,,,,,,,,,,,,,,,,,,,,906.5038,0,57,57,62,1,109,0,0,0,0,1,98,,,,,,,,,,,,,,,,,,,,,,,,,,,,,,,,,,,,,,,,,,,,,,,,,,,,,,,,,,,,,,,,,,,,,,,,,,
,,,,049024,001,2024-02-02_18h38.02.405,fluency,2022.2.5,Win32,121.9512195,,,,,,,,,,,,,,,,,,,,,,,,,,,,,,,,,,,,,,,,,,,,,,,,,,,,,,,,,,,,,,,,,,,,,,,,,,,,,,,,,,0,0,0,0,1,,"[""k""]",1,"[""k""]",,,,,,,,[1.258199999928479],[1.258199999928479],,,,,,,,,,,,,,,,,,,,,,,,,,,,,,,,,,,,,,,,,,,,,,,,,,,,,,,,,,,,,,
,,,,049024,001,2024-02-02_18h38.02.405,fluency,2022.2.5,Win32,121.9512195,,,,,,,,,,,,,,,,,,,,,,,7,6,img/B06_07.jpg,GCNB,Press J if the face is NONBINARY and K if the face is GENDER-CONFORMING,Gender-conforming means that the face appears to be a typical example of its gender. Nonbinary means that the face does not conform to any particular gender norms.,KJ,,,,,,,,,,,,,,,,,,,,,,,,,,,,,,,,4,0.3893,,,,,,,,,,,,,,0,57,57,62,1,,,,,,,,,,,,,,,,,,,,space,4.9153,,,,,,,,,,,,,,,,,,,,,,,,,,,,,,,,,,,,,,,,,,,,,,,,,,,,,,,,,,,,
,,,,049024,001,2024-02-02_18h38.02.405,fluency,2022.2.5,Win32,121.9512195,,,,,,,,,,,,,,,,,,,,,,,8,10,img/B10_08.jpg,GCNB,Press J if the face is NONBINARY and K if the face is GENDER-CONFORMING,Gender-conforming means that the face appears to be a typical example of its gender. Nonbinary means that the face does not conform to any particular gender norms.,KJ,,,,,,,,,,,,,,,,,,,,,,,,,,,,,,,,,,,,,,,,,,,,,,915.8458,0,58,58,107,1,109,0,0,0,0,1,98,,,,,,,,,,,,,,,,,,,,,,,,,,,,,,,,,,,,,,,,,,,,,,,,,,,,,,,,,,,,,,,,,,,,,,,,,,
,,,,049024,001,2024-02-02_18h38.02.405,fluency,2022.2.5,Win32,121.9512195,,,,,,,,,,,,,,,,,,,,,,,,,,,,,,,,,,,,,,,,,,,,,,,,,,,,,,,,,,,,,,,,,,,,,,,,,,,,,,,,,,0,0,0,0,1,,"[""k""]",1,"[""k""]",,,,,,,,[1.1789999999999736],[1.1789999999999736],,,,,,,,,,,,,,,,,,,,,,,,,,,,,,,,,,,,,,,,,,,,,,,,,,,,,,,,,,,,,,
,,,,049024,001,2024-02-02_18h38.02.405,fluency,2022.2.5,Win32,121.9512195,,,,,,,,,,,,,,,,,,,,,,,8,10,img/B10_08.jpg,GCNB,Press J if the face is NONBINARY and K if the face is GENDER-CONFORMING,Gender-conforming means that the face appears to be a typical example of its gender. Nonbinary means that the face does not conform to any particular gender norms.,KJ,,,,,,,,,,,,,,,,,,,,,,,,,,,,,,,,5,1.265,,,,,,,,,,,,,,0,58,58,107,1,,,,,,,,,,,,,,,,,,,,space,0.5336,,,,,,,,,,,,,,,,,,,,,,,,,,,,,,,,,,,,,,,,,,,,,,,,,,,,,,,,,,,,
,,,,049024,001,2024-02-02_18h38.02.405,fluency,2022.2.5,Win32,121.9512195,,,,,,,,,,,,,,,,,,,,,,,9,6,img/B06_09.jpg,GCNB,Press J if the face is NONBINARY and K if the face is GENDER-CONFORMING,Gender-conforming means that the face appears to be a typical example of its gender. Nonbinary means that the face does not conform to any particular gender norms.,KJ,,,,,,,,,,,,,,,,,,,,,,,,,,,,,,,,,,,,,,,,,,,,,,921.671,0,59,59,64,1,109,0,0,0,0,1,98,,,,,,,,,,,,,,,,,,,,,,,,,,,,,,,,,,,,,,,,,,,,,,,,,,,,,,,,,,,,,,,,,,,,,,,,,,
,,,,049024,001,2024-02-02_18h38.02.405,fluency,2022.2.5,Win32,121.9512195,,,,,,,,,,,,,,,,,,,,,,,,,,,,,,,,,,,,,,,,,,,,,,,,,,,,,,,,,,,,,,,,,,,,,,,,,,,,,,,,,,0,0,0,0,1,,"[""k""]",1,"[""k""]",,,,,,,,[1.2681999999284699],[1.2681999999284699],,,,,,,,,,,,,,,,,,,,,,,,,,,,,,,,,,,,,,,,,,,,,,,,,,,,,,,,,,,,,,
,,,,049024,001,2024-02-02_18h38.02.405,fluency,2022.2.5,Win32,121.9512195,,,,,,,,,,,,,,,,,,,,,,,9,6,img/B06_09.jpg,GCNB,Press J if the face is NONBINARY and K if the face is GENDER-CONFORMING,Gender-conforming means that the face appears to be a typical example of its gender. Nonbinary means that the face does not conform to any particular gender norms.,KJ,,,,,,,,,,,,,,,,,,,,,,,,,,,,,,,,5,3.4083,,,,,,,,,,,,,,0,59,59,64,1,,,,,,,,,,,,,,,,,,,,space,0.7132,,,,,,,,,,,,,,,,,,,,,,,,,,,,,,,,,,,,,,,,,,,,,,,,,,,,,,,,,,,,
,,,,049024,001,2024-02-02_18h38.02.405,fluency,2022.2.5,Win32,121.9512195,,,,,,,,,,,,,,,,,,,,,,,8,7,img/B07_08.jpg,GCNB,Press J if the face is NONBINARY and K if the face is GENDER-CONFORMING,Gender-conforming means that the face appears to be a typical example of its gender. Nonbinary means that the face does not conform to any particular gender norms.,KJ,,,,,,,,,,,,,,,,,,,,,,,,,,,,,,,,,,,,,,,,,,,,,,929.8375,0,60,60,74,1,109,0,0,0,0,1,98,,,,,,,,,,,,,,,,,,,,,,,,,,,,,,,,,,,,,,,,,,,,,,,,,,,,,,,,,,,,,,,,,,,,,,,,,,
,,,,049024,001,2024-02-02_18h38.02.405,fluency,2022.2.5,Win32,121.9512195,,,,,,,,,,,,,,,,,,,,,,,,,,,,,,,,,,,,,,,,,,,,,,,,,,,,,,,,,,,,,,,,,,,,,,,,,,,,,,,,,,0,0,0,0,1,,"[""k""]",1,"[""k""]",,,,,,,,[1.3971000000238973],[1.3971000000238973],,,,,,,,,,,,,,,,,,,,,,,,,,,,,,,,,,,,,,,,,,,,,,,,,,,,,,,,,,,,,,
,,,,049024,001,2024-02-02_18h38.02.405,fluency,2022.2.5,Win32,121.9512195,,,,,,,,,,,,,,,,,,,,,,,8,7,img/B07_08.jpg,GCNB,Press J if the face is NONBINARY and K if the face is GENDER-CONFORMING,Gender-conforming means that the face appears to be a typical example of its gender. Nonbinary means that the face does not conform to any particular gender norms.,KJ,,,,,,,,,,,,,,,,,,,,,,,,,,,,,,,,7,4.1673,,,,,,,,,,,,,,0,60,60,74,1,,,,,,,,,,,,,,,,,,,,space,0.8679,,,,,,,,,,,,,,,,,,,,,,,,,,,,,,,,,,,,,,,,,,,,,,,,,,,,,,,,,,,,
,,,,049024,001,2024-02-02_18h38.02.405,fluency,2022.2.5,Win32,121.9512195,,,,,,,,,,,,,,,,,,,,,,,5,9,img/B09_05.jpg,GCNB,Press J if the face is NONBINARY and K if the face is GENDER-CONFORMING,Gender-conforming means that the face appears to be a typical example of its gender. Nonbinary means that the face does not conform to any particular gender norms.,KJ,,,,,,,,,,,,,,,,,,,,,,,,,,,,,,,,,,,,,,,,,,,,,,938.9127,0,61,61,93,1,109,0,0,0,0,1,98,,,,,,,,,,,,,,,,,,,,,,,,,,,,,,,,,,,,,,,,,,,,,,,,,,,,,,,,,,,,,,,,,,,,,,,,,,
,,,,049024,001,2024-02-02_18h38.02.405,fluency,2022.2.5,Win32,121.9512195,,,,,,,,,,,,,,,,,,,,,,,,,,,,,,,,,,,,,,,,,,,,,,,,,,,,,,,,,,,,,,,,,,,,,,,,,,,,,,,,,,0,0,0,0,1,,"[""j""]",1,"[""j""]",,,,,,,,[1.7128999999761163],[1.7128000000715247],,,,,,,,,,,,,,,,,,,,,,,,,,,,,,,,,,,,,,,,,,,,,,,,,,,,,,,,,,,,,,
,,,,049024,001,2024-02-02_18h38.02.405,fluency,2022.2.5,Win32,121.9512195,,,,,,,,,,,,,,,,,,,,,,,5,9,img/B09_05.jpg,GCNB,Press J if the face is NONBINARY and K if the face is GENDER-CONFORMING,Gender-conforming means that the face appears to be a typical example of its gender. Nonbinary means that the face does not conform to any particular gender norms.,KJ,,,,,,,,,,,,,,,,,,,,,,,,,,,,,,,,5,0.8557,,,,,,,,,,,,,,0,61,61,93,1,,,,,,,,,,,,,,,,,,,,space,0.5816,,,,,,,,,,,,,,,,,,,,,,,,,,,,,,,,,,,,,,,,,,,,,,,,,,,,,,,,,,,,
,,,,049024,001,2024-02-02_18h38.02.405,fluency,2022.2.5,Win32,121.9512195,,,,,,,,,,,,,,,,,,,,,,,8,5,img/B05_08.jpg,GCNB,Press J if the face is NONBINARY and K if the face is GENDER-CONFORMING,Gender-conforming means that the face appears to be a typical example of its gender. Nonbinary means that the face does not conform to any particular gender norms.,KJ,,,,,,,,,,,,,,,,,,,,,,,,,,,,,,,,,,,,,,,,,,,,,,944.3794,0,62,62,52,1,109,0,0,0,0,1,98,,,,,,,,,,,,,,,,,,,,,,,,,,,,,,,,,,,,,,,,,,,,,,,,,,,,,,,,,,,,,,,,,,,,,,,,,,
,,,,049024,001,2024-02-02_18h38.02.405,fluency,2022.2.5,Win32,121.9512195,,,,,,,,,,,,,,,,,,,,,,,,,,,,,,,,,,,,,,,,,,,,,,,,,,,,,,,,,,,,,,,,,,,,,,,,,,,,,,,,,,0,0,0,0,1,,"[""k""]",1,"[""k""]",,,,,,,,[0.9982999999523372],[0.9983999999761863],,,,,,,,,,,,,,,,,,,,,,,,,,,,,,,,,,,,,,,,,,,,,,,,,,,,,,,,,,,,,,
,,,,049024,001,2024-02-02_18h38.02.405,fluency,2022.2.5,Win32,121.9512195,,,,,,,,,,,,,,,,,,,,,,,8,5,img/B05_08.jpg,GCNB,Press J if the face is NONBINARY and K if the face is GENDER-CONFORMING,Gender-conforming means that the face appears to be a typical example of its gender. Nonbinary means that the face does not conform to any particular gender norms.,KJ,,,,,,,,,,,,,,,,,,,,,,,,,,,,,,,,5,0.445,,,,,,,,,,,,,,0,62,62,52,1,,,,,,,,,,,,,,,,,,,,space,0.8421,,,,,,,,,,,,,,,,,,,,,,,,,,,,,,,,,,,,,,,,,,,,,,,,,,,,,,,,,,,,
,,,,049024,001,2024-02-02_18h38.02.405,fluency,2022.2.5,Win32,121.9512195,,,,,,,,,,,,,,,,,,,,,,,5,3,img/B03_05.jpg,GCNB,Press J if the face is NONBINARY and K if the face is GENDER-CONFORMING,Gender-conforming means that the face appears to be a typical example of its gender. Nonbinary means that the face does not conform to any particular gender norms.,KJ,,,,,,,,,,,,,,,,,,,,,,,,,,,,,,,,,,,,,,,,,,,,,,949.6961,0,63,63,27,1,109,0,0,0,0,1,98,,,,,,,,,,,,,,,,,,,,,,,,,,,,,,,,,,,,,,,,,,,,,,,,,,,,,,,,,,,,,,,,,,,,,,,,,,
,,,,049024,001,2024-02-02_18h38.02.405,fluency,2022.2.5,Win32,121.9512195,,,,,,,,,,,,,,,,,,,,,,,,,,,,,,,,,,,,,,,,,,,,,,,,,,,,,,,,,,,,,,,,,,,,,,,,,,,,,,,,,,0,0,0,0,1,,"[""j""]",1,"[""j""]",,,,,,,,[2.0660999999047363],[2.066000000000031],,,,,,,,,,,,,,,,,,,,,,,,,,,,,,,,,,,,,,,,,,,,,,,,,,,,,,,,,,,,,,
,,,,049024,001,2024-02-02_18h38.02.405,fluency,2022.2.5,Win32,121.9512195,,,,,,,,,,,,,,,,,,,,,,,5,3,img/B03_05.jpg,GCNB,Press J if the face is NONBINARY and K if the face is GENDER-CONFORMING,Gender-conforming means that the face appears to be a typical example of its gender. Nonbinary means that the face does not conform to any particular gender norms.,KJ,,,,,,,,,,,,,,,,,,,,,,,,,,,,,,,,6,3.2802,,,,,,,,,,,,,,0,63,63,27,1,,,,,,,,,,,,,,,,,,,,space,0.4526,,,,,,,,,,,,,,,,,,,,,,,,,,,,,,,,,,,,,,,,,,,,,,,,,,,,,,,,,,,,
,,,,049024,001,2024-02-02_18h38.02.405,fluency,2022.2.5,Win32,121.9512195,,,,,,,,,,,,,,,,,,,,,,,5,2,img/B02_05.jpg,GCNB,Press J if the face is NONBINARY and K if the face is GENDER-CONFORMING,Gender-conforming means that the face appears to be a typical example of its gender. Nonbinary means that the face does not conform to any particular gender norms.,KJ,,,,,,,,,,,,,,,,,,,,,,,,,,,,,,,,,,,,,,,,,,,,,,958.4797,0,64,64,16,1,109,0,0,0,0,1,98,,,,,,,,,,,,,,,,,,,,,,,,,,,,,,,,,,,,,,,,,,,,,,,,,,,,,,,,,,,,,,,,,,,,,,,,,,
,,,,049024,001,2024-02-02_18h38.02.405,fluency,2022.2.5,Win32,121.9512195,,,,,,,,,,,,,,,,,,,,,,,,,,,,,,,,,,,,,,,,,,,,,,,,,,,,,,,,,,,,,,,,,,,,,,,,,,,,,,,,,,0,0,0,0,1,,"[""j""]",1,"[""j""]",,,,,,,,[1.9046999999284253],[1.9046999999284253],,,,,,,,,,,,,,,,,,,,,,,,,,,,,,,,,,,,,,,,,,,,,,,,,,,,,,,,,,,,,,
,,,,049024,001,2024-02-02_18h38.02.405,fluency,2022.2.5,Win32,121.9512195,,,,,,,,,,,,,,,,,,,,,,,5,2,img/B02_05.jpg,GCNB,Press J if the face is NONBINARY and K if the face is GENDER-CONFORMING,Gender-conforming means that the face appears to be a typical example of its gender. Nonbinary means that the face does not conform to any particular gender norms.,KJ,,,,,,,,,,,,,,,,,,,,,,,,,,,,,,,,6,3.8104,,,,,,,,,,,,,,0,64,64,16,1,,,,,,,,,,,,,,,,,,,,space,0.3965,,,,,,,,,,,,,,,,,,,,,,,,,,,,,,,,,,,,,,,,,,,,,,,,,,,,,,,,,,,,
,,,,049024,001,2024-02-02_18h38.02.405,fluency,2022.2.5,Win32,121.9512195,,,,,,,,,,,,,,,,,,,,,,,7,9,img/B09_07.jpg,GCNB,Press J if the face is NONBINARY and K if the face is GENDER-CONFORMING,Gender-conforming means that the face appears to be a typical example of its gender. Nonbinary means that the face does not conform to any particular gender norms.,KJ,,,,,,,,,,,,,,,,,,,,,,,,,,,,,,,,,,,,,,,,,,,,,,966.7212,0,65,65,95,1,109,0,0,0,0,1,98,,,,,,,,,,,,,,,,,,,,,,,,,,,,,,,,,,,,,,,,,,,,,,,,,,,,,,,,,,,,,,,,,,,,,,,,,,
,,,,049024,001,2024-02-02_18h38.02.405,fluency,2022.2.5,Win32,121.9512195,,,,,,,,,,,,,,,,,,,,,,,,,,,,,,,,,,,,,,,,,,,,,,,,,,,,,,,,,,,,,,,,,,,,,,,,,,,,,,,,,,0,0,0,0,1,,"[""k""]",1,"[""k""]",,,,,,,,[1.6515000000000555],[1.6513999999762063],,,,,,,,,,,,,,,,,,,,,,,,,,,,,,,,,,,,,,,,,,,,,,,,,,,,,,,,,,,,,,
,,,,049024,001,2024-02-02_18h38.02.405,fluency,2022.2.5,Win32,121.9512195,,,,,,,,,,,,,,,,,,,,,,,7,9,img/B09_07.jpg,GCNB,Press J if the face is NONBINARY and K if the face is GENDER-CONFORMING,Gender-conforming means that the face appears to be a typical example of its gender. Nonbinary means that the face does not conform to any particular gender norms.,KJ,,,,,,,,,,,,,,,,,,,,,,,,,,,,,,,,5,0.3734,,,,,,,,,,,,,,0,65,65,95,1,,,,,,,,,,,,,,,,,,,,space,0.5195,,,,,,,,,,,,,,,,,,,,,,,,,,,,,,,,,,,,,,,,,,,,,,,,,,,,,,,,,,,,
,,,,049024,001,2024-02-02_18h38.02.405,fluency,2022.2.5,Win32,121.9512195,,,,,,,,,,,,,,,,,,,,,,,1,2,img/B02_01.jpg,GCNB,Press J if the face is NONBINARY and K if the face is GENDER-CONFORMING,Gender-conforming means that the face appears to be a typical example of its gender. Nonbinary means that the face does not conform to any particular gender norms.,KJ,,,,,,,,,,,,,,,,,,,,,,,,,,,,,,,,,,,,,,,,,,,,,,971.6469,0,66,66,12,1,109,0,0,0,0,1,98,,,,,,,,,,,,,,,,,,,,,,,,,,,,,,,,,,,,,,,,,,,,,,,,,,,,,,,,,,,,,,,,,,,,,,,,,,
,,,,049024,001,2024-02-02_18h38.02.405,fluency,2022.2.5,Win32,121.9512195,,,,,,,,,,,,,,,,,,,,,,,,,,,,,,,,,,,,,,,,,,,,,,,,,,,,,,,,,,,,,,,,,,,,,,,,,,,,,,,,,,0,0,0,0,1,,"[""k""]",1,"[""k""]",,,,,,,,[2.004300000071453],[2.004400000095302],,,,,,,,,,,,,,,,,,,,,,,,,,,,,,,,,,,,,,,,,,,,,,,,,,,,,,,,,,,,,,
,,,,049024,001,2024-02-02_18h38.02.405,fluency,2022.2.5,Win32,121.9512195,,,,,,,,,,,,,,,,,,,,,,,1,2,img/B02_01.jpg,GCNB,Press J if the face is NONBINARY and K if the face is GENDER-CONFORMING,Gender-conforming means that the face appears to be a typical example of its gender. Nonbinary means that the face does not conform to any particular gender norms.,KJ,,,,,,,,,,,,,,,,,,,,,,,,,,,,,,,,6,11.5787,,,,,,,,,,,,,,0,66,66,12,1,,,,,,,,,,,,,,,,,,,,space,13.084,,,,,,,,,,,,,,,,,,,,,,,,,,,,,,,,,,,,,,,,,,,,,,,,,,,,,,,,,,,,
,,,,049024,001,2024-02-02_18h38.02.405,fluency,2022.2.5,Win32,121.9512195,,,,,,,,,,,,,,,,,,,,,,,10,9,img/B09_10.jpg,GCNB,Press J if the face is NONBINARY and K if the face is GENDER-CONFORMING,Gender-conforming means that the face appears to be a typical example of its gender. Nonbinary means that the face does not conform to any particular gender norms.,KJ,,,,,,,,,,,,,,,,,,,,,,,,,,,,,,,,,,,,,,,,,,,,,,1001.3552,0,67,67,98,1,109,0,0,0,0,1,98,,,,,,,,,,,,,,,,,,,,,,,,,,,,,,,,,,,,,,,,,,,,,,,,,,,,,,,,,,,,,,,,,,,,,,,,,,
,,,,049024,001,2024-02-02_18h38.02.405,fluency,2022.2.5,Win32,121.9512195,,,,,,,,,,,,,,,,,,,,,,,,,,,,,,,,,,,,,,,,,,,,,,,,,,,,,,,,,,,,,,,,,,,,,,,,,,,,,,,,,,0,0,0,0,1,,"[""j""]",1,"[""j""]",,,,,,,,[1.5707999999522144],[1.5707999999522144],,,,,,,,,,,,,,,,,,,,,,,,,,,,,,,,,,,,,,,,,,,,,,,,,,,,,,,,,,,,,,
,,,,049024,001,2024-02-02_18h38.02.405,fluency,2022.2.5,Win32,121.9512195,,,,,,,,,,,,,,,,,,,,,,,10,9,img/B09_10.jpg,GCNB,Press J if the face is NONBINARY and K if the face is GENDER-CONFORMING,Gender-conforming means that the face appears to be a typical example of its gender. Nonbinary means that the face does not conform to any particular gender norms.,KJ,,,,,,,,,,,,,,,,,,,,,,,,,,,,,,,,4,2.0661,,,,,,,,,,,,,,0,67,67,98,1,,,,,,,,,,,,,,,,,,,,space,0.5263,,,,,,,,,,,,,,,,,,,,,,,,,,,,,,,,,,,,,,,,,,,,,,,,,,,,,,,,,,,,
,,,,049024,001,2024-02-02_18h38.02.405,fluency,2022.2.5,Win32,121.9512195,,,,,,,,,,,,,,,,,,,,,,,5,8,img/B08_05.jpg,GCNB,Press J if the face is NONBINARY and K if the face is GENDER-CONFORMING,Gender-conforming means that the face appears to be a typical example of its gender. Nonbinary means that the face does not conform to any particular gender norms.,KJ,,,,,,,,,,,,,,,,,,,,,,,,,,,,,,,,,,,,,,,,,,,,,,1008.9885,0,68,68,82,1,109,0,0,0,0,1,98,,,,,,,,,,,,,,,,,,,,,,,,,,,,,,,,,,,,,,,,,,,,,,,,,,,,,,,,,,,,,,,,,,,,,,,,,,
,,,,049024,001,2024-02-02_18h38.02.405,fluency,2022.2.5,Win32,121.9512195,,,,,,,,,,,,,,,,,,,,,,,,,,,,,,,,,,,,,,,,,,,,,,,,,,,,,,,,,,,,,,,,,,,,,,,,,,,,,,,,,,0,0,0,0,1,,"[""j""]",1,"[""j""]",,,,,,,,[2.1747999999524836],[2.1747999999524836],,,,,,,,,,,,,,,,,,,,,,,,,,,,,,,,,,,,,,,,,,,,,,,,,,,,,,,,,,,,,,
,,,,049024,001,2024-02-02_18h38.02.405,fluency,2022.2.5,Win32,121.9512195,,,,,,,,,,,,,,,,,,,,,,,5,8,img/B08_05.jpg,GCNB,Press J if the face is NONBINARY and K if the face is GENDER-CONFORMING,Gender-conforming means that the face appears to be a typical example of its gender. Nonbinary means that the face does not conform to any particular gender norms.,KJ,,,,,,,,,,,,,,,,,,,,,,,,,,,,,,,,4,2.403,,,,,,,,,,,,,,0,68,68,82,1,,,,,,,,,,,,,,,,,,,,space,0.5093,,,,,,,,,,,,,,,,,,,,,,,,,,,,,,,,,,,,,,,,,,,,,,,,,,,,,,,,,,,,
,,,,049024,001,2024-02-02_18h38.02.405,fluency,2022.2.5,Win32,121.9512195,,,,,,,,,,,,,,,,,,,,,,,9,7,img/B07_09.jpg,GCNB,Press J if the face is NONBINARY and K if the face is GENDER-CONFORMING,Gender-conforming means that the face appears to be a typical example of its gender. Nonbinary means that the face does not conform to any particular gender norms.,KJ,,,,,,,,,,,,,,,,,,,,,,,,,,,,,,,,,,,,,,,,,,,,,,1015.9476,0,69,69,75,1,109,0,0,0,0,1,98,,,,,,,,,,,,,,,,,,,,,,,,,,,,,,,,,,,,,,,,,,,,,,,,,,,,,,,,,,,,,,,,,,,,,,,,,,
