idTextbox.text,welcomeDone.numClicks,welcomeDone.timesOn,welcomeDone.timesOff,participant,session,date,expName,psychopyVersion,OS,frameRate,consent_advance.keys,consent_advance.rt,consent_advance_2.keys,consent_advance_2.rt,consentClick.x,consentClick.y,consentClick.leftButton,consentClick.midButton,consentClick.rightButton,consentClick.time,consentClick.clicked_name,instr_advance_3.keys,instr_advance_3.rt,spec_instr_adv.keys,spec_instr_adv.rt,spec_instr_adv2.keys,spec_instr_adv2.rt,instrLoop.thisRepN,instrLoop.thisTrialN,instrLoop.thisN,instrLoop.thisIndex,instrLoop.ran,steps,fams,face_file,cond,instr,term,key_map,attnKeyResp1.keys,attnKeyResp1.rt,q1.thisRepN,q1.thisTrialN,q1.thisN,q1.thisIndex,q1.ran,attnKeyResp2.keys,attnKeyResp2.rt,q2.thisRepN,q2.thisTrialN,q2.thisN,q2.thisIndex,q2.ran,attnKeyResp3.keys,attnKeyResp3.rt,q3.thisRepN,q3.thisTrialN,q3.thisN,q3.thisIndex,q3.ran,practiceStart.keys,practiceStart.rt,practiceResp.keys,timesRedone,redo_keypress.keys,redo_keypress.rt,practiceFailed.thisRepN,practiceFailed.thisTrialN,practiceFailed.thisN,practiceFailed.thisIndex,practiceFailed.ran,practiceRepeat.thisRepN,practiceRepeat.thisTrialN,practiceRepeat.thisN,practiceRepeat.thisIndex,practiceRepeat.ran,practiceResp.rt,attrRating.keys,attrRating.rt,practiceTrial.thisRepN,practiceTrial.thisTrialN,practiceTrial.thisN,practiceTrial.thisIndex,practiceTrial.ran,key_resp_3.keys,key_resp_3.rt,attnChecker.thisRepN,attnChecker.thisTrialN,attnChecker.thisN,attnChecker.thisIndex,attnChecker.ran,faceOnsetTime,trials.thisRepN,trials.thisTrialN,trials.thisN,trials.thisIndex,trials.ran,trials.order,repeat_loop.thisRepN,repeat_loop.thisTrialN,repeat_loop.thisN,repeat_loop.thisIndex,repeat_loop.ran,repeat_loop.order,catResp.keys,catResp.rt,globalTimesRedone,catAllKeys.keys,catAllKeys.rt,contResp.keys,contResp.rt,redo_feedback_loop.thisRepN,redo_feedback_loop.thisTrialN,redo_feedback_loop.thisN,redo_feedback_loop.thisIndex,redo_feedback_loop.ran,contResp_2.keys,contResp_2.rt,respQ1.response,respQ1.rt,respQ2.response,respQ2.rt,respQ3.response,respQ3.rt,respQ4.response,respQ4.rt,surveyContinue1.numClicks,surveyContinue1.timesOn,surveyContinue1.timesOff,respQ5.response,respQ5.rt,respQ6.response,respQ6.rt,respQ7.response,respQ7.rt,respQ8.response,respQ8.rt,surveyContinue2.numClicks,surveyContinue2.timesOn,surveyContinue2.timesOff,respQ9.response,respQ9.rt,respQ10.response,respQ10.rt,respQ11.response,respQ11.rt,respQ12.response,respQ12.rt,surveyContinue3.numClicks,surveyContinue3.timesOn,surveyContinue3.timesOff,respQ13.response,respQ13.rt,respQ14.response,respQ14.rt,respQ15.response,respQ15.rt,surveyContinue4.numClicks,surveyContinue4.timesOn,surveyContinue4.timesOff,respAge.response,respAge.rt,genderResp1.response,genderResp1.rt,genderResp2.text,demogexitClick.numClicks,demogexitClick.timesOn,demogexitClick.timesOff,textbox.text,openAnswerClick.numClicks,openAnswerClick.timesOn,openAnswerClick.timesOff,debriefEnd.keys,debriefEnd.rt,exitKey.keys,exitKey.rt
614e8000c429207c056429a2,1,[6.569800000011924],[6.569899999976158],361734,001,2024-02-02_11h38.55.467,fluency,2022.2.5,Win32,15.01501502,,,,,,,,,,,,,,,,,,,,,,,,,,,,,,,,,,,,,,,,,,,,,,,,,,,,,,,,,,,,,,,,,,,,,,,,,,,,,,,,,,,,,,,,,,,,,,,,,,,,,,,,,,,,,,,,,,,,,,,,,,,,,,,,,,,,,,,,,,,,,,,,,,,,,,,,,,,,,,,,,,,,,,
,,,,361734,001,2024-02-02_11h38.55.467,fluency,2022.2.5,Win32,15.01501502,space,13.125,,,,,,,,,,,,,,,,,,,,,,,,,,,,,,,,,,,,,,,,,,,,,,,,,,,,,,,,,,,,,,,,,,,,,,,,,,,,,,,,,,,,,,,,,,,,,,,,,,,,,,,,,,,,,,,,,,,,,,,,,,,,,,,,,,,,,,,,,,,,,,,,,,,,,,,,,,,,,,,,,,,,
,,,,361734,001,2024-02-02_11h38.55.467,fluency,2022.2.5,Win32,15.01501502,,,space,3.6114,,,,,,,,,,,,,,,,,,,,,,,,,,,,,,,,,,,,,,,,,,,,,,,,,,,,,,,,,,,,,,,,,,,,,,,,,,,,,,,,,,,,,,,,,,,,,,,,,,,,,,,,,,,,,,,,,,,,,,,,,,,,,,,,,,,,,,,,,,,,,,,,,,,,,,,,,,,,,,,,,,
,,,,361734,001,2024-02-02_11h38.55.467,fluency,2022.2.5,Win32,15.01501502,,,,,0.310185185,-0.341666681,1,0,0,4.1501,iAgree,,,,,,,,,,,,,,,,,,,,,,,,,,,,,,,,,,,,,,,,,,,,,,,,,,,,,,,,,,,,,,,,,,,,,,,,,,,,,,,,,,,,,,,,,,,,,,,,,,,,,,,,,,,,,,,,,,,,,,,,,,,,,,,,,,,,,,,,,,,,,,,,,,,,,,,,,,,
,,,,361734,001,2024-02-02_11h38.55.467,fluency,2022.2.5,Win32,15.01501502,,,,,,,,,,,,space,8.596,,,,,,,,,,,,,,,,,,,,,,,,,,,,,,,,,,,,,,,,,,,,,,,,,,,,,,,,,,,,,,,,,,,,,,,,,,,,,,,,,,,,,,,,,,,,,,,,,,,,,,,,,,,,,,,,,,,,,,,,,,,,,,,,,,,,,,,,,,,,,,,,,,,,,,,,,
,,,,361734,001,2024-02-02_11h38.55.467,fluency,2022.2.5,Win32,15.01501502,,,,,,,,,,,,,,space,12.3434,space,9.9318,0,0,0,95,1,7,9,img/B09_07.jpg,MF,Press J if the face is MALE and K if the face is FEMALE, ,JK,,,,,,,,,,,,,,,,,,,,,,,,,,,,,,,,,,,,,,,,,,,,,,,,,,,,,,,,,,,,,,,,,,,,,,,,,,,,,,,,,,,,,,,,,,,,,,,,,,,,,,,,,,,,,,,,,,,,,,,,,,,,,,,,,,,,,,,,,
,,,,361734,001,2024-02-02_11h38.55.467,fluency,2022.2.5,Win32,15.01501502,,,,,,,,,,,,,,,,,,,,,,,,,,,,,,c,11.6841,0,0,0,0,1,,,,,,,,,,,,,,,,,,,,,,,,,,,,,,,,,,,,,,,,,,,,,,,,,,,,,,,,,,,,,,,,,,,,,,,,,,,,,,,,,,,,,,,,,,,,,,,,,,,,,,,,,,,,,,,,,,,,,,,,,,,,,,,,,,
,,,,361734,001,2024-02-02_11h38.55.467,fluency,2022.2.5,Win32,15.01501502,,,,,,,,,,,,,,,,,,,,,,,,,,,,,,,,,,,,,a,3.0356,0,0,0,0,1,,,,,,,,,,,,,,,,,,,,,,,,,,,,,,,,,,,,,,,,,,,,,,,,,,,,,,,,,,,,,,,,,,,,,,,,,,,,,,,,,,,,,,,,,,,,,,,,,,,,,,,,,,,,,,,,,,,,,,,,,,,
,,,,361734,001,2024-02-02_11h38.55.467,fluency,2022.2.5,Win32,15.01501502,,,,,,,,,,,,,,,,,,,,,,,,,,,,,,,,,,,,,,,,,,,,c,6.6286,0,0,0,0,1,,,,,,,,,,,,,,,,,,,,,,,,,,,,,,,,,,,,,,,,,,,,,,,,,,,,,,,,,,,,,,,,,,,,,,,,,,,,,,,,,,,,,,,,,,,,,,,,,,,,,,,,,,,,,,,,,,,,
,,,,361734,001,2024-02-02_11h38.55.467,fluency,2022.2.5,Win32,15.01501502,,,,,,,,,,,,,,,,,,,,,,,,,,,,,,,,,,,,,,,,,,,,,,,,,,,space,1.9438,,1,space,4.6176,0,0,0,0,1,,,,,,,,,,,,,,,,,,,,,,,,,,,,,,,,,,,,,,,,,,,,,,,,,,,,,,,,,,,,,,,,,,,,,,,,,,,,,,,,,,,,,,,,,,,,,,,,,,,,,,,,,
,,,,361734,001,2024-02-02_11h38.55.467,fluency,2022.2.5,Win32,15.01501502,,,,,,,,,,,,,,,,,,,,,,,,,,,,,,,,,,,,,,,,,,,,,,,,,,,,,,,,,,,,,,0,0,0,0,1,,,,,,,,,,,,,,,,,,,,,,,,,,,,,,,,,,,,,,,,,,,,,,,,,,,,,,,,,,,,,,,,,,,,,,,,,,,,,,,,,,,,,,,,,,,,,,,,,,,,
,,,,361734,001,2024-02-02_11h38.55.467,fluency,2022.2.5,Win32,15.01501502,,,,,,,,,,,,,,,,,,,,,,,,,,,,,,,,,,,,,,,,,,,,,,,,,,,,,j,1,,,,,,,,1,0,1,0,1,0.5714,,,,,,,,,,,,,,,,,,,,,,,,,,,,,,,,,,,,,,,,,,,,,,,,,,,,,,,,,,,,,,,,,,,,,,,,,,,,,,,,,,,,,,,,,,,,,,,,,,,
,,,,361734,001,2024-02-02_11h38.55.467,fluency,2022.2.5,Win32,15.01501502,,,,,,,,,,,,,,,,,,,,,,,,,,,,,,,,,,,,,,,,,,,,,,,,,,,,,,,,,,,,,,,,,,,,4,4.117,0,0,0,0,1,,,,,,,,,,,,,,,,,,,,,,,,,,,,,,,,,,,,,,,,,,,,,,,,,,,,,,,,,,,,,,,,,,,,,,,,,,,,,,,,,,,,,,,,,,,,
,,,,361734,001,2024-02-02_11h38.55.467,fluency,2022.2.5,Win32,15.01501502,,,,,,,,,,,,,,,,,,,,,,,,,,,,,,,,,,,,,,,,,,,,,,,,,,,,,,,,,,,,,,,,,,,,,,,,,,,space,2.5998,0,0,0,0,1,,,,,,,,,,,,,,,,,,,,,,,,,,,,,,,,,,,,,,,,,,,,,,,,,,,,,,,,,,,,,,,,,,,,,,,,,,,,,,,,,,,,,
,,,,361734,001,2024-02-02_11h38.55.467,fluency,2022.2.5,Win32,15.01501502,,,,,,,,,,,,,,,,,,,,,,,1,4,img/B04_01.jpg,MF,Press J if the face is MALE and K if the face is FEMALE, ,JK,,,,,,,,,,,,,,,,,,,,,,,,,,,,,,,,,,,,,,,,,,,,,,,,,,,,,122.3868,0,0,0,34,1,109,0,0,0,0,1,98,,,,,,,,,,,,,,,,,,,,,,,,,,,,,,,,,,,,,,,,,,,,,,,,,,,,,,,,,,,,,,,,,,,,,,,,
,,,,361734,001,2024-02-02_11h38.55.467,fluency,2022.2.5,Win32,15.01501502,,,,,,,,,,,,,,,,,,,,,,,,,,,,,,,,,,,,,,,,,,,,,,,,,,,,,,,,,,,,,,,,,,,,,,,,,,,,,,,,,,,,,,,,,0,0,0,0,1,,"[""j""]",[0.7464000000357487],1,"[""j""]",[0.7463999999761768],,,,,,,,,,,,,,,,,,,,,,,,,,,,,,,,,,,,,,,,,,,,,,,,,,,,,,,,,,,,,,,,,,,
,,,,361734,001,2024-02-02_11h38.55.467,fluency,2022.2.5,Win32,15.01501502,,,,,,,,,,,,,,,,,,,,,,,1,4,img/B04_01.jpg,MF,Press J if the face is MALE and K if the face is FEMALE, ,JK,,,,,,,,,,,,,,,,,,,,,,,,,,,,,,,,,,,,,,,5,3.0905,,,,,,,,,,,,,,0,0,0,34,1,,,,,,,,,,,,,space,6.9837,,,,,,,,,,,,,,,,,,,,,,,,,,,,,,,,,,,,,,,,,,,,,,,,,,,,,,,,,,,,,,,,,
,,,,361734,001,2024-02-02_11h38.55.467,fluency,2022.2.5,Win32,15.01501502,,,,,,,,,,,,,,,,,,,,,,,1,6,img/B06_01.jpg,MF,Press J if the face is MALE and K if the face is FEMALE, ,JK,,,,,,,,,,,,,,,,,,,,,,,,,,,,,,,,,,,,,,,,,,,,,,,,,,,,,136.6298,0,1,1,56,1,109,0,0,0,0,1,98,,,,,,,,,,,,,,,,,,,,,,,,,,,,,,,,,,,,,,,,,,,,,,,,,,,,,,,,,,,,,,,,,,,,,,,,
,,,,361734,001,2024-02-02_11h38.55.467,fluency,2022.2.5,Win32,15.01501502,,,,,,,,,,,,,,,,,,,,,,,,,,,,,,,,,,,,,,,,,,,,,,,,,,,,,,,,,,,,,,,,,,,,,,,,,,,,,,,,,,,,,,,,,0,0,0,0,1,,"[""j""]",[1.0300000000000011],1,"[""j""]",[1.0300000000000011],,,,,,,,,,,,,,,,,,,,,,,,,,,,,,,,,,,,,,,,,,,,,,,,,,,,,,,,,,,,,,,,,,,
,,,,361734,001,2024-02-02_11h38.55.467,fluency,2022.2.5,Win32,15.01501502,,,,,,,,,,,,,,,,,,,,,,,1,6,img/B06_01.jpg,MF,Press J if the face is MALE and K if the face is FEMALE, ,JK,,,,,,,,,,,,,,,,,,,,,,,,,,,,,,,,,,,,,,,3,2.8298,,,,,,,,,,,,,,0,1,1,56,1,,,,,,,,,,,,,space,2.0011,,,,,,,,,,,,,,,,,,,,,,,,,,,,,,,,,,,,,,,,,,,,,,,,,,,,,,,,,,,,,,,,,
,,,,361734,001,2024-02-02_11h38.55.467,fluency,2022.2.5,Win32,15.01501502,,,,,,,,,,,,,,,,,,,,,,,1,2,img/B02_01.jpg,MF,Press J if the face is MALE and K if the face is FEMALE, ,JK,,,,,,,,,,,,,,,,,,,,,,,,,,,,,,,,,,,,,,,,,,,,,,,,,,,,,145.6442,0,2,2,12,1,109,0,0,0,0,1,98,,,,,,,,,,,,,,,,,,,,,,,,,,,,,,,,,,,,,,,,,,,,,,,,,,,,,,,,,,,,,,,,,,,,,,,,
,,,,361734,001,2024-02-02_11h38.55.467,fluency,2022.2.5,Win32,15.01501502,,,,,,,,,,,,,,,,,,,,,,,,,,,,,,,,,,,,,,,,,,,,,,,,,,,,,,,,,,,,,,,,,,,,,,,,,,,,,,,,,,,,,,,,,0,0,0,0,1,,"[""j""]",[0.7599999999999909],1,"[""j""]",[0.7599999999999909],,,,,,,,,,,,,,,,,,,,,,,,,,,,,,,,,,,,,,,,,,,,,,,,,,,,,,,,,,,,,,,,,,,
,,,,361734,001,2024-02-02_11h38.55.467,fluency,2022.2.5,Win32,15.01501502,,,,,,,,,,,,,,,,,,,,,,,1,2,img/B02_01.jpg,MF,Press J if the face is MALE and K if the face is FEMALE, ,JK,,,,,,,,,,,,,,,,,,,,,,,,,,,,,,,,,,,,,,,2,0.4199,,,,,,,,,,,,,,0,2,2,12,1,,,,,,,,,,,,,space,0.9062,,,,,,,,,,,,,,,,,,,,,,,,,,,,,,,,,,,,,,,,,,,,,,,,,,,,,,,,,,,,,,,,,
,,,,361734,001,2024-02-02_11h38.55.467,fluency,2022.2.5,Win32,15.01501502,,,,,,,,,,,,,,,,,,,,,,,1,10,img/B10_01.jpg,MF,Press J if the face is MALE and K if the face is FEMALE, ,JK,,,,,,,,,,,,,,,,,,,,,,,,,,,,,,,,,,,,,,,,,,,,,,,,,,,,,152.1706,0,3,3,100,1,109,0,0,0,0,1,98,,,,,,,,,,,,,,,,,,,,,,,,,,,,,,,,,,,,,,,,,,,,,,,,,,,,,,,,,,,,,,,,,,,,,,,,
,,,,361734,001,2024-02-02_11h38.55.467,fluency,2022.2.5,Win32,15.01501502,,,,,,,,,,,,,,,,,,,,,,,,,,,,,,,,,,,,,,,,,,,,,,,,,,,,,,,,,,,,,,,,,,,,,,,,,,,,,,,,,,,,,,,,,0,0,0,0,1,,"[""j""]",[0.5996999999880757],1,"[""j""]",[0.5998000000119248],,,,,,,,,,,,,,,,,,,,,,,,,,,,,,,,,,,,,,,,,,,,,,,,,,,,,,,,,,,,,,,,,,,
,,,,361734,001,2024-02-02_11h38.55.467,fluency,2022.2.5,Win32,15.01501502,,,,,,,,,,,,,,,,,,,,,,,1,10,img/B10_01.jpg,MF,Press J if the face is MALE and K if the face is FEMALE, ,JK,,,,,,,,,,,,,,,,,,,,,,,,,,,,,,,,,,,,,,,2,1.3079,,,,,,,,,,,,,,0,3,3,100,1,,,,,,,,,,,,,space,2.3653,,,,,,,,,,,,,,,,,,,,,,,,,,,,,,,,,,,,,,,,,,,,,,,,,,,,,,,,,,,,,,,,,
,,,,361734,001,2024-02-02_11h38.55.467,fluency,2022.2.5,Win32,15.01501502,,,,,,,,,,,,,,,,,,,,,,,3,3,img/B03_03.jpg,MF,Press J if the face is MALE and K if the face is FEMALE, ,JK,,,,,,,,,,,,,,,,,,,,,,,,,,,,,,,,,,,,,,,,,,,,,,,,,,,,,161.0638,0,4,4,25,1,109,0,0,0,0,1,98,,,,,,,,,,,,,,,,,,,,,,,,,,,,,,,,,,,,,,,,,,,,,,,,,,,,,,,,,,,,,,,,,,,,,,,,
,,,,361734,001,2024-02-02_11h38.55.467,fluency,2022.2.5,Win32,15.01501502,,,,,,,,,,,,,,,,,,,,,,,,,,,,,,,,,,,,,,,,,,,,,,,,,,,,,,,,,,,,,,,,,,,,,,,,,,,,,,,,,,,,,,,,,0,0,0,0,1,,"[""j""]",[0.7488000000118973],1,"[""j""]",[0.7488000000118973],,,,,,,,,,,,,,,,,,,,,,,,,,,,,,,,,,,,,,,,,,,,,,,,,,,,,,,,,,,,,,,,,,,
,,,,361734,001,2024-02-02_11h38.55.467,fluency,2022.2.5,Win32,15.01501502,,,,,,,,,,,,,,,,,,,,,,,3,3,img/B03_03.jpg,MF,Press J if the face is MALE and K if the face is FEMALE, ,JK,,,,,,,,,,,,,,,,,,,,,,,,,,,,,,,,,,,,,,,2,1.4395,,,,,,,,,,,,,,0,4,4,25,1,,,,,,,,,,,,,space,1.2451,,,,,,,,,,,,,,,,,,,,,,,,,,,,,,,,,,,,,,,,,,,,,,,,,,,,,,,,,,,,,,,,,
,,,,361734,001,2024-02-02_11h38.55.467,fluency,2022.2.5,Win32,15.01501502,,,,,,,,,,,,,,,,,,,,,,,2,4,img/B04_02.jpg,MF,Press J if the face is MALE and K if the face is FEMALE, ,JK,,,,,,,,,,,,,,,,,,,,,,,,,,,,,,,,,,,,,,,,,,,,,,,,,,,,,167.8752,0,5,5,35,1,109,0,0,0,0,1,98,,,,,,,,,,,,,,,,,,,,,,,,,,,,,,,,,,,,,,,,,,,,,,,,,,,,,,,,,,,,,,,,,,,,,,,,
,,,,361734,001,2024-02-02_11h38.55.467,fluency,2022.2.5,Win32,15.01501502,,,,,,,,,,,,,,,,,,,,,,,,,,,,,,,,,,,,,,,,,,,,,,,,,,,,,,,,,,,,,,,,,,,,,,,,,,,,,,,,,,,,,,,,,0,0,0,0,1,,"[""j""]",[2.5795999999642163],1,"[""j""]",[2.5796999999880654],,,,,,,,,,,,,,,,,,,,,,,,,,,,,,,,,,,,,,,,,,,,,,,,,,,,,,,,,,,,,,,,,,,
,,,,361734,001,2024-02-02_11h38.55.467,fluency,2022.2.5,Win32,15.01501502,,,,,,,,,,,,,,,,,,,,,,,2,4,img/B04_02.jpg,MF,Press J if the face is MALE and K if the face is FEMALE, ,JK,,,,,,,,,,,,,,,,,,,,,,,,,,,,,,,,,,,,,,,3,0.5091,,,,,,,,,,,,,,0,5,5,35,1,,,,,,,,,,,,,space,0.4254,,,,,,,,,,,,,,,,,,,,,,,,,,,,,,,,,,,,,,,,,,,,,,,,,,,,,,,,,,,,,,,,,
,,,,361734,001,2024-02-02_11h38.55.467,fluency,2022.2.5,Win32,15.01501502,,,,,,,,,,,,,,,,,,,,,,,9,10,img/B10_09.jpg,MF,Press J if the face is MALE and K if the face is FEMALE, ,JK,,,,,,,,,,,,,,,,,,,,,,,,,,,,,,,,,,,,,,,,,,,,,,,,,,,,,172.9235,0,6,6,108,1,109,0,0,0,0,1,98,,,,,,,,,,,,,,,,,,,,,,,,,,,,,,,,,,,,,,,,,,,,,,,,,,,,,,,,,,,,,,,,,,,,,,,,
,,,,361734,001,2024-02-02_11h38.55.467,fluency,2022.2.5,Win32,15.01501502,,,,,,,,,,,,,,,,,,,,,,,,,,,,,,,,,,,,,,,,,,,,,,,,,,,,,,,,,,,,,,,,,,,,,,,,,,,,,,,,,,,,,,,,,0,0,0,0,1,,"[""k""]",[0.7813000000119246],1,"[""k""]",[0.781399999976145],,,,,,,,,,,,,,,,,,,,,,,,,,,,,,,,,,,,,,,,,,,,,,,,,,,,,,,,,,,,,,,,,,,
,,,,361734,001,2024-02-02_11h38.55.467,fluency,2022.2.5,Win32,15.01501502,,,,,,,,,,,,,,,,,,,,,,,9,10,img/B10_09.jpg,MF,Press J if the face is MALE and K if the face is FEMALE, ,JK,,,,,,,,,,,,,,,,,,,,,,,,,,,,,,,,,,,,,,,4,0.6705,,,,,,,,,,,,,,0,6,6,108,1,,,,,,,,,,,,,space,0.9189,,,,,,,,,,,,,,,,,,,,,,,,,,,,,,,,,,,,,,,,,,,,,,,,,,,,,,,,,,,,,,,,,
,,,,361734,001,2024-02-02_11h38.55.467,fluency,2022.2.5,Win32,15.01501502,,,,,,,,,,,,,,,,,,,,,,,3,4,img/B04_03.jpg,MF,Press J if the face is MALE and K if the face is FEMALE, ,JK,,,,,,,,,,,,,,,,,,,,,,,,,,,,,,,,,,,,,,,,,,,,,,,,,,,,,179.7483,0,7,7,36,1,109,0,0,0,0,1,98,,,,,,,,,,,,,,,,,,,,,,,,,,,,,,,,,,,,,,,,,,,,,,,,,,,,,,,,,,,,,,,,,,,,,,,,
,,,,361734,001,2024-02-02_11h38.55.467,fluency,2022.2.5,Win32,15.01501502,,,,,,,,,,,,,,,,,,,,,,,,,,,,,,,,,,,,,,,,,,,,,,,,,,,,,,,,,,,,,,,,,,,,,,,,,,,,,,,,,,,,,,,,,0,0,0,0,1,,"[""j""]",[0.6764999999999759],1,"[""j""]",[0.6764999999999759],,,,,,,,,,,,,,,,,,,,,,,,,,,,,,,,,,,,,,,,,,,,,,,,,,,,,,,,,,,,,,,,,,,
,,,,361734,001,2024-02-02_11h38.55.467,fluency,2022.2.5,Win32,15.01501502,,,,,,,,,,,,,,,,,,,,,,,3,4,img/B04_03.jpg,MF,Press J if the face is MALE and K if the face is FEMALE, ,JK,,,,,,,,,,,,,,,,,,,,,,,,,,,,,,,,,,,,,,,3,0.4224,,,,,,,,,,,,,,0,7,7,36,1,,,,,,,,,,,,,space,0.0931,,,,,,,,,,,,,,,,,,,,,,,,,,,,,,,,,,,,,,,,,,,,,,,,,,,,,,,,,,,,,,,,,
,,,,361734,001,2024-02-02_11h38.55.467,fluency,2022.2.5,Win32,15.01501502,,,,,,,,,,,,,,,,,,,,,,,4,7,img/B07_04.jpg,MF,Press J if the face is MALE and K if the face is FEMALE, ,JK,,,,,,,,,,,,,,,,,,,,,,,,,,,,,,,,,,,,,,,,,,,,,,,,,,,,,184.4103,0,8,8,70,1,109,0,0,0,0,1,98,,,,,,,,,,,,,,,,,,,,,,,,,,,,,,,,,,,,,,,,,,,,,,,,,,,,,,,,,,,,,,,,,,,,,,,,
,,,,361734,001,2024-02-02_11h38.55.467,fluency,2022.2.5,Win32,15.01501502,,,,,,,,,,,,,,,,,,,,,,,,,,,,,,,,,,,,,,,,,,,,,,,,,,,,,,,,,,,,,,,,,,,,,,,,,,,,,,,,,,,,,,,,,0,0,0,0,1,,"[""j""]",[0.8468999999761877],1,"[""j""]",[0.8468000000119673],,,,,,,,,,,,,,,,,,,,,,,,,,,,,,,,,,,,,,,,,,,,,,,,,,,,,,,,,,,,,,,,,,,
,,,,361734,001,2024-02-02_11h38.55.467,fluency,2022.2.5,Win32,15.01501502,,,,,,,,,,,,,,,,,,,,,,,4,7,img/B07_04.jpg,MF,Press J if the face is MALE and K if the face is FEMALE, ,JK,,,,,,,,,,,,,,,,,,,,,,,,,,,,,,,,,,,,,,,3,0.8647,,,,,,,,,,,,,,0,8,8,70,1,,,,,,,,,,,,,space,0.9166,,,,,,,,,,,,,,,,,,,,,,,,,,,,,,,,,,,,,,,,,,,,,,,,,,,,,,,,,,,,,,,,,
,,,,361734,001,2024-02-02_11h38.55.467,fluency,2022.2.5,Win32,15.01501502,,,,,,,,,,,,,,,,,,,,,,,7,2,img/B02_07.jpg,MF,Press J if the face is MALE and K if the face is FEMALE, ,JK,,,,,,,,,,,,,,,,,,,,,,,,,,,,,,,,,,,,,,,,,,,,,,,,,,,,,190.3661,0,9,9,18,1,109,0,0,0,0,1,98,,,,,,,,,,,,,,,,,,,,,,,,,,,,,,,,,,,,,,,,,,,,,,,,,,,,,,,,,,,,,,,,,,,,,,,,
,,,,361734,001,2024-02-02_11h38.55.467,fluency,2022.2.5,Win32,15.01501502,,,,,,,,,,,,,,,,,,,,,,,,,,,,,,,,,,,,,,,,,,,,,,,,,,,,,,,,,,,,,,,,,,,,,,,,,,,,,,,,,,,,,,,,,0,0,0,0,1,,"[""k""]",[1.1071999999880404],1,"[""k""]",[1.1071999999880404],,,,,,,,,,,,,,,,,,,,,,,,,,,,,,,,,,,,,,,,,,,,,,,,,,,,,,,,,,,,,,,,,,,
,,,,361734,001,2024-02-02_11h38.55.467,fluency,2022.2.5,Win32,15.01501502,,,,,,,,,,,,,,,,,,,,,,,7,2,img/B02_07.jpg,MF,Press J if the face is MALE and K if the face is FEMALE, ,JK,,,,,,,,,,,,,,,,,,,,,,,,,,,,,,,,,,,,,,,3,2.0607,,,,,,,,,,,,,,0,9,9,18,1,,,,,,,,,,,,,space,0.8359,,,,,,,,,,,,,,,,,,,,,,,,,,,,,,,,,,,,,,,,,,,,,,,,,,,,,,,,,,,,,,,,,
,,,,361734,001,2024-02-02_11h38.55.467,fluency,2022.2.5,Win32,15.01501502,,,,,,,,,,,,,,,,,,,,,,,8,1,img/B01_08.jpg,MF,Press J if the face is MALE and K if the face is FEMALE, ,JK,,,,,,,,,,,,,,,,,,,,,,,,,,,,,,,,,,,,,,,,,,,,,,,,,,,,,198.4695,0,10,10,8,1,109,0,0,0,0,1,98,,,,,,,,,,,,,,,,,,,,,,,,,,,,,,,,,,,,,,,,,,,,,,,,,,,,,,,,,,,,,,,,,,,,,,,,
,,,,361734,001,2024-02-02_11h38.55.467,fluency,2022.2.5,Win32,15.01501502,,,,,,,,,,,,,,,,,,,,,,,,,,,,,,,,,,,,,,,,,,,,,,,,,,,,,,,,,,,,,,,,,,,,,,,,,,,,,,,,,,,,,,,,,0,0,0,0,1,,"[""k""]",[0.5928999999761686],1,"[""k""]",[0.5928000000119482],,,,,,,,,,,,,,,,,,,,,,,,,,,,,,,,,,,,,,,,,,,,,,,,,,,,,,,,,,,,,,,,,,,
,,,,361734,001,2024-02-02_11h38.55.467,fluency,2022.2.5,Win32,15.01501502,,,,,,,,,,,,,,,,,,,,,,,8,1,img/B01_08.jpg,MF,Press J if the face is MALE and K if the face is FEMALE, ,JK,,,,,,,,,,,,,,,,,,,,,,,,,,,,,,,,,,,,,,,4,0.7615,,,,,,,,,,,,,,0,10,10,8,1,,,,,,,,,,,,,space,0.427,,,,,,,,,,,,,,,,,,,,,,,,,,,,,,,,,,,,,,,,,,,,,,,,,,,,,,,,,,,,,,,,,
,,,,361734,001,2024-02-02_11h38.55.467,fluency,2022.2.5,Win32,15.01501502,,,,,,,,,,,,,,,,,,,,,,,4,4,img/B04_04.jpg,MF,Press J if the face is MALE and K if the face is FEMALE, ,JK,,,,,,,,,,,,,,,,,,,,,,,,,,,,,,,,,,,,,,,,,,,,,,,,,,,,,203.909,0,11,11,37,1,109,0,0,0,0,1,98,,,,,,,,,,,,,,,,,,,,,,,,,,,,,,,,,,,,,,,,,,,,,,,,,,,,,,,,,,,,,,,,,,,,,,,,
,,,,361734,001,2024-02-02_11h38.55.467,fluency,2022.2.5,Win32,15.01501502,,,,,,,,,,,,,,,,,,,,,,,,,,,,,,,,,,,,,,,,,,,,,,,,,,,,,,,,,,,,,,,,,,,,,,,,,,,,,,,,,,,,,,,,,0,0,0,0,1,,"[""j""]",[0.775299999952324],1,"[""j""]",[0.775299999952324],,,,,,,,,,,,,,,,,,,,,,,,,,,,,,,,,,,,,,,,,,,,,,,,,,,,,,,,,,,,,,,,,,,
,,,,361734,001,2024-02-02_11h38.55.467,fluency,2022.2.5,Win32,15.01501502,,,,,,,,,,,,,,,,,,,,,,,4,4,img/B04_04.jpg,MF,Press J if the face is MALE and K if the face is FEMALE, ,JK,,,,,,,,,,,,,,,,,,,,,,,,,,,,,,,,,,,,,,,3,0.4972,,,,,,,,,,,,,,0,11,11,37,1,,,,,,,,,,,,,space,0.2519,,,,,,,,,,,,,,,,,,,,,,,,,,,,,,,,,,,,,,,,,,,,,,,,,,,,,,,,,,,,,,,,,
,,,,361734,001,2024-02-02_11h38.55.467,fluency,2022.2.5,Win32,15.01501502,,,,,,,,,,,,,,,,,,,,,,,10,3,img/B03_10.jpg,MF,Press J if the face is MALE and K if the face is FEMALE, ,JK,,,,,,,,,,,,,,,,,,,,,,,,,,,,,,,,,,,,,,,,,,,,,,,,,,,,,208.8755,0,12,12,32,1,109,0,0,0,0,1,98,,,,,,,,,,,,,,,,,,,,,,,,,,,,,,,,,,,,,,,,,,,,,,,,,,,,,,,,,,,,,,,,,,,,,,,,
,,,,361734,001,2024-02-02_11h38.55.467,fluency,2022.2.5,Win32,15.01501502,,,,,,,,,,,,,,,,,,,,,,,,,,,,,,,,,,,,,,,,,,,,,,,,,,,,,,,,,,,,,,,,,,,,,,,,,,,,,,,,,,,,,,,,,0,0,0,0,1,,"[""k""]",[0.7731999999880941],1,"[""k""]",[0.7731999999880941],,,,,,,,,,,,,,,,,,,,,,,,,,,,,,,,,,,,,,,,,,,,,,,,,,,,,,,,,,,,,,,,,,,
,,,,361734,001,2024-02-02_11h38.55.467,fluency,2022.2.5,Win32,15.01501502,,,,,,,,,,,,,,,,,,,,,,,10,3,img/B03_10.jpg,MF,Press J if the face is MALE and K if the face is FEMALE, ,JK,,,,,,,,,,,,,,,,,,,,,,,,,,,,,,,,,,,,,,,4,0.6803,,,,,,,,,,,,,,0,12,12,32,1,,,,,,,,,,,,,space,0.4125,,,,,,,,,,,,,,,,,,,,,,,,,,,,,,,,,,,,,,,,,,,,,,,,,,,,,,,,,,,,,,,,,
,,,,361734,001,2024-02-02_11h38.55.467,fluency,2022.2.5,Win32,15.01501502,,,,,,,,,,,,,,,,,,,,,,,2,5,img/B05_02.jpg,MF,Press J if the face is MALE and K if the face is FEMALE, ,JK,,,,,,,,,,,,,,,,,,,,,,,,,,,,,,,,,,,,,,,,,,,,,,,,,,,,,214.1314,0,13,13,46,1,109,0,0,0,0,1,98,,,,,,,,,,,,,,,,,,,,,,,,,,,,,,,,,,,,,,,,,,,,,,,,,,,,,,,,,,,,,,,,,,,,,,,,
,,,,361734,001,2024-02-02_11h38.55.467,fluency,2022.2.5,Win32,15.01501502,,,,,,,,,,,,,,,,,,,,,,,,,,,,,,,,,,,,,,,,,,,,,,,,,,,,,,,,,,,,,,,,,,,,,,,,,,,,,,,,,,,,,,,,,0,0,0,0,1,,"[""j""]",[1.7665000000000077],1,"[""j""]",[1.7665000000000077],,,,,,,,,,,,,,,,,,,,,,,,,,,,,,,,,,,,,,,,,,,,,,,,,,,,,,,,,,,,,,,,,,,
,,,,361734,001,2024-02-02_11h38.55.467,fluency,2022.2.5,Win32,15.01501502,,,,,,,,,,,,,,,,,,,,,,,2,5,img/B05_02.jpg,MF,Press J if the face is MALE and K if the face is FEMALE, ,JK,,,,,,,,,,,,,,,,,,,,,,,,,,,,,,,,,,,,,,,3,0.5019,,,,,,,,,,,,,,0,13,13,46,1,,,,,,,,,,,,,space,0.591,,,,,,,,,,,,,,,,,,,,,,,,,,,,,,,,,,,,,,,,,,,,,,,,,,,,,,,,,,,,,,,,,
,,,,361734,001,2024-02-02_11h38.55.467,fluency,2022.2.5,Win32,15.01501502,,,,,,,,,,,,,,,,,,,,,,,5,8,img/B08_05.jpg,MF,Press J if the face is MALE and K if the face is FEMALE, ,JK,,,,,,,,,,,,,,,,,,,,,,,,,,,,,,,,,,,,,,,,,,,,,,,,,,,,,220.4475,0,14,14,82,1,109,0,0,0,0,1,98,,,,,,,,,,,,,,,,,,,,,,,,,,,,,,,,,,,,,,,,,,,,,,,,,,,,,,,,,,,,,,,,,,,,,,,,
,,,,361734,001,2024-02-02_11h38.55.467,fluency,2022.2.5,Win32,15.01501502,,,,,,,,,,,,,,,,,,,,,,,,,,,,,,,,,,,,,,,,,,,,,,,,,,,,,,,,,,,,,,,,,,,,,,,,,,,,,,,,,,,,,,,,,0,0,0,0,1,,"[""j""]",[1.105400000035786],1,"[""j""]",[1.105400000035786],,,,,,,,,,,,,,,,,,,,,,,,,,,,,,,,,,,,,,,,,,,,,,,,,,,,,,,,,,,,,,,,,,,
,,,,361734,001,2024-02-02_11h38.55.467,fluency,2022.2.5,Win32,15.01501502,,,,,,,,,,,,,,,,,,,,,,,5,8,img/B08_05.jpg,MF,Press J if the face is MALE and K if the face is FEMALE, ,JK,,,,,,,,,,,,,,,,,,,,,,,,,,,,,,,,,,,,,,,2,0.4342,,,,,,,,,,,,,,0,14,14,82,1,,,,,,,,,,,,,space,0.3409,,,,,,,,,,,,,,,,,,,,,,,,,,,,,,,,,,,,,,,,,,,,,,,,,,,,,,,,,,,,,,,,,
,,,,361734,001,2024-02-02_11h38.55.467,fluency,2022.2.5,Win32,15.01501502,,,,,,,,,,,,,,,,,,,,,,,2,9,img/B09_02.jpg,MF,Press J if the face is MALE and K if the face is FEMALE, ,JK,,,,,,,,,,,,,,,,,,,,,,,,,,,,,,,,,,,,,,,,,,,,,,,,,,,,,225.354,0,15,15,90,1,109,0,0,0,0,1,98,,,,,,,,,,,,,,,,,,,,,,,,,,,,,,,,,,,,,,,,,,,,,,,,,,,,,,,,,,,,,,,,,,,,,,,,
,,,,361734,001,2024-02-02_11h38.55.467,fluency,2022.2.5,Win32,15.01501502,,,,,,,,,,,,,,,,,,,,,,,,,,,,,,,,,,,,,,,,,,,,,,,,,,,,,,,,,,,,,,,,,,,,,,,,,,,,,,,,,,,,,,,,,0,0,0,0,1,,"[""j""]",[0.8476000000238173],1,"[""j""]",[0.8475999999642454],,,,,,,,,,,,,,,,,,,,,,,,,,,,,,,,,,,,,,,,,,,,,,,,,,,,,,,,,,,,,,,,,,,
,,,,361734,001,2024-02-02_11h38.55.467,fluency,2022.2.5,Win32,15.01501502,,,,,,,,,,,,,,,,,,,,,,,2,9,img/B09_02.jpg,MF,Press J if the face is MALE and K if the face is FEMALE, ,JK,,,,,,,,,,,,,,,,,,,,,,,,,,,,,,,,,,,,,,,2,0.5082,,,,,,,,,,,,,,0,15,15,90,1,,,,,,,,,,,,,space,0.336,,,,,,,,,,,,,,,,,,,,,,,,,,,,,,,,,,,,,,,,,,,,,,,,,,,,,,,,,,,,,,,,,
,,,,361734,001,2024-02-02_11h38.55.467,fluency,2022.2.5,Win32,15.01501502,,,,,,,,,,,,,,,,,,,,,,,8,4,img/B04_08.jpg,MF,Press J if the face is MALE and K if the face is FEMALE, ,JK,,,,,,,,,,,,,,,,,,,,,,,,,,,,,,,,,,,,,,,,,,,,,,,,,,,,,231.4087,0,16,16,41,1,109,0,0,0,0,1,98,,,,,,,,,,,,,,,,,,,,,,,,,,,,,,,,,,,,,,,,,,,,,,,,,,,,,,,,,,,,,,,,,,,,,,,,
,,,,361734,001,2024-02-02_11h38.55.467,fluency,2022.2.5,Win32,15.01501502,,,,,,,,,,,,,,,,,,,,,,,,,,,,,,,,,,,,,,,,,,,,,,,,,,,,,,,,,,,,,,,,,,,,,,,,,,,,,,,,,,,,,,,,,0,0,0,0,1,,"[""k""]",[0.9833000000119227],1,"[""k""]",[0.9832000000476455],,,,,,,,,,,,,,,,,,,,,,,,,,,,,,,,,,,,,,,,,,,,,,,,,,,,,,,,,,,,,,,,,,,
,,,,361734,001,2024-02-02_11h38.55.467,fluency,2022.2.5,Win32,15.01501502,,,,,,,,,,,,,,,,,,,,,,,8,4,img/B04_08.jpg,MF,Press J if the face is MALE and K if the face is FEMALE, ,JK,,,,,,,,,,,,,,,,,,,,,,,,,,,,,,,,,,,,,,,3,0.5141,,,,,,,,,,,,,,0,16,16,41,1,,,,,,,,,,,,,space,0.432,,,,,,,,,,,,,,,,,,,,,,,,,,,,,,,,,,,,,,,,,,,,,,,,,,,,,,,,,,,,,,,,,
,,,,361734,001,2024-02-02_11h38.55.467,fluency,2022.2.5,Win32,15.01501502,,,,,,,,,,,,,,,,,,,,,,,0,2,img/B02_00.jpg,MF,Press J if the face is MALE and K if the face is FEMALE, ,JK,,,,,,,,,,,,,,,,,,,,,,,,,,,,,,,,,,,,,,,,,,,,,,,,,,,,,237.5245,0,17,17,11,1,109,0,0,0,0,1,98,,,,,,,,,,,,,,,,,,,,,,,,,,,,,,,,,,,,,,,,,,,,,,,,,,,,,,,,,,,,,,,,,,,,,,,,
,,,,361734,001,2024-02-02_11h38.55.467,fluency,2022.2.5,Win32,15.01501502,,,,,,,,,,,,,,,,,,,,,,,,,,,,,,,,,,,,,,,,,,,,,,,,,,,,,,,,,,,,,,,,,,,,,,,,,,,,,,,,,,,,,,,,,0,0,0,0,1,,"[""j""]",[0.6704000000357269],1,"[""j""]",[0.6704000000357269],,,,,,,,,,,,,,,,,,,,,,,,,,,,,,,,,,,,,,,,,,,,,,,,,,,,,,,,,,,,,,,,,,,
,,,,361734,001,2024-02-02_11h38.55.467,fluency,2022.2.5,Win32,15.01501502,,,,,,,,,,,,,,,,,,,,,,,0,2,img/B02_00.jpg,MF,Press J if the face is MALE and K if the face is FEMALE, ,JK,,,,,,,,,,,,,,,,,,,,,,,,,,,,,,,,,,,,,,,2,0.4198,,,,,,,,,,,,,,0,17,17,11,1,,,,,,,,,,,,,space,0.2609,,,,,,,,,,,,,,,,,,,,,,,,,,,,,,,,,,,,,,,,,,,,,,,,,,,,,,,,,,,,,,,,,
,,,,361734,001,2024-02-02_11h38.55.467,fluency,2022.2.5,Win32,15.01501502,,,,,,,,,,,,,,,,,,,,,,,6,9,img/B09_06.jpg,MF,Press J if the face is MALE and K if the face is FEMALE, ,JK,,,,,,,,,,,,,,,,,,,,,,,,,,,,,,,,,,,,,,,,,,,,,,,,,,,,,243.4024,0,18,18,94,1,109,0,0,0,0,1,98,,,,,,,,,,,,,,,,,,,,,,,,,,,,,,,,,,,,,,,,,,,,,,,,,,,,,,,,,,,,,,,,,,,,,,,,
,,,,361734,001,2024-02-02_11h38.55.467,fluency,2022.2.5,Win32,15.01501502,,,,,,,,,,,,,,,,,,,,,,,,,,,,,,,,,,,,,,,,,,,,,,,,,,,,,,,,,,,,,,,,,,,,,,,,,,,,,,,,,,,,,,,,,0,0,0,0,1,,"[""k""]",[0.7503000000119187],1,"[""k""]",[0.7503000000119187],,,,,,,,,,,,,,,,,,,,,,,,,,,,,,,,,,,,,,,,,,,,,,,,,,,,,,,,,,,,,,,,,,,
,,,,361734,001,2024-02-02_11h38.55.467,fluency,2022.2.5,Win32,15.01501502,,,,,,,,,,,,,,,,,,,,,,,6,9,img/B09_06.jpg,MF,Press J if the face is MALE and K if the face is FEMALE, ,JK,,,,,,,,,,,,,,,,,,,,,,,,,,,,,,,,,,,,,,,3,0.7625,,,,,,,,,,,,,,0,18,18,94,1,,,,,,,,,,,,,space,0.2695,,,,,,,,,,,,,,,,,,,,,,,,,,,,,,,,,,,,,,,,,,,,,,,,,,,,,,,,,,,,,,,,,
,,,,361734,001,2024-02-02_11h38.55.467,fluency,2022.2.5,Win32,15.01501502,,,,,,,,,,,,,,,,,,,,,,,9,7,img/B07_09.jpg,MF,Press J if the face is MALE and K if the face is FEMALE, ,JK,,,,,,,,,,,,,,,,,,,,,,,,,,,,,,,,,,,,,,,,,,,,,,,,,,,,,248.6064,0,19,19,75,1,109,0,0,0,0,1,98,,,,,,,,,,,,,,,,,,,,,,,,,,,,,,,,,,,,,,,,,,,,,,,,,,,,,,,,,,,,,,,,,,,,,,,,
,,,,361734,001,2024-02-02_11h38.55.467,fluency,2022.2.5,Win32,15.01501502,,,,,,,,,,,,,,,,,,,,,,,,,,,,,,,,,,,,,,,,,,,,,,,,,,,,,,,,,,,,,,,,,,,,,,,,,,,,,,,,,,,,,,,,,0,0,0,0,1,,"[""k""]",[0.7599999999999909],1,"[""k""]",[0.7599999999999909],,,,,,,,,,,,,,,,,,,,,,,,,,,,,,,,,,,,,,,,,,,,,,,,,,,,,,,,,,,,,,,,,,,
,,,,361734,001,2024-02-02_11h38.55.467,fluency,2022.2.5,Win32,15.01501502,,,,,,,,,,,,,,,,,,,,,,,9,7,img/B07_09.jpg,MF,Press J if the face is MALE and K if the face is FEMALE, ,JK,,,,,,,,,,,,,,,,,,,,,,,,,,,,,,,,,,,,,,,6,0.5156,,,,,,,,,,,,,,0,19,19,75,1,,,,,,,,,,,,,space,0.5933,,,,,,,,,,,,,,,,,,,,,,,,,,,,,,,,,,,,,,,,,,,,,,,,,,,,,,,,,,,,,,,,,
,,,,361734,001,2024-02-02_11h38.55.467,fluency,2022.2.5,Win32,15.01501502,,,,,,,,,,,,,,,,,,,,,,,6,1,img/B01_06.jpg,MF,Press J if the face is MALE and K if the face is FEMALE, ,JK,,,,,,,,,,,,,,,,,,,,,,,,,,,,,,,,,,,,,,,,,,,,,,,,,,,,,254.9098,0,20,20,6,1,109,0,0,0,0,1,98,,,,,,,,,,,,,,,,,,,,,,,,,,,,,,,,,,,,,,,,,,,,,,,,,,,,,,,,,,,,,,,,,,,,,,,,
,,,,361734,001,2024-02-02_11h38.55.467,fluency,2022.2.5,Win32,15.01501502,,,,,,,,,,,,,,,,,,,,,,,,,,,,,,,,,,,,,,,,,,,,,,,,,,,,,,,,,,,,,,,,,,,,,,,,,,,,,,,,,,,,,,,,,0,0,0,0,1,,"[""k""]",[1.8310999999642377],1,"[""k""]",[1.8311000000238664],,,,,,,,,,,,,,,,,,,,,,,,,,,,,,,,,,,,,,,,,,,,,,,,,,,,,,,,,,,,,,,,,,,
,,,,361734,001,2024-02-02_11h38.55.467,fluency,2022.2.5,Win32,15.01501502,,,,,,,,,,,,,,,,,,,,,,,6,1,img/B01_06.jpg,MF,Press J if the face is MALE and K if the face is FEMALE, ,JK,,,,,,,,,,,,,,,,,,,,,,,,,,,,,,,,,,,,,,,3,0.5018,,,,,,,,,,,,,,0,20,20,6,1,,,,,,,,,,,,,space,0.0892,,,,,,,,,,,,,,,,,,,,,,,,,,,,,,,,,,,,,,,,,,,,,,,,,,,,,,,,,,,,,,,,,
,,,,361734,001,2024-02-02_11h38.55.467,fluency,2022.2.5,Win32,15.01501502,,,,,,,,,,,,,,,,,,,,,,,7,9,img/B09_07.jpg,MF,Press J if the face is MALE and K if the face is FEMALE, ,JK,,,,,,,,,,,,,,,,,,,,,,,,,,,,,,,,,,,,,,,,,,,,,,,,,,,,,259.6864,0,21,21,95,1,109,0,0,0,0,1,98,,,,,,,,,,,,,,,,,,,,,,,,,,,,,,,,,,,,,,,,,,,,,,,,,,,,,,,,,,,,,,,,,,,,,,,,
,,,,361734,001,2024-02-02_11h38.55.467,fluency,2022.2.5,Win32,15.01501502,,,,,,,,,,,,,,,,,,,,,,,,,,,,,,,,,,,,,,,,,,,,,,,,,,,,,,,,,,,,,,,,,,,,,,,,,,,,,,,,,,,,,,,,,0,0,0,0,1,,"[""k""]",[0.7535999999641945],1,"[""k"",""3""]","[0.7535999999641945,1.8191999999880863]",,,,,,,,,,,,,,,,,,,,,,,,,,,,,,,,,,,,,,,,,,,,,,,,,,,,,,,,,,,,,,,,,,,
,,,,361734,001,2024-02-02_11h38.55.467,fluency,2022.2.5,Win32,15.01501502,,,,,,,,,,,,,,,,,,,,,,,7,9,img/B09_07.jpg,MF,Press J if the face is MALE and K if the face is FEMALE, ,JK,,,,,,,,,,,,,,,,,,,,,,,,,,,,,,,,,,,,,,,3,0.8378,,,,,,,,,,,,,,0,21,21,95,1,,,,,,,,,,,,,space,0.4349,,,,,,,,,,,,,,,,,,,,,,,,,,,,,,,,,,,,,,,,,,,,,,,,,,,,,,,,,,,,,,,,,
,,,,361734,001,2024-02-02_11h38.55.467,fluency,2022.2.5,Win32,15.01501502,,,,,,,,,,,,,,,,,,,,,,,3,6,img/B06_03.jpg,MF,Press J if the face is MALE and K if the face is FEMALE, ,JK,,,,,,,,,,,,,,,,,,,,,,,,,,,,,,,,,,,,,,,,,,,,,,,,,,,,,265.0801,0,22,22,58,1,109,0,0,0,0,1,98,,,,,,,,,,,,,,,,,,,,,,,,,,,,,,,,,,,,,,,,,,,,,,,,,,,,,,,,,,,,,,,,,,,,,,,,
,,,,361734,001,2024-02-02_11h38.55.467,fluency,2022.2.5,Win32,15.01501502,,,,,,,,,,,,,,,,,,,,,,,,,,,,,,,,,,,,,,,,,,,,,,,,,,,,,,,,,,,,,,,,,,,,,,,,,,,,,,,,,,,,,,,,,0,0,0,0,1,,"[""j""]",[0.9950000000000045],1,"[""j""]",[0.9950000000000045],,,,,,,,,,,,,,,,,,,,,,,,,,,,,,,,,,,,,,,,,,,,,,,,,,,,,,,,,,,,,,,,,,,
,,,,361734,001,2024-02-02_11h38.55.467,fluency,2022.2.5,Win32,15.01501502,,,,,,,,,,,,,,,,,,,,,,,3,6,img/B06_03.jpg,MF,Press J if the face is MALE and K if the face is FEMALE, ,JK,,,,,,,,,,,,,,,,,,,,,,,,,,,,,,,,,,,,,,,2,0.763,,,,,,,,,,,,,,0,22,22,58,1,,,,,,,,,,,,,space,0.3416,,,,,,,,,,,,,,,,,,,,,,,,,,,,,,,,,,,,,,,,,,,,,,,,,,,,,,,,,,,,,,,,,
,,,,361734,001,2024-02-02_11h38.55.467,fluency,2022.2.5,Win32,15.01501502,,,,,,,,,,,,,,,,,,,,,,,9,9,img/B09_09.jpg,MF,Press J if the face is MALE and K if the face is FEMALE, ,JK,,,,,,,,,,,,,,,,,,,,,,,,,,,,,,,,,,,,,,,,,,,,,,,,,,,,,270.3728,0,23,23,97,1,109,0,0,0,0,1,98,,,,,,,,,,,,,,,,,,,,,,,,,,,,,,,,,,,,,,,,,,,,,,,,,,,,,,,,,,,,,,,,,,,,,,,,
,,,,361734,001,2024-02-02_11h38.55.467,fluency,2022.2.5,Win32,15.01501502,,,,,,,,,,,,,,,,,,,,,,,,,,,,,,,,,,,,,,,,,,,,,,,,,,,,,,,,,,,,,,,,,,,,,,,,,,,,,,,,,,,,,,,,,0,0,0,0,1,,"[""k""]",[1.3556000000238555],1,"[""k""]",[1.3556000000238555],,,,,,,,,,,,,,,,,,,,,,,,,,,,,,,,,,,,,,,,,,,,,,,,,,,,,,,,,,,,,,,,,,,
,,,,361734,001,2024-02-02_11h38.55.467,fluency,2022.2.5,Win32,15.01501502,,,,,,,,,,,,,,,,,,,,,,,9,9,img/B09_09.jpg,MF,Press J if the face is MALE and K if the face is FEMALE, ,JK,,,,,,,,,,,,,,,,,,,,,,,,,,,,,,,,,,,,,,,3,0.5099,,,,,,,,,,,,,,0,23,23,97,1,,,,,,,,,,,,,space,0.2592,,,,,,,,,,,,,,,,,,,,,,,,,,,,,,,,,,,,,,,,,,,,,,,,,,,,,,,,,,,,,,,,,
,,,,361734,001,2024-02-02_11h38.55.467,fluency,2022.2.5,Win32,15.01501502,,,,,,,,,,,,,,,,,,,,,,,3,8,img/B08_03.jpg,MF,Press J if the face is MALE and K if the face is FEMALE, ,JK,,,,,,,,,,,,,,,,,,,,,,,,,,,,,,,,,,,,,,,,,,,,,,,,,,,,,276.3545,0,24,24,80,1,109,0,0,0,0,1,98,,,,,,,,,,,,,,,,,,,,,,,,,,,,,,,,,,,,,,,,,,,,,,,,,,,,,,,,,,,,,,,,,,,,,,,,
,,,,361734,001,2024-02-02_11h38.55.467,fluency,2022.2.5,Win32,15.01501502,,,,,,,,,,,,,,,,,,,,,,,,,,,,,,,,,,,,,,,,,,,,,,,,,,,,,,,,,,,,,,,,,,,,,,,,,,,,,,,,,,,,,,,,,0,0,0,0,1,,"[""j""]",[2.488100000023792],1,"[""j""]",[2.488100000023792],,,,,,,,,,,,,,,,,,,,,,,,,,,,,,,,,,,,,,,,,,,,,,,,,,,,,,,,,,,,,,,,,,,
,,,,361734,001,2024-02-02_11h38.55.467,fluency,2022.2.5,Win32,15.01501502,,,,,,,,,,,,,,,,,,,,,,,3,8,img/B08_03.jpg,MF,Press J if the face is MALE and K if the face is FEMALE, ,JK,,,,,,,,,,,,,,,,,,,,,,,,,,,,,,,,,,,,,,,2,1.0947,,,,,,,,,,,,,,0,24,24,80,1,,,,,,,,,,,,,space,0.1775,,,,,,,,,,,,,,,,,,,,,,,,,,,,,,,,,,,,,,,,,,,,,,,,,,,,,,,,,,,,,,,,,
,,,,361734,001,2024-02-02_11h38.55.467,fluency,2022.2.5,Win32,15.01501502,,,,,,,,,,,,,,,,,,,,,,,6,2,img/B02_06.jpg,MF,Press J if the face is MALE and K if the face is FEMALE, ,JK,,,,,,,,,,,,,,,,,,,,,,,,,,,,,,,,,,,,,,,,,,,,,,,,,,,,,282.7466,0,25,25,17,1,109,0,0,0,0,1,98,,,,,,,,,,,,,,,,,,,,,,,,,,,,,,,,,,,,,,,,,,,,,,,,,,,,,,,,,,,,,,,,,,,,,,,,
,,,,361734,001,2024-02-02_11h38.55.467,fluency,2022.2.5,Win32,15.01501502,,,,,,,,,,,,,,,,,,,,,,,,,,,,,,,,,,,,,,,,,,,,,,,,,,,,,,,,,,,,,,,,,,,,,,,,,,,,,,,,,,,,,,,,,0,0,0,0,1,,"[""k""]",[1.0146000000238473],1,"[""k""]",[1.0146000000238473],,,,,,,,,,,,,,,,,,,,,,,,,,,,,,,,,,,,,,,,,,,,,,,,,,,,,,,,,,,,,,,,,,,
,,,,361734,001,2024-02-02_11h38.55.467,fluency,2022.2.5,Win32,15.01501502,,,,,,,,,,,,,,,,,,,,,,,6,2,img/B02_06.jpg,MF,Press J if the face is MALE and K if the face is FEMALE, ,JK,,,,,,,,,,,,,,,,,,,,,,,,,,,,,,,,,,,,,,,2,0.4159,,,,,,,,,,,,,,0,25,25,17,1,,,,,,,,,,,,,space,0.341,,,,,,,,,,,,,,,,,,,,,,,,,,,,,,,,,,,,,,,,,,,,,,,,,,,,,,,,,,,,,,,,,
,,,,361734,001,2024-02-02_11h38.55.467,fluency,2022.2.5,Win32,15.01501502,,,,,,,,,,,,,,,,,,,,,,,9,5,img/B05_09.jpg,MF,Press J if the face is MALE and K if the face is FEMALE, ,JK,,,,,,,,,,,,,,,,,,,,,,,,,,,,,,,,,,,,,,,,,,,,,,,,,,,,,287.676,0,26,26,53,1,109,0,0,0,0,1,98,,,,,,,,,,,,,,,,,,,,,,,,,,,,,,,,,,,,,,,,,,,,,,,,,,,,,,,,,,,,,,,,,,,,,,,,
,,,,361734,001,2024-02-02_11h38.55.467,fluency,2022.2.5,Win32,15.01501502,,,,,,,,,,,,,,,,,,,,,,,,,,,,,,,,,,,,,,,,,,,,,,,,,,,,,,,,,,,,,,,,,,,,,,,,,,,,,,,,,,,,,,,,,0,0,0,0,1,,"[""k""]",[0.8557999999523531],1,"[""k""]",[0.8557999999523531],,,,,,,,,,,,,,,,,,,,,,,,,,,,,,,,,,,,,,,,,,,,,,,,,,,,,,,,,,,,,,,,,,,
,,,,361734,001,2024-02-02_11h38.55.467,fluency,2022.2.5,Win32,15.01501502,,,,,,,,,,,,,,,,,,,,,,,9,5,img/B05_09.jpg,MF,Press J if the face is MALE and K if the face is FEMALE, ,JK,,,,,,,,,,,,,,,,,,,,,,,,,,,,,,,,,,,,,,,3,0.5018,,,,,,,,,,,,,,0,26,26,53,1,,,,,,,,,,,,,space,0.3415,,,,,,,,,,,,,,,,,,,,,,,,,,,,,,,,,,,,,,,,,,,,,,,,,,,,,,,,,,,,,,,,,
,,,,361734,001,2024-02-02_11h38.55.467,fluency,2022.2.5,Win32,15.01501502,,,,,,,,,,,,,,,,,,,,,,,1,7,img/B07_01.jpg,MF,Press J if the face is MALE and K if the face is FEMALE, ,JK,,,,,,,,,,,,,,,,,,,,,,,,,,,,,,,,,,,,,,,,,,,,,,,,,,,,,293.7003,0,27,27,67,1,109,0,0,0,0,1,98,,,,,,,,,,,,,,,,,,,,,,,,,,,,,,,,,,,,,,,,,,,,,,,,,,,,,,,,,,,,,,,,,,,,,,,,
,,,,361734,001,2024-02-02_11h38.55.467,fluency,2022.2.5,Win32,15.01501502,,,,,,,,,,,,,,,,,,,,,,,,,,,,,,,,,,,,,,,,,,,,,,,,,,,,,,,,,,,,,,,,,,,,,,,,,,,,,,,,,,,,,,,,,0,0,0,0,1,,"[""j""]",[0.8351999999880491],1,"[""j""]",[0.8350999999641999],,,,,,,,,,,,,,,,,,,,,,,,,,,,,,,,,,,,,,,,,,,,,,,,,,,,,,,,,,,,,,,,,,,
,,,,361734,001,2024-02-02_11h38.55.467,fluency,2022.2.5,Win32,15.01501502,,,,,,,,,,,,,,,,,,,,,,,1,7,img/B07_01.jpg,MF,Press J if the face is MALE and K if the face is FEMALE, ,JK,,,,,,,,,,,,,,,,,,,,,,,,,,,,,,,,,,,,,,,1,0.4305,,,,,,,,,,,,,,0,27,27,67,1,,,,,,,,,,,,,space,0.849,,,,,,,,,,,,,,,,,,,,,,,,,,,,,,,,,,,,,,,,,,,,,,,,,,,,,,,,,,,,,,,,,
,,,,361734,001,2024-02-02_11h38.55.467,fluency,2022.2.5,Win32,15.01501502,,,,,,,,,,,,,,,,,,,,,,,4,3,img/B03_04.jpg,MF,Press J if the face is MALE and K if the face is FEMALE, ,JK,,,,,,,,,,,,,,,,,,,,,,,,,,,,,,,,,,,,,,,,,,,,,,,,,,,,,300.1888,0,28,28,26,1,109,0,0,0,0,1,98,,,,,,,,,,,,,,,,,,,,,,,,,,,,,,,,,,,,,,,,,,,,,,,,,,,,,,,,,,,,,,,,,,,,,,,,
,,,,361734,001,2024-02-02_11h38.55.467,fluency,2022.2.5,Win32,15.01501502,,,,,,,,,,,,,,,,,,,,,,,,,,,,,,,,,,,,,,,,,,,,,,,,,,,,,,,,,,,,,,,,,,,,,,,,,,,,,,,,,,,,,,,,,0,0,0,0,1,,"[""j""]",[1.0761000000238141],1,"[""j""]",[1.0761000000238141],,,,,,,,,,,,,,,,,,,,,,,,,,,,,,,,,,,,,,,,,,,,,,,,,,,,,,,,,,,,,,,,,,,
,,,,361734,001,2024-02-02_11h38.55.467,fluency,2022.2.5,Win32,15.01501502,,,,,,,,,,,,,,,,,,,,,,,4,3,img/B03_04.jpg,MF,Press J if the face is MALE and K if the face is FEMALE, ,JK,,,,,,,,,,,,,,,,,,,,,,,,,,,,,,,,,,,,,,,2,0.4087,,,,,,,,,,,,,,0,28,28,26,1,,,,,,,,,,,,,space,0.5119,,,,,,,,,,,,,,,,,,,,,,,,,,,,,,,,,,,,,,,,,,,,,,,,,,,,,,,,,,,,,,,,,
,,,,361734,001,2024-02-02_11h38.55.467,fluency,2022.2.5,Win32,15.01501502,,,,,,,,,,,,,,,,,,,,,,,2,3,img/B03_02.jpg,MF,Press J if the face is MALE and K if the face is FEMALE, ,JK,,,,,,,,,,,,,,,,,,,,,,,,,,,,,,,,,,,,,,,,,,,,,,,,,,,,,305.2473,0,29,29,24,1,109,0,0,0,0,1,98,,,,,,,,,,,,,,,,,,,,,,,,,,,,,,,,,,,,,,,,,,,,,,,,,,,,,,,,,,,,,,,,,,,,,,,,
,,,,361734,001,2024-02-02_11h38.55.467,fluency,2022.2.5,Win32,15.01501502,,,,,,,,,,,,,,,,,,,,,,,,,,,,,,,,,,,,,,,,,,,,,,,,,,,,,,,,,,,,,,,,,,,,,,,,,,,,,,,,,,,,,,,,,0,0,0,0,1,,"[""j""]",[0.7536999999881004],1,"[""j""]",[0.7538000000118927],,,,,,,,,,,,,,,,,,,,,,,,,,,,,,,,,,,,,,,,,,,,,,,,,,,,,,,,,,,,,,,,,,,
,,,,361734,001,2024-02-02_11h38.55.467,fluency,2022.2.5,Win32,15.01501502,,,,,,,,,,,,,,,,,,,,,,,2,3,img/B03_02.jpg,MF,Press J if the face is MALE and K if the face is FEMALE, ,JK,,,,,,,,,,,,,,,,,,,,,,,,,,,,,,,,,,,,,,,2,1.0197,,,,,,,,,,,,,,0,29,29,24,1,,,,,,,,,,,,,space,0.3479,,,,,,,,,,,,,,,,,,,,,,,,,,,,,,,,,,,,,,,,,,,,,,,,,,,,,,,,,,,,,,,,,
,,,,361734,001,2024-02-02_11h38.55.467,fluency,2022.2.5,Win32,15.01501502,,,,,,,,,,,,,,,,,,,,,,,3,5,img/B05_03.jpg,MF,Press J if the face is MALE and K if the face is FEMALE, ,JK,,,,,,,,,,,,,,,,,,,,,,,,,,,,,,,,,,,,,,,,,,,,,,,,,,,,,311.7751,0,30,30,47,1,109,0,0,0,0,1,98,,,,,,,,,,,,,,,,,,,,,,,,,,,,,,,,,,,,,,,,,,,,,,,,,,,,,,,,,,,,,,,,,,,,,,,,
,,,,361734,001,2024-02-02_11h38.55.467,fluency,2022.2.5,Win32,15.01501502,,,,,,,,,,,,,,,,,,,,,,,,,,,,,,,,,,,,,,,,,,,,,,,,,,,,,,,,,,,,,,,,,,,,,,,,,,,,,,,,,,,,,,,,,0,0,0,0,1,,"[""j""]",[1.3290000000000077],1,"[""j""]",[1.3288999999761586],,,,,,,,,,,,,,,,,,,,,,,,,,,,,,,,,,,,,,,,,,,,,,,,,,,,,,,,,,,,,,,,,,,
,,,,361734,001,2024-02-02_11h38.55.467,fluency,2022.2.5,Win32,15.01501502,,,,,,,,,,,,,,,,,,,,,,,3,5,img/B05_03.jpg,MF,Press J if the face is MALE and K if the face is FEMALE, ,JK,,,,,,,,,,,,,,,,,,,,,,,,,,,,,,,,,,,,,,,2,0.4867,,,,,,,,,,,,,,0,30,30,47,1,,,,,,,,,,,,,space,0.5052,,,,,,,,,,,,,,,,,,,,,,,,,,,,,,,,,,,,,,,,,,,,,,,,,,,,,,,,,,,,,,,,,
,,,,361734,001,2024-02-02_11h38.55.467,fluency,2022.2.5,Win32,15.01501502,,,,,,,,,,,,,,,,,,,,,,,10,2,img/B02_10.jpg,MF,Press J if the face is MALE and K if the face is FEMALE, ,JK,,,,,,,,,,,,,,,,,,,,,,,,,,,,,,,,,,,,,,,,,,,,,,,,,,,,,316.9029,0,31,31,21,1,109,0,0,0,0,1,98,,,,,,,,,,,,,,,,,,,,,,,,,,,,,,,,,,,,,,,,,,,,,,,,,,,,,,,,,,,,,,,,,,,,,,,,
,,,,361734,001,2024-02-02_11h38.55.467,fluency,2022.2.5,Win32,15.01501502,,,,,,,,,,,,,,,,,,,,,,,,,,,,,,,,,,,,,,,,,,,,,,,,,,,,,,,,,,,,,,,,,,,,,,,,,,,,,,,,,,,,,,,,,0,0,0,0,1,,"[""k""]",[0.7753000000118959],1,"[""k""]",[0.7753000000118959],,,,,,,,,,,,,,,,,,,,,,,,,,,,,,,,,,,,,,,,,,,,,,,,,,,,,,,,,,,,,,,,,,,
,,,,361734,001,2024-02-02_11h38.55.467,fluency,2022.2.5,Win32,15.01501502,,,,,,,,,,,,,,,,,,,,,,,10,2,img/B02_10.jpg,MF,Press J if the face is MALE and K if the face is FEMALE, ,JK,,,,,,,,,,,,,,,,,,,,,,,,,,,,,,,,,,,,,,,3,0.4107,,,,,,,,,,,,,,0,31,31,21,1,,,,,,,,,,,,,space,0.4352,,,,,,,,,,,,,,,,,,,,,,,,,,,,,,,,,,,,,,,,,,,,,,,,,,,,,,,,,,,,,,,,,
,,,,361734,001,2024-02-02_11h38.55.467,fluency,2022.2.5,Win32,15.01501502,,,,,,,,,,,,,,,,,,,,,,,9,6,img/B06_09.jpg,MF,Press J if the face is MALE and K if the face is FEMALE, ,JK,,,,,,,,,,,,,,,,,,,,,,,,,,,,,,,,,,,,,,,,,,,,,,,,,,,,,322.9713,0,32,32,64,1,109,0,0,0,0,1,98,,,,,,,,,,,,,,,,,,,,,,,,,,,,,,,,,,,,,,,,,,,,,,,,,,,,,,,,,,,,,,,,,,,,,,,,
,,,,361734,001,2024-02-02_11h38.55.467,fluency,2022.2.5,Win32,15.01501502,,,,,,,,,,,,,,,,,,,,,,,,,,,,,,,,,,,,,,,,,,,,,,,,,,,,,,,,,,,,,,,,,,,,,,,,,,,,,,,,,,,,,,,,,0,0,0,0,1,,"[""k""]",[0.7729000000358042],1,"[""k""]",[0.7729000000358042],,,,,,,,,,,,,,,,,,,,,,,,,,,,,,,,,,,,,,,,,,,,,,,,,,,,,,,,,,,,,,,,,,,
,,,,361734,001,2024-02-02_11h38.55.467,fluency,2022.2.5,Win32,15.01501502,,,,,,,,,,,,,,,,,,,,,,,9,6,img/B06_09.jpg,MF,Press J if the face is MALE and K if the face is FEMALE, ,JK,,,,,,,,,,,,,,,,,,,,,,,,,,,,,,,,,,,,,,,2,0.5158,,,,,,,,,,,,,,0,32,32,64,1,,,,,,,,,,,,,space,0.3343,,,,,,,,,,,,,,,,,,,,,,,,,,,,,,,,,,,,,,,,,,,,,,,,,,,,,,,,,,,,,,,,,
,,,,361734,001,2024-02-02_11h38.55.467,fluency,2022.2.5,Win32,15.01501502,,,,,,,,,,,,,,,,,,,,,,,7,3,img/B03_07.jpg,MF,Press J if the face is MALE and K if the face is FEMALE, ,JK,,,,,,,,,,,,,,,,,,,,,,,,,,,,,,,,,,,,,,,,,,,,,,,,,,,,,328.0024,0,33,33,29,1,109,0,0,0,0,1,98,,,,,,,,,,,,,,,,,,,,,,,,,,,,,,,,,,,,,,,,,,,,,,,,,,,,,,,,,,,,,,,,,,,,,,,,
,,,,361734,001,2024-02-02_11h38.55.467,fluency,2022.2.5,Win32,15.01501502,,,,,,,,,,,,,,,,,,,,,,,,,,,,,,,,,,,,,,,,,,,,,,,,,,,,,,,,,,,,,,,,,,,,,,,,,,,,,,,,,,,,,,,,,0,0,0,0,1,,"[""k""]",[1.2578999999761322],1,"[""k""]",[1.2578999999761322],,,,,,,,,,,,,,,,,,,,,,,,,,,,,,,,,,,,,,,,,,,,,,,,,,,,,,,,,,,,,,,,,,,
,,,,361734,001,2024-02-02_11h38.55.467,fluency,2022.2.5,Win32,15.01501502,,,,,,,,,,,,,,,,,,,,,,,7,3,img/B03_07.jpg,MF,Press J if the face is MALE and K if the face is FEMALE, ,JK,,,,,,,,,,,,,,,,,,,,,,,,,,,,,,,,,,,,,,,3,0.4189,,,,,,,,,,,,,,0,33,33,29,1,,,,,,,,,,,,,space,0.3372,,,,,,,,,,,,,,,,,,,,,,,,,,,,,,,,,,,,,,,,,,,,,,,,,,,,,,,,,,,,,,,,,
,,,,361734,001,2024-02-02_11h38.55.467,fluency,2022.2.5,Win32,15.01501502,,,,,,,,,,,,,,,,,,,,,,,2,6,img/B06_02.jpg,MF,Press J if the face is MALE and K if the face is FEMALE, ,JK,,,,,,,,,,,,,,,,,,,,,,,,,,,,,,,,,,,,,,,,,,,,,,,,,,,,,332.925,0,34,34,57,1,109,0,0,0,0,1,98,,,,,,,,,,,,,,,,,,,,,,,,,,,,,,,,,,,,,,,,,,,,,,,,,,,,,,,,,,,,,,,,,,,,,,,,
,,,,361734,001,2024-02-02_11h38.55.467,fluency,2022.2.5,Win32,15.01501502,,,,,,,,,,,,,,,,,,,,,,,,,,,,,,,,,,,,,,,,,,,,,,,,,,,,,,,,,,,,,,,,,,,,,,,,,,,,,,,,,,,,,,,,,0,0,0,0,1,,"[""j""]",[0.8519000000357551],1,"[""j""]",[0.8519000000357551],,,,,,,,,,,,,,,,,,,,,,,,,,,,,,,,,,,,,,,,,,,,,,,,,,,,,,,,,,,,,,,,,,,
,,,,361734,001,2024-02-02_11h38.55.467,fluency,2022.2.5,Win32,15.01501502,,,,,,,,,,,,,,,,,,,,,,,2,6,img/B06_02.jpg,MF,Press J if the face is MALE and K if the face is FEMALE, ,JK,,,,,,,,,,,,,,,,,,,,,,,,,,,,,,,,,,,,,,,2,0.4184,,,,,,,,,,,,,,0,34,34,57,1,,,,,,,,,,,,,space,0.1692,,,,,,,,,,,,,,,,,,,,,,,,,,,,,,,,,,,,,,,,,,,,,,,,,,,,,,,,,,,,,,,,,
,,,,361734,001,2024-02-02_11h38.55.467,fluency,2022.2.5,Win32,15.01501502,,,,,,,,,,,,,,,,,,,,,,,7,10,img/B10_07.jpg,MF,Press J if the face is MALE and K if the face is FEMALE, ,JK,,,,,,,,,,,,,,,,,,,,,,,,,,,,,,,,,,,,,,,,,,,,,,,,,,,,,337.6334,0,35,35,106,1,109,0,0,0,0,1,98,,,,,,,,,,,,,,,,,,,,,,,,,,,,,,,,,,,,,,,,,,,,,,,,,,,,,,,,,,,,,,,,,,,,,,,,
,,,,361734,001,2024-02-02_11h38.55.467,fluency,2022.2.5,Win32,15.01501502,,,,,,,,,,,,,,,,,,,,,,,,,,,,,,,,,,,,,,,,,,,,,,,,,,,,,,,,,,,,,,,,,,,,,,,,,,,,,,,,,,,,,,,,,0,0,0,0,1,,"[""k""]",[1.126300000011895],1,"[""k""]",[1.1261999999880459],,,,,,,,,,,,,,,,,,,,,,,,,,,,,,,,,,,,,,,,,,,,,,,,,,,,,,,,,,,,,,,,,,,
,,,,361734,001,2024-02-02_11h38.55.467,fluency,2022.2.5,Win32,15.01501502,,,,,,,,,,,,,,,,,,,,,,,7,10,img/B10_07.jpg,MF,Press J if the face is MALE and K if the face is FEMALE, ,JK,,,,,,,,,,,,,,,,,,,,,,,,,,,,,,,,,,,,,,,2,0.6618,,,,,,,,,,,,,,0,35,35,106,1,,,,,,,,,,,,,space,0.2488,,,,,,,,,,,,,,,,,,,,,,,,,,,,,,,,,,,,,,,,,,,,,,,,,,,,,,,,,,,,,,,,,
,,,,361734,001,2024-02-02_11h38.55.467,fluency,2022.2.5,Win32,15.01501502,,,,,,,,,,,,,,,,,,,,,,,2,8,img/B08_02.jpg,MF,Press J if the face is MALE and K if the face is FEMALE, ,JK,,,,,,,,,,,,,,,,,,,,,,,,,,,,,,,,,,,,,,,,,,,,,,,,,,,,,343.7599,0,36,36,79,1,109,0,0,0,0,1,98,,,,,,,,,,,,,,,,,,,,,,,,,,,,,,,,,,,,,,,,,,,,,,,,,,,,,,,,,,,,,,,,,,,,,,,,
,,,,361734,001,2024-02-02_11h38.55.467,fluency,2022.2.5,Win32,15.01501502,,,,,,,,,,,,,,,,,,,,,,,,,,,,,,,,,,,,,,,,,,,,,,,,,,,,,,,,,,,,,,,,,,,,,,,,,,,,,,,,,,,,,,,,,0,0,0,0,1,,"[""k""]",[2.075499999999977],1,"[""k""]",[2.075499999999977],,,,,,,,,,,,,,,,,,,,,,,,,,,,,,,,,,,,,,,,,,,,,,,,,,,,,,,,,,,,,,,,,,,
,,,,361734,001,2024-02-02_11h38.55.467,fluency,2022.2.5,Win32,15.01501502,,,,,,,,,,,,,,,,,,,,,,,2,8,img/B08_02.jpg,MF,Press J if the face is MALE and K if the face is FEMALE, ,JK,,,,,,,,,,,,,,,,,,,,,,,,,,,,,,,,,,,,,,,2,0.7056,,,,,,,,,,,,,,0,36,36,79,1,,,,,,,,,,,,,space,0.1907,,,,,,,,,,,,,,,,,,,,,,,,,,,,,,,,,,,,,,,,,,,,,,,,,,,,,,,,,,,,,,,,,
,,,,361734,001,2024-02-02_11h38.55.467,fluency,2022.2.5,Win32,15.01501502,,,,,,,,,,,,,,,,,,,,,,,4,8,img/B08_04.jpg,MF,Press J if the face is MALE and K if the face is FEMALE, ,JK,,,,,,,,,,,,,,,,,,,,,,,,,,,,,,,,,,,,,,,,,,,,,,,,,,,,,349.8821,0,37,37,81,1,109,0,0,0,0,1,98,,,,,,,,,,,,,,,,,,,,,,,,,,,,,,,,,,,,,,,,,,,,,,,,,,,,,,,,,,,,,,,,,,,,,,,,
,,,,361734,001,2024-02-02_11h38.55.467,fluency,2022.2.5,Win32,15.01501502,,,,,,,,,,,,,,,,,,,,,,,,,,,,,,,,,,,,,,,,,,,,,,,,,,,,,,,,,,,,,,,,,,,,,,,,,,,,,,,,,,,,,,,,,0,0,0,0,1,,"[""j""]",[2.319899999976144],1,"[""j""]",[2.319899999976144],,,,,,,,,,,,,,,,,,,,,,,,,,,,,,,,,,,,,,,,,,,,,,,,,,,,,,,,,,,,,,,,,,,
,,,,361734,001,2024-02-02_11h38.55.467,fluency,2022.2.5,Win32,15.01501502,,,,,,,,,,,,,,,,,,,,,,,4,8,img/B08_04.jpg,MF,Press J if the face is MALE and K if the face is FEMALE, ,JK,,,,,,,,,,,,,,,,,,,,,,,,,,,,,,,,,,,,,,,1,0.3556,,,,,,,,,,,,,,0,37,37,81,1,,,,,,,,,,,,,space,0.179,,,,,,,,,,,,,,,,,,,,,,,,,,,,,,,,,,,,,,,,,,,,,,,,,,,,,,,,,,,,,,,,,
,,,,361734,001,2024-02-02_11h38.55.467,fluency,2022.2.5,Win32,15.01501502,,,,,,,,,,,,,,,,,,,,,,,3,1,img/B01_03.jpg,MF,Press J if the face is MALE and K if the face is FEMALE, ,JK,,,,,,,,,,,,,,,,,,,,,,,,,,,,,,,,,,,,,,,,,,,,,,,,,,,,,355.5795,0,38,38,3,1,109,0,0,0,0,1,98,,,,,,,,,,,,,,,,,,,,,,,,,,,,,,,,,,,,,,,,,,,,,,,,,,,,,,,,,,,,,,,,,,,,,,,,
,,,,361734,001,2024-02-02_11h38.55.467,fluency,2022.2.5,Win32,15.01501502,,,,,,,,,,,,,,,,,,,,,,,,,,,,,,,,,,,,,,,,,,,,,,,,,,,,,,,,,,,,,,,,,,,,,,,,,,,,,,,,,,,,,,,,,0,0,0,0,1,,"[""j""]",[1.0328999999761663],1,"[""j""]",[1.032800000011946],,,,,,,,,,,,,,,,,,,,,,,,,,,,,,,,,,,,,,,,,,,,,,,,,,,,,,,,,,,,,,,,,,,
,,,,361734,001,2024-02-02_11h38.55.467,fluency,2022.2.5,Win32,15.01501502,,,,,,,,,,,,,,,,,,,,,,,3,1,img/B01_03.jpg,MF,Press J if the face is MALE and K if the face is FEMALE, ,JK,,,,,,,,,,,,,,,,,,,,,,,,,,,,,,,,,,,,,,,1,0.4114,,,,,,,,,,,,,,0,38,38,3,1,,,,,,,,,,,,,space,0.2724,,,,,,,,,,,,,,,,,,,,,,,,,,,,,,,,,,,,,,,,,,,,,,,,,,,,,,,,,,,,,,,,,
,,,,361734,001,2024-02-02_11h38.55.467,fluency,2022.2.5,Win32,15.01501502,,,,,,,,,,,,,,,,,,,,,,,8,2,img/B02_08.jpg,MF,Press J if the face is MALE and K if the face is FEMALE, ,JK,,,,,,,,,,,,,,,,,,,,,,,,,,,,,,,,,,,,,,,,,,,,,,,,,,,,,360.4592,0,39,39,19,1,109,0,0,0,0,1,98,,,,,,,,,,,,,,,,,,,,,,,,,,,,,,,,,,,,,,,,,,,,,,,,,,,,,,,,,,,,,,,,,,,,,,,,
,,,,361734,001,2024-02-02_11h38.55.467,fluency,2022.2.5,Win32,15.01501502,,,,,,,,,,,,,,,,,,,,,,,,,,,,,,,,,,,,,,,,,,,,,,,,,,,,,,,,,,,,,,,,,,,,,,,,,,,,,,,,,,,,,,,,,0,0,0,0,1,,"[""k""]",[1.1105000000000018],1,"[""k""]",[1.1105000000000018],,,,,,,,,,,,,,,,,,,,,,,,,,,,,,,,,,,,,,,,,,,,,,,,,,,,,,,,,,,,,,,,,,,
,,,,361734,001,2024-02-02_11h38.55.467,fluency,2022.2.5,Win32,15.01501502,,,,,,,,,,,,,,,,,,,,,,,8,2,img/B02_08.jpg,MF,Press J if the face is MALE and K if the face is FEMALE, ,JK,,,,,,,,,,,,,,,,,,,,,,,,,,,,,,,,,,,,,,,2,0.344,,,,,,,,,,,,,,0,39,39,19,1,,,,,,,,,,,,,space,0.1836,,,,,,,,,,,,,,,,,,,,,,,,,,,,,,,,,,,,,,,,,,,,,,,,,,,,,,,,,,,,,,,,,
,,,,361734,001,2024-02-02_11h38.55.467,fluency,2022.2.5,Win32,15.01501502,,,,,,,,,,,,,,,,,,,,,,,5,1,img/B01_05.jpg,MF,Press J if the face is MALE and K if the face is FEMALE, ,JK,,,,,,,,,,,,,,,,,,,,,,,,,,,,,,,,,,,,,,,,,,,,,,,,,,,,,365.1385,0,40,40,5,1,109,0,0,0,0,1,98,,,,,,,,,,,,,,,,,,,,,,,,,,,,,,,,,,,,,,,,,,,,,,,,,,,,,,,,,,,,,,,,,,,,,,,,
,,,,361734,001,2024-02-02_11h38.55.467,fluency,2022.2.5,Win32,15.01501502,,,,,,,,,,,,,,,,,,,,,,,,,,,,,,,,,,,,,,,,,,,,,,,,,,,,,,,,,,,,,,,,,,,,,,,,,,,,,,,,,,,,,,,,,0,0,0,0,1,,"[""j""]",[1.0421999999880995],1,"[""j""]",[1.0421999999880995],,,,,,,,,,,,,,,,,,,,,,,,,,,,,,,,,,,,,,,,,,,,,,,,,,,,,,,,,,,,,,,,,,,
,,,,361734,001,2024-02-02_11h38.55.467,fluency,2022.2.5,Win32,15.01501502,,,,,,,,,,,,,,,,,,,,,,,5,1,img/B01_05.jpg,MF,Press J if the face is MALE and K if the face is FEMALE, ,JK,,,,,,,,,,,,,,,,,,,,,,,,,,,,,,,,,,,,,,,1,0.3405,,,,,,,,,,,,,,0,40,40,5,1,,,,,,,,,,,,,space,0.2573,,,,,,,,,,,,,,,,,,,,,,,,,,,,,,,,,,,,,,,,,,,,,,,,,,,,,,,,,,,,,,,,,
,,,,361734,001,2024-02-02_11h38.55.467,fluency,2022.2.5,Win32,15.01501502,,,,,,,,,,,,,,,,,,,,,,,10,1,img/B01_10.jpg,MF,Press J if the face is MALE and K if the face is FEMALE, ,JK,,,,,,,,,,,,,,,,,,,,,,,,,,,,,,,,,,,,,,,,,,,,,,,,,,,,,370.9233,0,41,41,10,1,109,0,0,0,0,1,98,,,,,,,,,,,,,,,,,,,,,,,,,,,,,,,,,,,,,,,,,,,,,,,,,,,,,,,,,,,,,,,,,,,,,,,,
,,,,361734,001,2024-02-02_11h38.55.467,fluency,2022.2.5,Win32,15.01501502,,,,,,,,,,,,,,,,,,,,,,,,,,,,,,,,,,,,,,,,,,,,,,,,,,,,,,,,,,,,,,,,,,,,,,,,,,,,,,,,,,,,,,,,,0,0,0,0,1,,"[""k""]",[1.1341000000238068],1,"[""k""]",[1.1341000000238068],,,,,,,,,,,,,,,,,,,,,,,,,,,,,,,,,,,,,,,,,,,,,,,,,,,,,,,,,,,,,,,,,,,
,,,,361734,001,2024-02-02_11h38.55.467,fluency,2022.2.5,Win32,15.01501502,,,,,,,,,,,,,,,,,,,,,,,10,1,img/B01_10.jpg,MF,Press J if the face is MALE and K if the face is FEMALE, ,JK,,,,,,,,,,,,,,,,,,,,,,,,,,,,,,,,,,,,,,,2,0.952,,,,,,,,,,,,,,0,41,41,10,1,,,,,,,,,,,,,space,0.9463,,,,,,,,,,,,,,,,,,,,,,,,,,,,,,,,,,,,,,,,,,,,,,,,,,,,,,,,,,,,,,,,,
,,,,361734,001,2024-02-02_11h38.55.467,fluency,2022.2.5,Win32,15.01501502,,,,,,,,,,,,,,,,,,,,,,,0,4,img/B04_00.jpg,MF,Press J if the face is MALE and K if the face is FEMALE, ,JK,,,,,,,,,,,,,,,,,,,,,,,,,,,,,,,,,,,,,,,,,,,,,,,,,,,,,377.0508,0,42,42,33,1,109,0,0,0,0,1,98,,,,,,,,,,,,,,,,,,,,,,,,,,,,,,,,,,,,,,,,,,,,,,,,,,,,,,,,,,,,,,,,,,,,,,,,
,,,,361734,001,2024-02-02_11h38.55.467,fluency,2022.2.5,Win32,15.01501502,,,,,,,,,,,,,,,,,,,,,,,,,,,,,,,,,,,,,,,,,,,,,,,,,,,,,,,,,,,,,,,,,,,,,,,,,,,,,,,,,,,,,,,,,0,0,0,0,1,,"[""j""]",[0.6789000000357532],1,"[""j""]",[0.6789000000357532],,,,,,,,,,,,,,,,,,,,,,,,,,,,,,,,,,,,,,,,,,,,,,,,,,,,,,,,,,,,,,,,,,,
,,,,361734,001,2024-02-02_11h38.55.467,fluency,2022.2.5,Win32,15.01501502,,,,,,,,,,,,,,,,,,,,,,,0,4,img/B04_00.jpg,MF,Press J if the face is MALE and K if the face is FEMALE, ,JK,,,,,,,,,,,,,,,,,,,,,,,,,,,,,,,,,,,,,,,3,0.5102,,,,,,,,,,,,,,0,42,42,33,1,,,,,,,,,,,,,space,0.7856,,,,,,,,,,,,,,,,,,,,,,,,,,,,,,,,,,,,,,,,,,,,,,,,,,,,,,,,,,,,,,,,,
,,,,361734,001,2024-02-02_11h38.55.467,fluency,2022.2.5,Win32,15.01501502,,,,,,,,,,,,,,,,,,,,,,,10,6,img/B06_10.jpg,MF,Press J if the face is MALE and K if the face is FEMALE, ,JK,,,,,,,,,,,,,,,,,,,,,,,,,,,,,,,,,,,,,,,,,,,,,,,,,,,,,383.5208,0,43,43,65,1,109,0,0,0,0,1,98,,,,,,,,,,,,,,,,,,,,,,,,,,,,,,,,,,,,,,,,,,,,,,,,,,,,,,,,,,,,,,,,,,,,,,,,
,,,,361734,001,2024-02-02_11h38.55.467,fluency,2022.2.5,Win32,15.01501502,,,,,,,,,,,,,,,,,,,,,,,,,,,,,,,,,,,,,,,,,,,,,,,,,,,,,,,,,,,,,,,,,,,,,,,,,,,,,,,,,,,,,,,,,0,0,0,0,1,,"[""k""]",[0.7003999999761277],1,"[""k""]",[0.7003000000119073],,,,,,,,,,,,,,,,,,,,,,,,,,,,,,,,,,,,,,,,,,,,,,,,,,,,,,,,,,,,,,,,,,,
,,,,361734,001,2024-02-02_11h38.55.467,fluency,2022.2.5,Win32,15.01501502,,,,,,,,,,,,,,,,,,,,,,,10,6,img/B06_10.jpg,MF,Press J if the face is MALE and K if the face is FEMALE, ,JK,,,,,,,,,,,,,,,,,,,,,,,,,,,,,,,,,,,,,,,2,0.5966,,,,,,,,,,,,,,0,43,43,65,1,,,,,,,,,,,,,space,0.5824,,,,,,,,,,,,,,,,,,,,,,,,,,,,,,,,,,,,,,,,,,,,,,,,,,,,,,,,,,,,,,,,,
,,,,361734,001,2024-02-02_11h38.55.467,fluency,2022.2.5,Win32,15.01501502,,,,,,,,,,,,,,,,,,,,,,,6,10,img/B10_06.jpg,MF,Press J if the face is MALE and K if the face is FEMALE, ,JK,,,,,,,,,,,,,,,,,,,,,,,,,,,,,,,,,,,,,,,,,,,,,,,,,,,,,389.9161,0,44,44,105,1,109,0,0,0,0,1,98,,,,,,,,,,,,,,,,,,,,,,,,,,,,,,,,,,,,,,,,,,,,,,,,,,,,,,,,,,,,,,,,,,,,,,,,
,,,,361734,001,2024-02-02_11h38.55.467,fluency,2022.2.5,Win32,15.01501502,,,,,,,,,,,,,,,,,,,,,,,,,,,,,,,,,,,,,,,,,,,,,,,,,,,,,,,,,,,,,,,,,,,,,,,,,,,,,,,,,,,,,,,,,0,0,0,0,1,,"[""j""]",[1.8336000000238641],1,"[""j""]",[1.8336000000238641],,,,,,,,,,,,,,,,,,,,,,,,,,,,,,,,,,,,,,,,,,,,,,,,,,,,,,,,,,,,,,,,,,,
,,,,361734,001,2024-02-02_11h38.55.467,fluency,2022.2.5,Win32,15.01501502,,,,,,,,,,,,,,,,,,,,,,,6,10,img/B10_06.jpg,MF,Press J if the face is MALE and K if the face is FEMALE, ,JK,,,,,,,,,,,,,,,,,,,,,,,,,,,,,,,,,,,,,,,1,0.4346,,,,,,,,,,,,,,0,44,44,105,1,,,,,,,,,,,,,space,0.5376,,,,,,,,,,,,,,,,,,,,,,,,,,,,,,,,,,,,,,,,,,,,,,,,,,,,,,,,,,,,,,,,,
,,,,361734,001,2024-02-02_11h38.55.467,fluency,2022.2.5,Win32,15.01501502,,,,,,,,,,,,,,,,,,,,,,,8,6,img/B06_08.jpg,MF,Press J if the face is MALE and K if the face is FEMALE, ,JK,,,,,,,,,,,,,,,,,,,,,,,,,,,,,,,,,,,,,,,,,,,,,,,,,,,,,395.0129,0,45,45,63,1,109,0,0,0,0,1,98,,,,,,,,,,,,,,,,,,,,,,,,,,,,,,,,,,,,,,,,,,,,,,,,,,,,,,,,,,,,,,,,,,,,,,,,
,,,,361734,001,2024-02-02_11h38.55.467,fluency,2022.2.5,Win32,15.01501502,,,,,,,,,,,,,,,,,,,,,,,,,,,,,,,,,,,,,,,,,,,,,,,,,,,,,,,,,,,,,,,,,,,,,,,,,,,,,,,,,,,,,,,,,0,0,0,0,1,,"[""k""]",[0.7930999999642268],1,"[""k""]",[0.7930999999642268],,,,,,,,,,,,,,,,,,,,,,,,,,,,,,,,,,,,,,,,,,,,,,,,,,,,,,,,,,,,,,,,,,,
,,,,361734,001,2024-02-02_11h38.55.467,fluency,2022.2.5,Win32,15.01501502,,,,,,,,,,,,,,,,,,,,,,,8,6,img/B06_08.jpg,MF,Press J if the face is MALE and K if the face is FEMALE, ,JK,,,,,,,,,,,,,,,,,,,,,,,,,,,,,,,,,,,,,,,2,0.3677,,,,,,,,,,,,,,0,45,45,63,1,,,,,,,,,,,,,space,0.276,,,,,,,,,,,,,,,,,,,,,,,,,,,,,,,,,,,,,,,,,,,,,,,,,,,,,,,,,,,,,,,,,
,,,,361734,001,2024-02-02_11h38.55.467,fluency,2022.2.5,Win32,15.01501502,,,,,,,,,,,,,,,,,,,,,,,9,2,img/B02_09.jpg,MF,Press J if the face is MALE and K if the face is FEMALE, ,JK,,,,,,,,,,,,,,,,,,,,,,,,,,,,,,,,,,,,,,,,,,,,,,,,,,,,,399.9072,0,46,46,20,1,109,0,0,0,0,1,98,,,,,,,,,,,,,,,,,,,,,,,,,,,,,,,,,,,,,,,,,,,,,,,,,,,,,,,,,,,,,,,,,,,,,,,,
,,,,361734,001,2024-02-02_11h38.55.467,fluency,2022.2.5,Win32,15.01501502,,,,,,,,,,,,,,,,,,,,,,,,,,,,,,,,,,,,,,,,,,,,,,,,,,,,,,,,,,,,,,,,,,,,,,,,,,,,,,,,,,,,,,,,,0,0,0,0,1,,"[""k""]",[0.7885999999642763],1,"[""k""]",[0.7884999999999991],,,,,,,,,,,,,,,,,,,,,,,,,,,,,,,,,,,,,,,,,,,,,,,,,,,,,,,,,,,,,,,,,,,
,,,,361734,001,2024-02-02_11h38.55.467,fluency,2022.2.5,Win32,15.01501502,,,,,,,,,,,,,,,,,,,,,,,9,2,img/B02_09.jpg,MF,Press J if the face is MALE and K if the face is FEMALE, ,JK,,,,,,,,,,,,,,,,,,,,,,,,,,,,,,,,,,,,,,,3,0.4606,,,,,,,,,,,,,,0,46,46,20,1,,,,,,,,,,,,,space,0.3499,,,,,,,,,,,,,,,,,,,,,,,,,,,,,,,,,,,,,,,,,,,,,,,,,,,,,,,,,,,,,,,,,
,,,,361734,001,2024-02-02_11h38.55.467,fluency,2022.2.5,Win32,15.01501502,,,,,,,,,,,,,,,,,,,,,,,2,1,img/B01_02.jpg,MF,Press J if the face is MALE and K if the face is FEMALE, ,JK,,,,,,,,,,,,,,,,,,,,,,,,,,,,,,,,,,,,,,,,,,,,,,,,,,,,,404.9352,0,47,47,2,1,109,0,0,0,0,1,98,,,,,,,,,,,,,,,,,,,,,,,,,,,,,,,,,,,,,,,,,,,,,,,,,,,,,,,,,,,,,,,,,,,,,,,,
,,,,361734,001,2024-02-02_11h38.55.467,fluency,2022.2.5,Win32,15.01501502,,,,,,,,,,,,,,,,,,,,,,,,,,,,,,,,,,,,,,,,,,,,,,,,,,,,,,,,,,,,,,,,,,,,,,,,,,,,,,,,,,,,,,,,,0,0,0,0,1,,"[""j""]",[0.7980000000000018],1,"[""j""]",[0.7980000000000018],,,,,,,,,,,,,,,,,,,,,,,,,,,,,,,,,,,,,,,,,,,,,,,,,,,,,,,,,,,,,,,,,,,
,,,,361734,001,2024-02-02_11h38.55.467,fluency,2022.2.5,Win32,15.01501502,,,,,,,,,,,,,,,,,,,,,,,2,1,img/B01_02.jpg,MF,Press J if the face is MALE and K if the face is FEMALE, ,JK,,,,,,,,,,,,,,,,,,,,,,,,,,,,,,,,,,,,,,,2,0.781,,,,,,,,,,,,,,0,47,47,2,1,,,,,,,,,,,,,space,1.0969,,,,,,,,,,,,,,,,,,,,,,,,,,,,,,,,,,,,,,,,,,,,,,,,,,,,,,,,,,,,,,,,,
,,,,361734,001,2024-02-02_11h38.55.467,fluency,2022.2.5,Win32,15.01501502,,,,,,,,,,,,,,,,,,,,,,,5,9,img/B09_05.jpg,MF,Press J if the face is MALE and K if the face is FEMALE, ,JK,,,,,,,,,,,,,,,,,,,,,,,,,,,,,,,,,,,,,,,,,,,,,,,,,,,,,411.0679,0,48,48,93,1,109,0,0,0,0,1,98,,,,,,,,,,,,,,,,,,,,,,,,,,,,,,,,,,,,,,,,,,,,,,,,,,,,,,,,,,,,,,,,,,,,,,,,
,,,,361734,001,2024-02-02_11h38.55.467,fluency,2022.2.5,Win32,15.01501502,,,,,,,,,,,,,,,,,,,,,,,,,,,,,,,,,,,,,,,,,,,,,,,,,,,,,,,,,,,,,,,,,,,,,,,,,,,,,,,,,,,,,,,,,0,0,0,0,1,,"[""j""]",[0.8666999999880431],1,"[""j""]",[0.8666999999880431],,,,,,,,,,,,,,,,,,,,,,,,,,,,,,,,,,,,,,,,,,,,,,,,,,,,,,,,,,,,,,,,,,,
,,,,361734,001,2024-02-02_11h38.55.467,fluency,2022.2.5,Win32,15.01501502,,,,,,,,,,,,,,,,,,,,,,,5,9,img/B09_05.jpg,MF,Press J if the face is MALE and K if the face is FEMALE, ,JK,,,,,,,,,,,,,,,,,,,,,,,,,,,,,,,,,,,,,,,1,0.5796,,,,,,,,,,,,,,0,48,48,93,1,,,,,,,,,,,,,space,0.7993,,,,,,,,,,,,,,,,,,,,,,,,,,,,,,,,,,,,,,,,,,,,,,,,,,,,,,,,,,,,,,,,,
,,,,361734,001,2024-02-02_11h38.55.467,fluency,2022.2.5,Win32,15.01501502,,,,,,,,,,,,,,,,,,,,,,,10,8,img/B08_10.jpg,MF,Press J if the face is MALE and K if the face is FEMALE, ,JK,,,,,,,,,,,,,,,,,,,,,,,,,,,,,,,,,,,,,,,,,,,,,,,,,,,,,416.6006,0,49,49,87,1,109,0,0,0,0,1,98,,,,,,,,,,,,,,,,,,,,,,,,,,,,,,,,,,,,,,,,,,,,,,,,,,,,,,,,,,,,,,,,,,,,,,,,
,,,,361734,001,2024-02-02_11h38.55.467,fluency,2022.2.5,Win32,15.01501502,,,,,,,,,,,,,,,,,,,,,,,,,,,,,,,,,,,,,,,,,,,,,,,,,,,,,,,,,,,,,,,,,,,,,,,,,,,,,,,,,,,,,,,,,0,0,0,0,1,,"[""j""]",[0.7884999999999991],1,"[""j""]",[0.7884999999999991],,,,,,,,,,,,,,,,,,,,,,,,,,,,,,,,,,,,,,,,,,,,,,,,,,,,,,,,,,,,,,,,,,,
,,,,361734,001,2024-02-02_11h38.55.467,fluency,2022.2.5,Win32,15.01501502,,,,,,,,,,,,,,,,,,,,,,,10,8,img/B08_10.jpg,MF,Press J if the face is MALE and K if the face is FEMALE, ,JK,,,,,,,,,,,,,,,,,,,,,,,,,,,,,,,,,,,,,,,1,0.6158,,,,,,,,,,,,,,0,49,49,87,1,,,,,,,,,,,,,space,0.4307,,,,,,,,,,,,,,,,,,,,,,,,,,,,,,,,,,,,,,,,,,,,,,,,,,,,,,,,,,,,,,,,,
,,,,361734,001,2024-02-02_11h38.55.467,fluency,2022.2.5,Win32,15.01501502,,,,,,,,,,,,,,,,,,,,,,,1,8,img/B08_01.jpg,MF,Press J if the face is MALE and K if the face is FEMALE, ,JK,,,,,,,,,,,,,,,,,,,,,,,,,,,,,,,,,,,,,,,,,,,,,,,,,,,,,421.8256,0,50,50,78,1,109,0,0,0,0,1,98,,,,,,,,,,,,,,,,,,,,,,,,,,,,,,,,,,,,,,,,,,,,,,,,,,,,,,,,,,,,,,,,,,,,,,,,
,,,,361734,001,2024-02-02_11h38.55.467,fluency,2022.2.5,Win32,15.01501502,,,,,,,,,,,,,,,,,,,,,,,,,,,,,,,,,,,,,,,,,,,,,,,,,,,,,,,,,,,,,,,,,,,,,,,,,,,,,,,,,,,,,,,,,0,0,0,0,1,,"[""j""]",[2.1654000000357883],1,"[""j""]",[2.1654000000357883],,,,,,,,,,,,,,,,,,,,,,,,,,,,,,,,,,,,,,,,,,,,,,,,,,,,,,,,,,,,,,,,,,,
,,,,361734,001,2024-02-02_11h38.55.467,fluency,2022.2.5,Win32,15.01501502,,,,,,,,,,,,,,,,,,,,,,,1,8,img/B08_01.jpg,MF,Press J if the face is MALE and K if the face is FEMALE, ,JK,,,,,,,,,,,,,,,,,,,,,,,,,,,,,,,,,,,,,,,1,0.3701,,,,,,,,,,,,,,0,50,50,78,1,,,,,,,,,,,,,space,0.2563,,,,,,,,,,,,,,,,,,,,,,,,,,,,,,,,,,,,,,,,,,,,,,,,,,,,,,,,,,,,,,,,,
,,,,361734,001,2024-02-02_11h38.55.467,fluency,2022.2.5,Win32,15.01501502,,,,,,,,,,,,,,,,,,,,,,,2,10,img/B10_02.jpg,MF,Press J if the face is MALE and K if the face is FEMALE, ,JK,,,,,,,,,,,,,,,,,,,,,,,,,,,,,,,,,,,,,,,,,,,,,,,,,,,,,426.659,0,51,51,101,1,109,0,0,0,0,1,98,,,,,,,,,,,,,,,,,,,,,,,,,,,,,,,,,,,,,,,,,,,,,,,,,,,,,,,,,,,,,,,,,,,,,,,,
,,,,361734,001,2024-02-02_11h38.55.467,fluency,2022.2.5,Win32,15.01501502,,,,,,,,,,,,,,,,,,,,,,,,,,,,,,,,,,,,,,,,,,,,,,,,,,,,,,,,,,,,,,,,,,,,,,,,,,,,,,,,,,,,,,,,,0,0,0,0,1,,"[""j""]",[0.6311999999880982],1,"[""j""]",[0.6311999999880982],,,,,,,,,,,,,,,,,,,,,,,,,,,,,,,,,,,,,,,,,,,,,,,,,,,,,,,,,,,,,,,,,,,
,,,,361734,001,2024-02-02_11h38.55.467,fluency,2022.2.5,Win32,15.01501502,,,,,,,,,,,,,,,,,,,,,,,2,10,img/B10_02.jpg,MF,Press J if the face is MALE and K if the face is FEMALE, ,JK,,,,,,,,,,,,,,,,,,,,,,,,,,,,,,,,,,,,,,,2,0.4551,,,,,,,,,,,,,,0,51,51,101,1,,,,,,,,,,,,,space,0.4383,,,,,,,,,,,,,,,,,,,,,,,,,,,,,,,,,,,,,,,,,,,,,,,,,,,,,,,,,,,,,,,,,
,,,,361734,001,2024-02-02_11h38.55.467,fluency,2022.2.5,Win32,15.01501502,,,,,,,,,,,,,,,,,,,,,,,1,9,img/B09_01.jpg,MF,Press J if the face is MALE and K if the face is FEMALE, ,JK,,,,,,,,,,,,,,,,,,,,,,,,,,,,,,,,,,,,,,,,,,,,,,,,,,,,,432.6843,0,52,52,89,1,109,0,0,0,0,1,98,,,,,,,,,,,,,,,,,,,,,,,,,,,,,,,,,,,,,,,,,,,,,,,,,,,,,,,,,,,,,,,,,,,,,,,,
,,,,361734,001,2024-02-02_11h38.55.467,fluency,2022.2.5,Win32,15.01501502,,,,,,,,,,,,,,,,,,,,,,,,,,,,,,,,,,,,,,,,,,,,,,,,,,,,,,,,,,,,,,,,,,,,,,,,,,,,,,,,,,,,,,,,,0,0,0,0,1,,"[""j""]",[1.1166000000238228],1,"[""j""]",[1.1164999999999736],,,,,,,,,,,,,,,,,,,,,,,,,,,,,,,,,,,,,,,,,,,,,,,,,,,,,,,,,,,,,,,,,,,
,,,,361734,001,2024-02-02_11h38.55.467,fluency,2022.2.5,Win32,15.01501502,,,,,,,,,,,,,,,,,,,,,,,1,9,img/B09_01.jpg,MF,Press J if the face is MALE and K if the face is FEMALE, ,JK,,,,,,,,,,,,,,,,,,,,,,,,,,,,,,,,,,,,,,,2,0.3458,,,,,,,,,,,,,,0,52,52,89,1,,,,,,,,,,,,,space,0.4363,,,,,,,,,,,,,,,,,,,,,,,,,,,,,,,,,,,,,,,,,,,,,,,,,,,,,,,,,,,,,,,,,
,,,,361734,001,2024-02-02_11h38.55.467,fluency,2022.2.5,Win32,15.01501502,,,,,,,,,,,,,,,,,,,,,,,5,7,img/B07_05.jpg,MF,Press J if the face is MALE and K if the face is FEMALE, ,JK,,,,,,,,,,,,,,,,,,,,,,,,,,,,,,,,,,,,,,,,,,,,,,,,,,,,,437.638,0,53,53,71,1,109,0,0,0,0,1,98,,,,,,,,,,,,,,,,,,,,,,,,,,,,,,,,,,,,,,,,,,,,,,,,,,,,,,,,,,,,,,,,,,,,,,,,
,,,,361734,001,2024-02-02_11h38.55.467,fluency,2022.2.5,Win32,15.01501502,,,,,,,,,,,,,,,,,,,,,,,,,,,,,,,,,,,,,,,,,,,,,,,,,,,,,,,,,,,,,,,,,,,,,,,,,,,,,,,,,,,,,,,,,0,0,0,0,1,,"[""j""]",[2.73210000002382],1,"[""j""]",[2.73210000002382],,,,,,,,,,,,,,,,,,,,,,,,,,,,,,,,,,,,,,,,,,,,,,,,,,,,,,,,,,,,,,,,,,,
,,,,361734,001,2024-02-02_11h38.55.467,fluency,2022.2.5,Win32,15.01501502,,,,,,,,,,,,,,,,,,,,,,,5,7,img/B07_05.jpg,MF,Press J if the face is MALE and K if the face is FEMALE, ,JK,,,,,,,,,,,,,,,,,,,,,,,,,,,,,,,,,,,,,,,1,0.6315,,,,,,,,,,,,,,0,53,53,71,1,,,,,,,,,,,,,space,0.3672,,,,,,,,,,,,,,,,,,,,,,,,,,,,,,,,,,,,,,,,,,,,,,,,,,,,,,,,,,,,,,,,,
,,,,361734,001,2024-02-02_11h38.55.467,fluency,2022.2.5,Win32,15.01501502,,,,,,,,,,,,,,,,,,,,,,,4,9,img/B09_04.jpg,MF,Press J if the face is MALE and K if the face is FEMALE, ,JK,,,,,,,,,,,,,,,,,,,,,,,,,,,,,,,,,,,,,,,,,,,,,,,,,,,,,443.8518,0,54,54,92,1,109,0,0,0,0,1,98,,,,,,,,,,,,,,,,,,,,,,,,,,,,,,,,,,,,,,,,,,,,,,,,,,,,,,,,,,,,,,,,,,,,,,,,
,,,,361734,001,2024-02-02_11h38.55.467,fluency,2022.2.5,Win32,15.01501502,,,,,,,,,,,,,,,,,,,,,,,,,,,,,,,,,,,,,,,,,,,,,,,,,,,,,,,,,,,,,,,,,,,,,,,,,,,,,,,,,,,,,,,,,0,0,0,0,1,,"[""j""]",[1.1638999999761381],1,"[""j""]",[1.1638999999761381],,,,,,,,,,,,,,,,,,,,,,,,,,,,,,,,,,,,,,,,,,,,,,,,,,,,,,,,,,,,,,,,,,,
,,,,361734,001,2024-02-02_11h38.55.467,fluency,2022.2.5,Win32,15.01501502,,,,,,,,,,,,,,,,,,,,,,,4,9,img/B09_04.jpg,MF,Press J if the face is MALE and K if the face is FEMALE, ,JK,,,,,,,,,,,,,,,,,,,,,,,,,,,,,,,,,,,,,,,2,0.4499,,,,,,,,,,,,,,0,54,54,92,1,,,,,,,,,,,,,space,0.5221,,,,,,,,,,,,,,,,,,,,,,,,,,,,,,,,,,,,,,,,,,,,,,,,,,,,,,,,,,,,,,,,,
,,,,361734,001,2024-02-02_11h38.55.467,fluency,2022.2.5,Win32,15.01501502,,,,,,,,,,,,,,,,,,,,,,,0,7,img/B07_00.jpg,MF,Press J if the face is MALE and K if the face is FEMALE, ,JK,,,,,,,,,,,,,,,,,,,,,,,,,,,,,,,,,,,,,,,,,,,,,,,,,,,,,449.0308,0,55,55,66,1,109,0,0,0,0,1,98,,,,,,,,,,,,,,,,,,,,,,,,,,,,,,,,,,,,,,,,,,,,,,,,,,,,,,,,,,,,,,,,,,,,,,,,
,,,,361734,001,2024-02-02_11h38.55.467,fluency,2022.2.5,Win32,15.01501502,,,,,,,,,,,,,,,,,,,,,,,,,,,,,,,,,,,,,,,,,,,,,,,,,,,,,,,,,,,,,,,,,,,,,,,,,,,,,,,,,,,,,,,,,0,0,0,0,1,,"[""j""]",[0.7108999999760499],1,"[""j""]",[0.7108999999760499],,,,,,,,,,,,,,,,,,,,,,,,,,,,,,,,,,,,,,,,,,,,,,,,,,,,,,,,,,,,,,,,,,,
,,,,361734,001,2024-02-02_11h38.55.467,fluency,2022.2.5,Win32,15.01501502,,,,,,,,,,,,,,,,,,,,,,,0,7,img/B07_00.jpg,MF,Press J if the face is MALE and K if the face is FEMALE, ,JK,,,,,,,,,,,,,,,,,,,,,,,,,,,,,,,,,,,,,,,1,0.5282,,,,,,,,,,,,,,0,55,55,66,1,,,,,,,,,,,,,space,0.3488,,,,,,,,,,,,,,,,,,,,,,,,,,,,,,,,,,,,,,,,,,,,,,,,,,,,,,,,,,,,,,,,,
,,,,361734,001,2024-02-02_11h38.55.467,fluency,2022.2.5,Win32,15.01501502,,,,,,,,,,,,,,,,,,,,,,,4,2,img/B02_04.jpg,MF,Press J if the face is MALE and K if the face is FEMALE, ,JK,,,,,,,,,,,,,,,,,,,,,,,,,,,,,,,,,,,,,,,,,,,,,,,,,,,,,455.0756,0,56,56,15,1,109,0,0,0,0,1,98,,,,,,,,,,,,,,,,,,,,,,,,,,,,,,,,,,,,,,,,,,,,,,,,,,,,,,,,,,,,,,,,,,,,,,,,
,,,,361734,001,2024-02-02_11h38.55.467,fluency,2022.2.5,Win32,15.01501502,,,,,,,,,,,,,,,,,,,,,,,,,,,,,,,,,,,,,,,,,,,,,,,,,,,,,,,,,,,,,,,,,,,,,,,,,,,,,,,,,,,,,,,,,0,0,0,0,1,,"[""k""]",[1.0281000000238691],1,"[""k""]",[1.0281000000238691],,,,,,,,,,,,,,,,,,,,,,,,,,,,,,,,,,,,,,,,,,,,,,,,,,,,,,,,,,,,,,,,,,,
,,,,361734,001,2024-02-02_11h38.55.467,fluency,2022.2.5,Win32,15.01501502,,,,,,,,,,,,,,,,,,,,,,,4,2,img/B02_04.jpg,MF,Press J if the face is MALE and K if the face is FEMALE, ,JK,,,,,,,,,,,,,,,,,,,,,,,,,,,,,,,,,,,,,,,1,0.3482,,,,,,,,,,,,,,0,56,56,15,1,,,,,,,,,,,,,space,0.2682,,,,,,,,,,,,,,,,,,,,,,,,,,,,,,,,,,,,,,,,,,,,,,,,,,,,,,,,,,,,,,,,,
,,,,361734,001,2024-02-02_11h38.55.467,fluency,2022.2.5,Win32,15.01501502,,,,,,,,,,,,,,,,,,,,,,,9,3,img/B03_09.jpg,MF,Press J if the face is MALE and K if the face is FEMALE, ,JK,,,,,,,,,,,,,,,,,,,,,,,,,,,,,,,,,,,,,,,,,,,,,,,,,,,,,459.9486,0,57,57,31,1,109,0,0,0,0,1,98,,,,,,,,,,,,,,,,,,,,,,,,,,,,,,,,,,,,,,,,,,,,,,,,,,,,,,,,,,,,,,,,,,,,,,,,
,,,,361734,001,2024-02-02_11h38.55.467,fluency,2022.2.5,Win32,15.01501502,,,,,,,,,,,,,,,,,,,,,,,,,,,,,,,,,,,,,,,,,,,,,,,,,,,,,,,,,,,,,,,,,,,,,,,,,,,,,,,,,,,,,,,,,0,0,0,0,1,,"[""k""]",[0.9381999999881145],1,"[""k""]",[0.9381999999881145],,,,,,,,,,,,,,,,,,,,,,,,,,,,,,,,,,,,,,,,,,,,,,,,,,,,,,,,,,,,,,,,,,,
,,,,361734,001,2024-02-02_11h38.55.467,fluency,2022.2.5,Win32,15.01501502,,,,,,,,,,,,,,,,,,,,,,,9,3,img/B03_09.jpg,MF,Press J if the face is MALE and K if the face is FEMALE, ,JK,,,,,,,,,,,,,,,,,,,,,,,,,,,,,,,,,,,,,,,5,0.5088,,,,,,,,,,,,,,0,57,57,31,1,,,,,,,,,,,,,space,0.3577,,,,,,,,,,,,,,,,,,,,,,,,,,,,,,,,,,,,,,,,,,,,,,,,,,,,,,,,,,,,,,,,,
,,,,361734,001,2024-02-02_11h38.55.467,fluency,2022.2.5,Win32,15.01501502,,,,,,,,,,,,,,,,,,,,,,,6,4,img/B04_06.jpg,MF,Press J if the face is MALE and K if the face is FEMALE, ,JK,,,,,,,,,,,,,,,,,,,,,,,,,,,,,,,,,,,,,,,,,,,,,,,,,,,,,464.9958,0,58,58,39,1,109,0,0,0,0,1,98,,,,,,,,,,,,,,,,,,,,,,,,,,,,,,,,,,,,,,,,,,,,,,,,,,,,,,,,,,,,,,,,,,,,,,,,
,,,,361734,001,2024-02-02_11h38.55.467,fluency,2022.2.5,Win32,15.01501502,,,,,,,,,,,,,,,,,,,,,,,,,,,,,,,,,,,,,,,,,,,,,,,,,,,,,,,,,,,,,,,,,,,,,,,,,,,,,,,,,,,,,,,,,0,0,0,0,1,,"[""j""]",[1.5281000000238691],1,"[""j""]",[1.5281000000238691],,,,,,,,,,,,,,,,,,,,,,,,,,,,,,,,,,,,,,,,,,,,,,,,,,,,,,,,,,,,,,,,,,,
,,,,361734,001,2024-02-02_11h38.55.467,fluency,2022.2.5,Win32,15.01501502,,,,,,,,,,,,,,,,,,,,,,,6,4,img/B04_06.jpg,MF,Press J if the face is MALE and K if the face is FEMALE, ,JK,,,,,,,,,,,,,,,,,,,,,,,,,,,,,,,,,,,,,,,2,0.6024,,,,,,,,,,,,,,0,58,58,39,1,,,,,,,,,,,,,space,0.4597,,,,,,,,,,,,,,,,,,,,,,,,,,,,,,,,,,,,,,,,,,,,,,,,,,,,,,,,,,,,,,,,,
,,,,361734,001,2024-02-02_11h38.55.467,fluency,2022.2.5,Win32,15.01501502,,,,,,,,,,,,,,,,,,,,,,,6,3,img/B03_06.jpg,MF,Press J if the face is MALE and K if the face is FEMALE, ,JK,,,,,,,,,,,,,,,,,,,,,,,,,,,,,,,,,,,,,,,,,,,,,,,,,,,,,471.2637,0,59,59,28,1,109,0,0,0,0,1,98,,,,,,,,,,,,,,,,,,,,,,,,,,,,,,,,,,,,,,,,,,,,,,,,,,,,,,,,,,,,,,,,,,,,,,,,
,,,,361734,001,2024-02-02_11h38.55.467,fluency,2022.2.5,Win32,15.01501502,,,,,,,,,,,,,,,,,,,,,,,,,,,,,,,,,,,,,,,,,,,,,,,,,,,,,,,,,,,,,,,,,,,,,,,,,,,,,,,,,,,,,,,,,0,0,0,0,1,,"[""k""]",[0.7896999999881018],1,"[""k""]",[0.7896999999881018],,,,,,,,,,,,,,,,,,,,,,,,,,,,,,,,,,,,,,,,,,,,,,,,,,,,,,,,,,,,,,,,,,,
,,,,361734,001,2024-02-02_11h38.55.467,fluency,2022.2.5,Win32,15.01501502,,,,,,,,,,,,,,,,,,,,,,,6,3,img/B03_06.jpg,MF,Press J if the face is MALE and K if the face is FEMALE, ,JK,,,,,,,,,,,,,,,,,,,,,,,,,,,,,,,,,,,,,,,4,0.889,,,,,,,,,,,,,,0,59,59,28,1,,,,,,,,,,,,,space,0.4388,,,,,,,,,,,,,,,,,,,,,,,,,,,,,,,,,,,,,,,,,,,,,,,,,,,,,,,,,,,,,,,,,
,,,,361734,001,2024-02-02_11h38.55.467,fluency,2022.2.5,Win32,15.01501502,,,,,,,,,,,,,,,,,,,,,,,5,3,img/B03_05.jpg,MF,Press J if the face is MALE and K if the face is FEMALE, ,JK,,,,,,,,,,,,,,,,,,,,,,,,,,,,,,,,,,,,,,,,,,,,,,,,,,,,,476.7643,0,60,60,27,1,109,0,0,0,0,1,98,,,,,,,,,,,,,,,,,,,,,,,,,,,,,,,,,,,,,,,,,,,,,,,,,,,,,,,,,,,,,,,,,,,,,,,,
,,,,361734,001,2024-02-02_11h38.55.467,fluency,2022.2.5,Win32,15.01501502,,,,,,,,,,,,,,,,,,,,,,,,,,,,,,,,,,,,,,,,,,,,,,,,,,,,,,,,,,,,,,,,,,,,,,,,,,,,,,,,,,,,,,,,,0,0,0,0,1,,"[""k""]",[1.1971000000238519],1,"[""k""]",[1.1971000000238519],,,,,,,,,,,,,,,,,,,,,,,,,,,,,,,,,,,,,,,,,,,,,,,,,,,,,,,,,,,,,,,,,,,
,,,,361734,001,2024-02-02_11h38.55.467,fluency,2022.2.5,Win32,15.01501502,,,,,,,,,,,,,,,,,,,,,,,5,3,img/B03_05.jpg,MF,Press J if the face is MALE and K if the face is FEMALE, ,JK,,,,,,,,,,,,,,,,,,,,,,,,,,,,,,,,,,,,,,,3,0.5071,,,,,,,,,,,,,,0,60,60,27,1,,,,,,,,,,,,,space,0.5387,,,,,,,,,,,,,,,,,,,,,,,,,,,,,,,,,,,,,,,,,,,,,,,,,,,,,,,,,,,,,,,,,
,,,,361734,001,2024-02-02_11h38.55.467,fluency,2022.2.5,Win32,15.01501502,,,,,,,,,,,,,,,,,,,,,,,0,8,img/B08_00.jpg,MF,Press J if the face is MALE and K if the face is FEMALE, ,JK,,,,,,,,,,,,,,,,,,,,,,,,,,,,,,,,,,,,,,,,,,,,,,,,,,,,,481.997,0,61,61,77,1,109,0,0,0,0,1,98,,,,,,,,,,,,,,,,,,,,,,,,,,,,,,,,,,,,,,,,,,,,,,,,,,,,,,,,,,,,,,,,,,,,,,,,
,,,,361734,001,2024-02-02_11h38.55.467,fluency,2022.2.5,Win32,15.01501502,,,,,,,,,,,,,,,,,,,,,,,,,,,,,,,,,,,,,,,,,,,,,,,,,,,,,,,,,,,,,,,,,,,,,,,,,,,,,,,,,,,,,,,,,0,0,0,0,1,,"[""k""]",[0.9418999999761581],1,"[""k""]",[0.941799999952309],,,,,,,,,,,,,,,,,,,,,,,,,,,,,,,,,,,,,,,,,,,,,,,,,,,,,,,,,,,,,,,,,,,
,,,,361734,001,2024-02-02_11h38.55.467,fluency,2022.2.5,Win32,15.01501502,,,,,,,,,,,,,,,,,,,,,,,0,8,img/B08_00.jpg,MF,Press J if the face is MALE and K if the face is FEMALE, ,JK,,,,,,,,,,,,,,,,,,,,,,,,,,,,,,,,,,,,,,,2,0.4367,,,,,,,,,,,,,,0,61,61,77,1,,,,,,,,,,,,,space,0.5282,,,,,,,,,,,,,,,,,,,,,,,,,,,,,,,,,,,,,,,,,,,,,,,,,,,,,,,,,,,,,,,,,
,,,,361734,001,2024-02-02_11h38.55.467,fluency,2022.2.5,Win32,15.01501502,,,,,,,,,,,,,,,,,,,,,,,8,8,img/B08_08.jpg,MF,Press J if the face is MALE and K if the face is FEMALE, ,JK,,,,,,,,,,,,,,,,,,,,,,,,,,,,,,,,,,,,,,,,,,,,,,,,,,,,,488.1597,0,62,62,85,1,109,0,0,0,0,1,98,,,,,,,,,,,,,,,,,,,,,,,,,,,,,,,,,,,,,,,,,,,,,,,,,,,,,,,,,,,,,,,,,,,,,,,,
,,,,361734,001,2024-02-02_11h38.55.467,fluency,2022.2.5,Win32,15.01501502,,,,,,,,,,,,,,,,,,,,,,,,,,,,,,,,,,,,,,,,,,,,,,,,,,,,,,,,,,,,,,,,,,,,,,,,,,,,,,,,,,,,,,,,,0,0,0,0,1,,"[""j""]",[1.2187999999523527],1,"[""j""]",[1.2187999999523527],,,,,,,,,,,,,,,,,,,,,,,,,,,,,,,,,,,,,,,,,,,,,,,,,,,,,,,,,,,,,,,,,,,
,,,,361734,001,2024-02-02_11h38.55.467,fluency,2022.2.5,Win32,15.01501502,,,,,,,,,,,,,,,,,,,,,,,8,8,img/B08_08.jpg,MF,Press J if the face is MALE and K if the face is FEMALE, ,JK,,,,,,,,,,,,,,,,,,,,,,,,,,,,,,,,,,,,,,,2,0.7629,,,,,,,,,,,,,,0,62,62,85,1,,,,,,,,,,,,,space,0.3327,,,,,,,,,,,,,,,,,,,,,,,,,,,,,,,,,,,,,,,,,,,,,,,,,,,,,,,,,,,,,,,,,
,,,,361734,001,2024-02-02_11h38.55.467,fluency,2022.2.5,Win32,15.01501502,,,,,,,,,,,,,,,,,,,,,,,0,6,img/B06_00.jpg,MF,Press J if the face is MALE and K if the face is FEMALE, ,JK,,,,,,,,,,,,,,,,,,,,,,,,,,,,,,,,,,,,,,,,,,,,,,,,,,,,,494.5141,0,63,63,55,1,109,0,0,0,0,1,98,,,,,,,,,,,,,,,,,,,,,,,,,,,,,,,,,,,,,,,,,,,,,,,,,,,,,,,,,,,,,,,,,,,,,,,,
,,,,361734,001,2024-02-02_11h38.55.467,fluency,2022.2.5,Win32,15.01501502,,,,,,,,,,,,,,,,,,,,,,,,,,,,,,,,,,,,,,,,,,,,,,,,,,,,,,,,,,,,,,,,,,,,,,,,,,,,,,,,,,,,,,,,,0,0,0,0,1,,"[""j""]",[0.7683999999761681],1,"[""j""]",[0.7683999999761681],,,,,,,,,,,,,,,,,,,,,,,,,,,,,,,,,,,,,,,,,,,,,,,,,,,,,,,,,,,,,,,,,,,
,,,,361734,001,2024-02-02_11h38.55.467,fluency,2022.2.5,Win32,15.01501502,,,,,,,,,,,,,,,,,,,,,,,0,6,img/B06_00.jpg,MF,Press J if the face is MALE and K if the face is FEMALE, ,JK,,,,,,,,,,,,,,,,,,,,,,,,,,,,,,,,,,,,,,,4,0.6345,,,,,,,,,,,,,,0,63,63,55,1,,,,,,,,,,,,,space,0.7672,,,,,,,,,,,,,,,,,,,,,,,,,,,,,,,,,,,,,,,,,,,,,,,,,,,,,,,,,,,,,,,,,
,,,,361734,001,2024-02-02_11h38.55.467,fluency,2022.2.5,Win32,15.01501502,,,,,,,,,,,,,,,,,,,,,,,3,9,img/B09_03.jpg,MF,Press J if the face is MALE and K if the face is FEMALE, ,JK,,,,,,,,,,,,,,,,,,,,,,,,,,,,,,,,,,,,,,,,,,,,,,,,,,,,,501.0694,0,64,64,91,1,109,0,0,0,0,1,98,,,,,,,,,,,,,,,,,,,,,,,,,,,,,,,,,,,,,,,,,,,,,,,,,,,,,,,,,,,,,,,,,,,,,,,,
,,,,361734,001,2024-02-02_11h38.55.467,fluency,2022.2.5,Win32,15.01501502,,,,,,,,,,,,,,,,,,,,,,,,,,,,,,,,,,,,,,,,,,,,,,,,,,,,,,,,,,,,,,,,,,,,,,,,,,,,,,,,,,,,,,,,,0,0,0,0,1,,"[""j""]",[0.6715000000000373],1,"[""j""]",[0.6715000000000373],,,,,,,,,,,,,,,,,,,,,,,,,,,,,,,,,,,,,,,,,,,,,,,,,,,,,,,,,,,,,,,,,,,
,,,,361734,001,2024-02-02_11h38.55.467,fluency,2022.2.5,Win32,15.01501502,,,,,,,,,,,,,,,,,,,,,,,3,9,img/B09_03.jpg,MF,Press J if the face is MALE and K if the face is FEMALE, ,JK,,,,,,,,,,,,,,,,,,,,,,,,,,,,,,,,,,,,,,,2,0.9454,,,,,,,,,,,,,,0,64,64,91,1,,,,,,,,,,,,,space,0.62,,,,,,,,,,,,,,,,,,,,,,,,,,,,,,,,,,,,,,,,,,,,,,,,,,,,,,,,,,,,,,,,,
,,,,361734,001,2024-02-02_11h38.55.467,fluency,2022.2.5,Win32,15.01501502,,,,,,,,,,,,,,,,,,,,,,,9,4,img/B04_09.jpg,MF,Press J if the face is MALE and K if the face is FEMALE, ,JK,,,,,,,,,,,,,,,,,,,,,,,,,,,,,,,,,,,,,,,,,,,,,,,,,,,,,506.8025,0,65,65,42,1,109,0,0,0,0,1,98,,,,,,,,,,,,,,,,,,,,,,,,,,,,,,,,,,,,,,,,,,,,,,,,,,,,,,,,,,,,,,,,,,,,,,,,
,,,,361734,001,2024-02-02_11h38.55.467,fluency,2022.2.5,Win32,15.01501502,,,,,,,,,,,,,,,,,,,,,,,,,,,,,,,,,,,,,,,,,,,,,,,,,,,,,,,space,4.0385,,,,,,,,,,,,,,,,,,,,,,,,,,,,,,,,,,,,,,,,,2,,,,,0,0,0,0,1,,,,,,,,,,,,,,,,,,,,,,,,,,,,,,,,,,,,,,,,,,,,,,,,,,,,,,,,,,,,
,,,,361734,001,2024-02-02_11h38.55.467,fluency,2022.2.5,Win32,15.01501502,,,,,,,,,,,,,,,,,,,,,,,,,,,,,,,,,,,,,,,,,,,,,,,,,,,,,,,,,,,,,,,,,,,,,,,,,,,,,,,,,,,,,,,,,0,0,0,0,1,,,,,,,,,,,,,,,,,,,,,,,,,,,,,,,,,,,,,,,,,,,,,,,,,,,,,,,,,,,,,,,,,,,,,,,,,
,,,,361734,001,2024-02-02_11h38.55.467,fluency,2022.2.5,Win32,15.01501502,,,,,,,,,,,,,,,,,,,,,,,9,4,img/B04_09.jpg,MF,Press J if the face is MALE and K if the face is FEMALE, ,JK,,,,,,,,,,,,,,,,,,,,,,,,,,,,,,,,,,,,,,,,,,,,,,,,,,,,,515.9344,0,65,65,42,1,109,1,0,1,0,1,98,,,,,,,,,,,,,,,,,,,,,,,,,,,,,,,,,,,,,,,,,,,,,,,,,,,,,,,,,,,,,,,,,,,,,,,,
,,,,361734,001,2024-02-02_11h38.55.467,fluency,2022.2.5,Win32,15.01501502,,,,,,,,,,,,,,,,,,,,,,,,,,,,,,,,,,,,,,,,,,,,,,,,,,,,,,,,,,,,,,,,,,,,,,,,,,,,,,,,,,,,,,,,,1,0,1,0,1,,"[""k""]",[0.6018000000119628],2,"[""k"",""1""]","[0.6018000000119628,1.1523000000120192]",,,,,,,,,,,,,,,,,,,,,,,,,,,,,,,,,,,,,,,,,,,,,,,,,,,,,,,,,,,,,,,,,,,
,,,,361734,001,2024-02-02_11h38.55.467,fluency,2022.2.5,Win32,15.01501502,,,,,,,,,,,,,,,,,,,,,,,9,4,img/B04_09.jpg,MF,Press J if the face is MALE and K if the face is FEMALE, ,JK,,,,,,,,,,,,,,,,,,,,,,,,,,,,,,,,,,,,,,,1,0.4219,,,,,,,,,,,,,,0,65,65,42,1,,,,,,,,,,,,,space,0.6228,,,,,,,,,,,,,,,,,,,,,,,,,,,,,,,,,,,,,,,,,,,,,,,,,,,,,,,,,,,,,,,,,
,,,,361734,001,2024-02-02_11h38.55.467,fluency,2022.2.5,Win32,15.01501502,,,,,,,,,,,,,,,,,,,,,,,7,6,img/B06_07.jpg,MF,Press J if the face is MALE and K if the face is FEMALE, ,JK,,,,,,,,,,,,,,,,,,,,,,,,,,,,,,,,,,,,,,,,,,,,,,,,,,,,,522.1421,0,66,66,62,1,109,0,0,0,0,1,98,,,,,,,,,,,,,,,,,,,,,,,,,,,,,,,,,,,,,,,,,,,,,,,,,,,,,,,,,,,,,,,,,,,,,,,,
,,,,361734,001,2024-02-02_11h38.55.467,fluency,2022.2.5,Win32,15.01501502,,,,,,,,,,,,,,,,,,,,,,,,,,,,,,,,,,,,,,,,,,,,,,,,,,,,,,,,,,,,,,,,,,,,,,,,,,,,,,,,,,,,,,,,,0,0,0,0,1,,"[""k""]",[0.7943000000119582],2,"[""k""]",[0.7943000000119582],,,,,,,,,,,,,,,,,,,,,,,,,,,,,,,,,,,,,,,,,,,,,,,,,,,,,,,,,,,,,,,,,,,
,,,,361734,001,2024-02-02_11h38.55.467,fluency,2022.2.5,Win32,15.01501502,,,,,,,,,,,,,,,,,,,,,,,7,6,img/B06_07.jpg,MF,Press J if the face is MALE and K if the face is FEMALE, ,JK,,,,,,,,,,,,,,,,,,,,,,,,,,,,,,,,,,,,,,,1,0.4483,,,,,,,,,,,,,,0,66,66,62,1,,,,,,,,,,,,,space,0.3439,,,,,,,,,,,,,,,,,,,,,,,,,,,,,,,,,,,,,,,,,,,,,,,,,,,,,,,,,,,,,,,,,
,,,,361734,001,2024-02-02_11h38.55.467,fluency,2022.2.5,Win32,15.01501502,,,,,,,,,,,,,,,,,,,,,,,10,5,img/B05_10.jpg,MF,Press J if the face is MALE and K if the face is FEMALE, ,JK,,,,,,,,,,,,,,,,,,,,,,,,,,,,,,,,,,,,,,,,,,,,,,,,,,,,,527.1245,0,67,67,54,1,109,0,0,0,0,1,98,,,,,,,,,,,,,,,,,,,,,,,,,,,,,,,,,,,,,,,,,,,,,,,,,,,,,,,,,,,,,,,,,,,,,,,,
,,,,361734,001,2024-02-02_11h38.55.467,fluency,2022.2.5,Win32,15.01501502,,,,,,,,,,,,,,,,,,,,,,,,,,,,,,,,,,,,,,,,,,,,,,,,,,,,,,,,,,,,,,,,,,,,,,,,,,,,,,,,,,,,,,,,,0,0,0,0,1,,"[""k""]",[0.8043999999761127],2,"[""k""]",[0.8043999999761127],,,,,,,,,,,,,,,,,,,,,,,,,,,,,,,,,,,,,,,,,,,,,,,,,,,,,,,,,,,,,,,,,,,
,,,,361734,001,2024-02-02_11h38.55.467,fluency,2022.2.5,Win32,15.01501502,,,,,,,,,,,,,,,,,,,,,,,10,5,img/B05_10.jpg,MF,Press J if the face is MALE and K if the face is FEMALE, ,JK,,,,,,,,,,,,,,,,,,,,,,,,,,,,,,,,,,,,,,,2,0.7434,,,,,,,,,,,,,,0,67,67,54,1,,,,,,,,,,,,,space,0.519,,,,,,,,,,,,,,,,,,,,,,,,,,,,,,,,,,,,,,,,,,,,,,,,,,,,,,,,,,,,,,,,,
,,,,361734,001,2024-02-02_11h38.55.467,fluency,2022.2.5,Win32,15.01501502,,,,,,,,,,,,,,,,,,,,,,,4,6,img/B06_04.jpg,MF,Press J if the face is MALE and K if the face is FEMALE, ,JK,,,,,,,,,,,,,,,,,,,,,,,,,,,,,,,,,,,,,,,,,,,,,,,,,,,,,533.5862,0,68,68,59,1,109,0,0,0,0,1,98,,,,,,,,,,,,,,,,,,,,,,,,,,,,,,,,,,,,,,,,,,,,,,,,,,,,,,,,,,,,,,,,,,,,,,,,
,,,,361734,001,2024-02-02_11h38.55.467,fluency,2022.2.5,Win32,15.01501502,,,,,,,,,,,,,,,,,,,,,,,,,,,,,,,,,,,,,,,,,,,,,,,,,,,,,,,,,,,,,,,,,,,,,,,,,,,,,,,,,,,,,,,,,0,0,0,0,1,,"[""j""]",[1.0418000000119036],2,"[""j""]",[1.0418000000119036],,,,,,,,,,,,,,,,,,,,,,,,,,,,,,,,,,,,,,,,,,,,,,,,,,,,,,,,,,,,,,,,,,,
,,,,361734,001,2024-02-02_11h38.55.467,fluency,2022.2.5,Win32,15.01501502,,,,,,,,,,,,,,,,,,,,,,,4,6,img/B06_04.jpg,MF,Press J if the face is MALE and K if the face is FEMALE, ,JK,,,,,,,,,,,,,,,,,,,,,,,,,,,,,,,,,,,,,,,1,0.624,,,,,,,,,,,,,,0,68,68,59,1,,,,,,,,,,,,,space,1.1775,,,,,,,,,,,,,,,,,,,,,,,,,,,,,,,,,,,,,,,,,,,,,,,,,,,,,,,,,,,,,,,,,
,,,,361734,001,2024-02-02_11h38.55.467,fluency,2022.2.5,Win32,15.01501502,,,,,,,,,,,,,,,,,,,,,,,7,1,img/B01_07.jpg,MF,Press J if the face is MALE and K if the face is FEMALE, ,JK,,,,,,,,,,,,,,,,,,,,,,,,,,,,,,,,,,,,,,,,,,,,,,,,,,,,,539.5822,0,69,69,7,1,109,0,0,0,0,1,98,,,,,,,,,,,,,,,,,,,,,,,,,,,,,,,,,,,,,,,,,,,,,,,,,,,,,,,,,,,,,,,,,,,,,,,,
,,,,361734,001,2024-02-02_11h38.55.467,fluency,2022.2.5,Win32,15.01501502,,,,,,,,,,,,,,,,,,,,,,,,,,,,,,,,,,,,,,,,,,,,,,,,,,,,,,,,,,,,,,,,,,,,,,,,,,,,,,,,,,,,,,,,,0,0,0,0,1,,"[""k""]",[1.4681999999880873],2,"[""k""]",[1.4682999999523645],,,,,,,,,,,,,,,,,,,,,,,,,,,,,,,,,,,,,,,,,,,,,,,,,,,,,,,,,,,,,,,,,,,
,,,,361734,001,2024-02-02_11h38.55.467,fluency,2022.2.5,Win32,15.01501502,,,,,,,,,,,,,,,,,,,,,,,7,1,img/B01_07.jpg,MF,Press J if the face is MALE and K if the face is FEMALE, ,JK,,,,,,,,,,,,,,,,,,,,,,,,,,,,,,,,,,,,,,,3,0.5127,,,,,,,,,,,,,,0,69,69,7,1,,,,,,,,,,,,,space,0.6158,,,,,,,,,,,,,,,,,,,,,,,,,,,,,,,,,,,,,,,,,,,,,,,,,,,,,,,,,,,,,,,,,
,,,,361734,001,2024-02-02_11h38.55.467,fluency,2022.2.5,Win32,15.01501502,,,,,,,,,,,,,,,,,,,,,,,1,5,img/B05_01.jpg,MF,Press J if the face is MALE and K if the face is FEMALE, ,JK,,,,,,,,,,,,,,,,,,,,,,,,,,,,,,,,,,,,,,,,,,,,,,,,,,,,,544.8801,0,70,70,45,1,109,0,0,0,0,1,98,,,,,,,,,,,,,,,,,,,,,,,,,,,,,,,,,,,,,,,,,,,,,,,,,,,,,,,,,,,,,,,,,,,,,,,,
,,,,361734,001,2024-02-02_11h38.55.467,fluency,2022.2.5,Win32,15.01501502,,,,,,,,,,,,,,,,,,,,,,,,,,,,,,,,,,,,,,,,,,,,,,,,,,,,,,,,,,,,,,,,,,,,,,,,,,,,,,,,,,,,,,,,,0,0,0,0,1,,"[""j""]",[0.6878000000118618],2,"[""j""]",[0.6876999999880127],,,,,,,,,,,,,,,,,,,,,,,,,,,,,,,,,,,,,,,,,,,,,,,,,,,,,,,,,,,,,,,,,,,
,,,,361734,001,2024-02-02_11h38.55.467,fluency,2022.2.5,Win32,15.01501502,,,,,,,,,,,,,,,,,,,,,,,1,5,img/B05_01.jpg,MF,Press J if the face is MALE and K if the face is FEMALE, ,JK,,,,,,,,,,,,,,,,,,,,,,,,,,,,,,,,,,,,,,,2,0.4666,,,,,,,,,,,,,,0,70,70,45,1,,,,,,,,,,,,,space,0.2841,,,,,,,,,,,,,,,,,,,,,,,,,,,,,,,,,,,,,,,,,,,,,,,,,,,,,,,,,,,,,,,,,
,,,,361734,001,2024-02-02_11h38.55.467,fluency,2022.2.5,Win32,15.01501502,,,,,,,,,,,,,,,,,,,,,,,8,3,img/B03_08.jpg,MF,Press J if the face is MALE and K if the face is FEMALE, ,JK,,,,,,,,,,,,,,,,,,,,,,,,,,,,,,,,,,,,,,,,,,,,,,,,,,,,,549.8023,0,71,71,30,1,109,0,0,0,0,1,98,,,,,,,,,,,,,,,,,,,,,,,,,,,,,,,,,,,,,,,,,,,,,,,,,,,,,,,,,,,,,,,,,,,,,,,,
,,,,361734,001,2024-02-02_11h38.55.467,fluency,2022.2.5,Win32,15.01501502,,,,,,,,,,,,,,,,,,,,,,,,,,,,,,,,,,,,,,,,,,,,,,,,,,,,,,,,,,,,,,,,,,,,,,,,,,,,,,,,,,,,,,,,,0,0,0,0,1,,"[""k""]",[0.7004000000357564],2,"[""k""]",[0.7003000000119073],,,,,,,,,,,,,,,,,,,,,,,,,,,,,,,,,,,,,,,,,,,,,,,,,,,,,,,,,,,,,,,,,,,
,,,,361734,001,2024-02-02_11h38.55.467,fluency,2022.2.5,Win32,15.01501502,,,,,,,,,,,,,,,,,,,,,,,8,3,img/B03_08.jpg,MF,Press J if the face is MALE and K if the face is FEMALE, ,JK,,,,,,,,,,,,,,,,,,,,,,,,,,,,,,,,,,,,,,,6,0.4371,,,,,,,,,,,,,,0,71,71,30,1,,,,,,,,,,,,,space,0.6295,,,,,,,,,,,,,,,,,,,,,,,,,,,,,,,,,,,,,,,,,,,,,,,,,,,,,,,,,,,,,,,,,
,,,,361734,001,2024-02-02_11h38.55.467,fluency,2022.2.5,Win32,15.01501502,,,,,,,,,,,,,,,,,,,,,,,2,2,img/B02_02.jpg,MF,Press J if the face is MALE and K if the face is FEMALE, ,JK,,,,,,,,,,,,,,,,,,,,,,,,,,,,,,,,,,,,,,,,,,,,,,,,,,,,,554.9995,0,72,72,13,1,109,0,0,0,0,1,98,,,,,,,,,,,,,,,,,,,,,,,,,,,,,,,,,,,,,,,,,,,,,,,,,,,,,,,,,,,,,,,,,,,,,,,,
,,,,361734,001,2024-02-02_11h38.55.467,fluency,2022.2.5,Win32,15.01501502,,,,,,,,,,,,,,,,,,,,,,,,,,,,,,,,,,,,,,,,,,,,,,,,,,,,,,,,,,,,,,,,,,,,,,,,,,,,,,,,,,,,,,,,,0,0,0,0,1,,"[""j""]",[0.7771999999880563],2,"[""j""]",[0.7771000000237791],,,,,,,,,,,,,,,,,,,,,,,,,,,,,,,,,,,,,,,,,,,,,,,,,,,,,,,,,,,,,,,,,,,
,,,,361734,001,2024-02-02_11h38.55.467,fluency,2022.2.5,Win32,15.01501502,,,,,,,,,,,,,,,,,,,,,,,2,2,img/B02_02.jpg,MF,Press J if the face is MALE and K if the face is FEMALE, ,JK,,,,,,,,,,,,,,,,,,,,,,,,,,,,,,,,,,,,,,,2,0.4511,,,,,,,,,,,,,,0,72,72,13,1,,,,,,,,,,,,,space,0.349,,,,,,,,,,,,,,,,,,,,,,,,,,,,,,,,,,,,,,,,,,,,,,,,,,,,,,,,,,,,,,,,,
,,,,361734,001,2024-02-02_11h38.55.467,fluency,2022.2.5,Win32,15.01501502,,,,,,,,,,,,,,,,,,,,,,,8,5,img/B05_08.jpg,MF,Press J if the face is MALE and K if the face is FEMALE, ,JK,,,,,,,,,,,,,,,,,,,,,,,,,,,,,,,,,,,,,,,,,,,,,,,,,,,,,560.0051,0,73,73,52,1,109,0,0,0,0,1,98,,,,,,,,,,,,,,,,,,,,,,,,,,,,,,,,,,,,,,,,,,,,,,,,,,,,,,,,,,,,,,,,,,,,,,,,
,,,,361734,001,2024-02-02_11h38.55.467,fluency,2022.2.5,Win32,15.01501502,,,,,,,,,,,,,,,,,,,,,,,,,,,,,,,,,,,,,,,,,,,,,,,,,,,,,,,,,,,,,,,,,,,,,,,,,,,,,,,,,,,,,,,,,0,0,0,0,1,,"[""k""]",[1.2374999999999545],2,"[""k"",""2""]","[1.237400000035791,1.8605000000000018]",,,,,,,,,,,,,,,,,,,,,,,,,,,,,,,,,,,,,,,,,,,,,,,,,,,,,,,,,,,,,,,,,,,
,,,,361734,001,2024-02-02_11h38.55.467,fluency,2022.2.5,Win32,15.01501502,,,,,,,,,,,,,,,,,,,,,,,8,5,img/B05_08.jpg,MF,Press J if the face is MALE and K if the face is FEMALE, ,JK,,,,,,,,,,,,,,,,,,,,,,,,,,,,,,,,,,,,,,,2,0.5346,,,,,,,,,,,,,,0,73,73,52,1,,,,,,,,,,,,,space,0.3569,,,,,,,,,,,,,,,,,,,,,,,,,,,,,,,,,,,,,,,,,,,,,,,,,,,,,,,,,,,,,,,,,
,,,,361734,001,2024-02-02_11h38.55.467,fluency,2022.2.5,Win32,15.01501502,,,,,,,,,,,,,,,,,,,,,,,6,5,img/B05_06.jpg,MF,Press J if the face is MALE and K if the face is FEMALE, ,JK,,,,,,,,,,,,,,,,,,,,,,,,,,,,,,,,,,,,,,,,,,,,,,,,,,,,,566.0397,0,74,74,50,1,109,0,0,0,0,1,98,,,,,,,,,,,,,,,,,,,,,,,,,,,,,,,,,,,,,,,,,,,,,,,,,,,,,,,,,,,,,,,,,,,,,,,,
,,,,361734,001,2024-02-02_11h38.55.467,fluency,2022.2.5,Win32,15.01501502,,,,,,,,,,,,,,,,,,,,,,,,,,,,,,,,,,,,,,,,,,,,,,,,,,,,,,,,,,,,,,,,,,,,,,,,,,,,,,,,,,,,,,,,,0,0,0,0,1,,"[""k""]",[1.2856000000238055],2,"[""k""]",[1.2856000000238055],,,,,,,,,,,,,,,,,,,,,,,,,,,,,,,,,,,,,,,,,,,,,,,,,,,,,,,,,,,,,,,,,,,
,,,,361734,001,2024-02-02_11h38.55.467,fluency,2022.2.5,Win32,15.01501502,,,,,,,,,,,,,,,,,,,,,,,6,5,img/B05_06.jpg,MF,Press J if the face is MALE and K if the face is FEMALE, ,JK,,,,,,,,,,,,,,,,,,,,,,,,,,,,,,,,,,,,,,,2,0.6739,,,,,,,,,,,,,,0,74,74,50,1,,,,,,,,,,,,,space,0.1726,,,,,,,,,,,,,,,,,,,,,,,,,,,,,,,,,,,,,,,,,,,,,,,,,,,,,,,,,,,,,,,,,
,,,,361734,001,2024-02-02_11h38.55.467,fluency,2022.2.5,Win32,15.01501502,,,,,,,,,,,,,,,,,,,,,,,5,4,img/B04_05.jpg,MF,Press J if the face is MALE and K if the face is FEMALE, ,JK,,,,,,,,,,,,,,,,,,,,,,,,,,,,,,,,,,,,,,,,,,,,,,,,,,,,,571.0975,0,75,75,38,1,109,0,0,0,0,1,98,,,,,,,,,,,,,,,,,,,,,,,,,,,,,,,,,,,,,,,,,,,,,,,,,,,,,,,,,,,,,,,,,,,,,,,,
,,,,361734,001,2024-02-02_11h38.55.467,fluency,2022.2.5,Win32,15.01501502,,,,,,,,,,,,,,,,,,,,,,,,,,,,,,,,,,,,,,,,,,,,,,,,,,,,,,,,,,,,,,,,,,,,,,,,,,,,,,,,,,,,,,,,,0,0,0,0,1,,"[""j""]",[0.853899999976079],2,"[""j""]",[0.853899999976079],,,,,,,,,,,,,,,,,,,,,,,,,,,,,,,,,,,,,,,,,,,,,,,,,,,,,,,,,,,,,,,,,,,
,,,,361734,001,2024-02-02_11h38.55.467,fluency,2022.2.5,Win32,15.01501502,,,,,,,,,,,,,,,,,,,,,,,5,4,img/B04_05.jpg,MF,Press J if the face is MALE and K if the face is FEMALE, ,JK,,,,,,,,,,,,,,,,,,,,,,,,,,,,,,,,,,,,,,,2,1.2845,,,,,,,,,,,,,,0,75,75,38,1,,,,,,,,,,,,,space,0.3704,,,,,,,,,,,,,,,,,,,,,,,,,,,,,,,,,,,,,,,,,,,,,,,,,,,,,,,,,,,,,,,,,
,,,,361734,001,2024-02-02_11h38.55.467,fluency,2022.2.5,Win32,15.01501502,,,,,,,,,,,,,,,,,,,,,,,6,7,img/B07_06.jpg,MF,Press J if the face is MALE and K if the face is FEMALE, ,JK,,,,,,,,,,,,,,,,,,,,,,,,,,,,,,,,,,,,,,,,,,,,,,,,,,,,,577.901,0,76,76,72,1,109,0,0,0,0,1,98,,,,,,,,,,,,,,,,,,,,,,,,,,,,,,,,,,,,,,,,,,,,,,,,,,,,,,,,,,,,,,,,,,,,,,,,
,,,,361734,001,2024-02-02_11h38.55.467,fluency,2022.2.5,Win32,15.01501502,,,,,,,,,,,,,,,,,,,,,,,,,,,,,,,,,,,,,,,,,,,,,,,,,,,,,,,,,,,,,,,,,,,,,,,,,,,,,,,,,,,,,,,,,0,0,0,0,1,,"[""k""]",[1.2468999999761081],2,"[""k""]",[1.2468999999761081],,,,,,,,,,,,,,,,,,,,,,,,,,,,,,,,,,,,,,,,,,,,,,,,,,,,,,,,,,,,,,,,,,,
,,,,361734,001,2024-02-02_11h38.55.467,fluency,2022.2.5,Win32,15.01501502,,,,,,,,,,,,,,,,,,,,,,,6,7,img/B07_06.jpg,MF,Press J if the face is MALE and K if the face is FEMALE, ,JK,,,,,,,,,,,,,,,,,,,,,,,,,,,,,,,,,,,,,,,2,0.6767,,,,,,,,,,,,,,0,76,76,72,1,,,,,,,,,,,,,space,0.6154,,,,,,,,,,,,,,,,,,,,,,,,,,,,,,,,,,,,,,,,,,,,,,,,,,,,,,,,,,,,,,,,,
,,,,361734,001,2024-02-02_11h38.55.467,fluency,2022.2.5,Win32,15.01501502,,,,,,,,,,,,,,,,,,,,,,,3,7,img/B07_03.jpg,MF,Press J if the face is MALE and K if the face is FEMALE, ,JK,,,,,,,,,,,,,,,,,,,,,,,,,,,,,,,,,,,,,,,,,,,,,,,,,,,,,584.3145,0,77,77,69,1,109,0,0,0,0,1,98,,,,,,,,,,,,,,,,,,,,,,,,,,,,,,,,,,,,,,,,,,,,,,,,,,,,,,,,,,,,,,,,,,,,,,,,
,,,,361734,001,2024-02-02_11h38.55.467,fluency,2022.2.5,Win32,15.01501502,,,,,,,,,,,,,,,,,,,,,,,,,,,,,,,,,,,,,,,,,,,,,,,,,,,,,,,,,,,,,,,,,,,,,,,,,,,,,,,,,,,,,,,,,0,0,0,0,1,,"[""j""]",[1.11309999996422],2,"[""j""]",[1.1131000000237918],,,,,,,,,,,,,,,,,,,,,,,,,,,,,,,,,,,,,,,,,,,,,,,,,,,,,,,,,,,,,,,,,,,
,,,,361734,001,2024-02-02_11h38.55.467,fluency,2022.2.5,Win32,15.01501502,,,,,,,,,,,,,,,,,,,,,,,3,7,img/B07_03.jpg,MF,Press J if the face is MALE and K if the face is FEMALE, ,JK,,,,,,,,,,,,,,,,,,,,,,,,,,,,,,,,,,,,,,,1,0.6489,,,,,,,,,,,,,,0,77,77,69,1,,,,,,,,,,,,,space,0.2779,,,,,,,,,,,,,,,,,,,,,,,,,,,,,,,,,,,,,,,,,,,,,,,,,,,,,,,,,,,,,,,,,
,,,,361734,001,2024-02-02_11h38.55.467,fluency,2022.2.5,Win32,15.01501502,,,,,,,,,,,,,,,,,,,,,,,7,7,img/B07_07.jpg,MF,Press J if the face is MALE and K if the face is FEMALE, ,JK,,,,,,,,,,,,,,,,,,,,,,,,,,,,,,,,,,,,,,,,,,,,,,,,,,,,,590.4508,0,78,78,73,1,109,0,0,0,0,1,98,,,,,,,,,,,,,,,,,,,,,,,,,,,,,,,,,,,,,,,,,,,,,,,,,,,,,,,,,,,,,,,,,,,,,,,,
,,,,361734,001,2024-02-02_11h38.55.467,fluency,2022.2.5,Win32,15.01501502,,,,,,,,,,,,,,,,,,,,,,,,,,,,,,,,,,,,,,,,,,,,,,,,,,,,,,,,,,,,,,,,,,,,,,,,,,,,,,,,,,,,,,,,,0,0,0,0,1,,"[""k""]",[0.7866000000237818],2,"[""k""]",[0.7866000000237818],,,,,,,,,,,,,,,,,,,,,,,,,,,,,,,,,,,,,,,,,,,,,,,,,,,,,,,,,,,,,,,,,,,
,,,,361734,001,2024-02-02_11h38.55.467,fluency,2022.2.5,Win32,15.01501502,,,,,,,,,,,,,,,,,,,,,,,7,7,img/B07_07.jpg,MF,Press J if the face is MALE and K if the face is FEMALE, ,JK,,,,,,,,,,,,,,,,,,,,,,,,,,,,,,,,,,,,,,,2,0.6158,,,,,,,,,,,,,,0,78,78,73,1,,,,,,,,,,,,,space,0.5296,,,,,,,,,,,,,,,,,,,,,,,,,,,,,,,,,,,,,,,,,,,,,,,,,,,,,,,,,,,,,,,,,
,,,,361734,001,2024-02-02_11h38.55.467,fluency,2022.2.5,Win32,15.01501502,,,,,,,,,,,,,,,,,,,,,,,8,7,img/B07_08.jpg,MF,Press J if the face is MALE and K if the face is FEMALE, ,JK,,,,,,,,,,,,,,,,,,,,,,,,,,,,,,,,,,,,,,,,,,,,,,,,,,,,,595.8349,0,79,79,74,1,109,0,0,0,0,1,98,,,,,,,,,,,,,,,,,,,,,,,,,,,,,,,,,,,,,,,,,,,,,,,,,,,,,,,,,,,,,,,,,,,,,,,,
,,,,361734,001,2024-02-02_11h38.55.467,fluency,2022.2.5,Win32,15.01501502,,,,,,,,,,,,,,,,,,,,,,,,,,,,,,,,,,,,,,,,,,,,,,,,,,,,,,,,,,,,,,,,,,,,,,,,,,,,,,,,,,,,,,,,,0,0,0,0,1,,"[""k""]",[0.7791999999881227],2,"[""k"",""2""]","[0.7792999999522863,1.4118999999761854]",,,,,,,,,,,,,,,,,,,,,,,,,,,,,,,,,,,,,,,,,,,,,,,,,,,,,,,,,,,,,,,,,,,
,,,,361734,001,2024-02-02_11h38.55.467,fluency,2022.2.5,Win32,15.01501502,,,,,,,,,,,,,,,,,,,,,,,8,7,img/B07_08.jpg,MF,Press J if the face is MALE and K if the face is FEMALE, ,JK,,,,,,,,,,,,,,,,,,,,,,,,,,,,,,,,,,,,,,,2,0.4214,,,,,,,,,,,,,,0,79,79,74,1,,,,,,,,,,,,,space,0.5362,,,,,,,,,,,,,,,,,,,,,,,,,,,,,,,,,,,,,,,,,,,,,,,,,,,,,,,,,,,,,,,,,
,,,,361734,001,2024-02-02_11h38.55.467,fluency,2022.2.5,Win32,15.01501502,,,,,,,,,,,,,,,,,,,,,,,1,3,img/B03_01.jpg,MF,Press J if the face is MALE and K if the face is FEMALE, ,JK,,,,,,,,,,,,,,,,,,,,,,,,,,,,,,,,,,,,,,,,,,,,,,,,,,,,,602.0464,0,80,80,23,1,109,0,0,0,0,1,98,,,,,,,,,,,,,,,,,,,,,,,,,,,,,,,,,,,,,,,,,,,,,,,,,,,,,,,,,,,,,,,,,,,,,,,,
,,,,361734,001,2024-02-02_11h38.55.467,fluency,2022.2.5,Win32,15.01501502,,,,,,,,,,,,,,,,,,,,,,,,,,,,,,,,,,,,,,,,,,,,,,,,,,,,,,,,,,,,,,,,,,,,,,,,,,,,,,,,,,,,,,,,,0,0,0,0,1,,"[""j""]",[1.1323999999760872],2,"[""j""]",[1.132299999952238],,,,,,,,,,,,,,,,,,,,,,,,,,,,,,,,,,,,,,,,,,,,,,,,,,,,,,,,,,,,,,,,,,,
,,,,361734,001,2024-02-02_11h38.55.467,fluency,2022.2.5,Win32,15.01501502,,,,,,,,,,,,,,,,,,,,,,,1,3,img/B03_01.jpg,MF,Press J if the face is MALE and K if the face is FEMALE, ,JK,,,,,,,,,,,,,,,,,,,,,,,,,,,,,,,,,,,,,,,3,0.4187,,,,,,,,,,,,,,0,80,80,23,1,,,,,,,,,,,,,space,0.5182,,,,,,,,,,,,,,,,,,,,,,,,,,,,,,,,,,,,,,,,,,,,,,,,,,,,,,,,,,,,,,,,,
,,,,361734,001,2024-02-02_11h38.55.467,fluency,2022.2.5,Win32,15.01501502,,,,,,,,,,,,,,,,,,,,,,,3,2,img/B02_03.jpg,MF,Press J if the face is MALE and K if the face is FEMALE, ,JK,,,,,,,,,,,,,,,,,,,,,,,,,,,,,,,,,,,,,,,,,,,,,,,,,,,,,608.1104,0,81,81,14,1,109,0,0,0,0,1,98,,,,,,,,,,,,,,,,,,,,,,,,,,,,,,,,,,,,,,,,,,,,,,,,,,,,,,,,,,,,,,,,,,,,,,,,
,,,,361734,001,2024-02-02_11h38.55.467,fluency,2022.2.5,Win32,15.01501502,,,,,,,,,,,,,,,,,,,,,,,,,,,,,,,,,,,,,,,,,,,,,,,,,,,,,,,,,,,,,,,,,,,,,,,,,,,,,,,,,,,,,,,,,0,0,0,0,1,,"[""j""]",[1.6090999999643145],2,"[""j"",""2""]","[1.6090999999643145,2.226299999952289]",,,,,,,,,,,,,,,,,,,,,,,,,,,,,,,,,,,,,,,,,,,,,,,,,,,,,,,,,,,,,,,,,,,
,,,,361734,001,2024-02-02_11h38.55.467,fluency,2022.2.5,Win32,15.01501502,,,,,,,,,,,,,,,,,,,,,,,3,2,img/B02_03.jpg,MF,Press J if the face is MALE and K if the face is FEMALE, ,JK,,,,,,,,,,,,,,,,,,,,,,,,,,,,,,,,,,,,,,,2,0.3616,,,,,,,,,,,,,,0,81,81,14,1,,,,,,,,,,,,,space,0.5324,,,,,,,,,,,,,,,,,,,,,,,,,,,,,,,,,,,,,,,,,,,,,,,,,,,,,,,,,,,,,,,,,
,,,,361734,001,2024-02-02_11h38.55.467,fluency,2022.2.5,Win32,15.01501502,,,,,,,,,,,,,,,,,,,,,,,6,8,img/B08_06.jpg,MF,Press J if the face is MALE and K if the face is FEMALE, ,JK,,,,,,,,,,,,,,,,,,,,,,,,,,,,,,,,,,,,,,,,,,,,,,,,,,,,,613.1615,0,82,82,83,1,109,0,0,0,0,1,98,,,,,,,,,,,,,,,,,,,,,,,,,,,,,,,,,,,,,,,,,,,,,,,,,,,,,,,,,,,,,,,,,,,,,,,,
,,,,361734,001,2024-02-02_11h38.55.467,fluency,2022.2.5,Win32,15.01501502,,,,,,,,,,,,,,,,,,,,,,,,,,,,,,,,,,,,,,,,,,,,,,,,,,,,,,,,,,,,,,,,,,,,,,,,,,,,,,,,,,,,,,,,,0,0,0,0,1,,"[""j""]",[1.3460000000000036],2,"[""j""]",[1.3460000000000036],,,,,,,,,,,,,,,,,,,,,,,,,,,,,,,,,,,,,,,,,,,,,,,,,,,,,,,,,,,,,,,,,,,
,,,,361734,001,2024-02-02_11h38.55.467,fluency,2022.2.5,Win32,15.01501502,,,,,,,,,,,,,,,,,,,,,,,6,8,img/B08_06.jpg,MF,Press J if the face is MALE and K if the face is FEMALE, ,JK,,,,,,,,,,,,,,,,,,,,,,,,,,,,,,,,,,,,,,,2,0.6326,,,,,,,,,,,,,,0,82,82,83,1,,,,,,,,,,,,,space,0.6051,,,,,,,,,,,,,,,,,,,,,,,,,,,,,,,,,,,,,,,,,,,,,,,,,,,,,,,,,,,,,,,,,
,,,,361734,001,2024-02-02_11h38.55.467,fluency,2022.2.5,Win32,15.01501502,,,,,,,,,,,,,,,,,,,,,,,10,4,img/B04_10.jpg,MF,Press J if the face is MALE and K if the face is FEMALE, ,JK,,,,,,,,,,,,,,,,,,,,,,,,,,,,,,,,,,,,,,,,,,,,,,,,,,,,,619.587,0,83,83,43,1,109,0,0,0,0,1,98,,,,,,,,,,,,,,,,,,,,,,,,,,,,,,,,,,,,,,,,,,,,,,,,,,,,,,,,,,,,,,,,,,,,,,,,
,,,,361734,001,2024-02-02_11h38.55.467,fluency,2022.2.5,Win32,15.01501502,,,,,,,,,,,,,,,,,,,,,,,,,,,,,,,,,,,,,,,,,,,,,,,,,,,,,,,,,,,,,,,,,,,,,,,,,,,,,,,,,,,,,,,,,0,0,0,0,1,,"[""k""]",[1.1937999999523754],2,"[""k""]",[1.1938000000119473],,,,,,,,,,,,,,,,,,,,,,,,,,,,,,,,,,,,,,,,,,,,,,,,,,,,,,,,,,,,,,,,,,,
,,,,361734,001,2024-02-02_11h38.55.467,fluency,2022.2.5,Win32,15.01501502,,,,,,,,,,,,,,,,,,,,,,,10,4,img/B04_10.jpg,MF,Press J if the face is MALE and K if the face is FEMALE, ,JK,,,,,,,,,,,,,,,,,,,,,,,,,,,,,,,,,,,,,,,1,0.4223,,,,,,,,,,,,,,0,83,83,43,1,,,,,,,,,,,,,space,0.5292,,,,,,,,,,,,,,,,,,,,,,,,,,,,,,,,,,,,,,,,,,,,,,,,,,,,,,,,,,,,,,,,,
,,,,361734,001,2024-02-02_11h38.55.467,fluency,2022.2.5,Win32,15.01501502,,,,,,,,,,,,,,,,,,,,,,,9,8,img/B08_09.jpg,MF,Press J if the face is MALE and K if the face is FEMALE, ,JK,,,,,,,,,,,,,,,,,,,,,,,,,,,,,,,,,,,,,,,,,,,,,,,,,,,,,624.712,0,84,84,86,1,109,0,0,0,0,1,98,,,,,,,,,,,,,,,,,,,,,,,,,,,,,,,,,,,,,,,,,,,,,,,,,,,,,,,,,,,,,,,,,,,,,,,,
,,,,361734,001,2024-02-02_11h38.55.467,fluency,2022.2.5,Win32,15.01501502,,,,,,,,,,,,,,,,,,,,,,,,,,,,,,,,,,,,,,,,,,,,,,,,,,,,,,,,,,,,,,,,,,,,,,,,,,,,,,,,,,,,,,,,,0,0,0,0,1,,"[""j""]",[0.8543999999760672],2,"[""j""]",[0.8543999999760672],,,,,,,,,,,,,,,,,,,,,,,,,,,,,,,,,,,,,,,,,,,,,,,,,,,,,,,,,,,,,,,,,,,
,,,,361734,001,2024-02-02_11h38.55.467,fluency,2022.2.5,Win32,15.01501502,,,,,,,,,,,,,,,,,,,,,,,9,8,img/B08_09.jpg,MF,Press J if the face is MALE and K if the face is FEMALE, ,JK,,,,,,,,,,,,,,,,,,,,,,,,,,,,,,,,,,,,,,,2,0.516,,,,,,,,,,,,,,0,84,84,86,1,,,,,,,,,,,,,space,0.4546,,,,,,,,,,,,,,,,,,,,,,,,,,,,,,,,,,,,,,,,,,,,,,,,,,,,,,,,,,,,,,,,,
,,,,361734,001,2024-02-02_11h38.55.467,fluency,2022.2.5,Win32,15.01501502,,,,,,,,,,,,,,,,,,,,,,,0,1,img/B01_00.jpg,MF,Press J if the face is MALE and K if the face is FEMALE, ,JK,,,,,,,,,,,,,,,,,,,,,,,,,,,,,,,,,,,,,,,,,,,,,,,,,,,,,629.8503,0,85,85,0,1,109,0,0,0,0,1,98,,,,,,,,,,,,,,,,,,,,,,,,,,,,,,,,,,,,,,,,,,,,,,,,,,,,,,,,,,,,,,,,,,,,,,,,
,,,,361734,001,2024-02-02_11h38.55.467,fluency,2022.2.5,Win32,15.01501502,,,,,,,,,,,,,,,,,,,,,,,,,,,,,,,,,,,,,,,,,,,,,,,,,,,,,,,,,,,,,,,,,,,,,,,,,,,,,,,,,,,,,,,,,0,0,0,0,1,,"[""j""]",[0.8931999999880418],2,"[""j""]",[0.8931000000237646],,,,,,,,,,,,,,,,,,,,,,,,,,,,,,,,,,,,,,,,,,,,,,,,,,,,,,,,,,,,,,,,,,,
,,,,361734,001,2024-02-02_11h38.55.467,fluency,2022.2.5,Win32,15.01501502,,,,,,,,,,,,,,,,,,,,,,,0,1,img/B01_00.jpg,MF,Press J if the face is MALE and K if the face is FEMALE, ,JK,,,,,,,,,,,,,,,,,,,,,,,,,,,,,,,,,,,,,,,2,0.6101,,,,,,,,,,,,,,0,85,85,0,1,,,,,,,,,,,,,space,1.0313,,,,,,,,,,,,,,,,,,,,,,,,,,,,,,,,,,,,,,,,,,,,,,,,,,,,,,,,,,,,,,,,,
,,,,361734,001,2024-02-02_11h38.55.467,fluency,2022.2.5,Win32,15.01501502,,,,,,,,,,,,,,,,,,,,,,,0,5,img/B05_00.jpg,MF,Press J if the face is MALE and K if the face is FEMALE, ,JK,,,,,,,,,,,,,,,,,,,,,,,,,,,,,,,,,,,,,,,,,,,,,,,,,,,,,635.6965,0,86,86,44,1,109,0,0,0,0,1,98,,,,,,,,,,,,,,,,,,,,,,,,,,,,,,,,,,,,,,,,,,,,,,,,,,,,,,,,,,,,,,,,,,,,,,,,
,,,,361734,001,2024-02-02_11h38.55.467,fluency,2022.2.5,Win32,15.01501502,,,,,,,,,,,,,,,,,,,,,,,,,,,,,,,,,,,,,,,,,,,,,,,,,,,,,,,,,,,,,,,,,,,,,,,,,,,,,,,,,,,,,,,,,0,0,0,0,1,,"[""j""]",[0.6213999999761199],2,"[""j""]",[0.6213000000119564],,,,,,,,,,,,,,,,,,,,,,,,,,,,,,,,,,,,,,,,,,,,,,,,,,,,,,,,,,,,,,,,,,,
,,,,361734,001,2024-02-02_11h38.55.467,fluency,2022.2.5,Win32,15.01501502,,,,,,,,,,,,,,,,,,,,,,,0,5,img/B05_00.jpg,MF,Press J if the face is MALE and K if the face is FEMALE, ,JK,,,,,,,,,,,,,,,,,,,,,,,,,,,,,,,,,,,,,,,2,0.5071,,,,,,,,,,,,,,0,86,86,44,1,,,,,,,,,,,,,space,0.3439,,,,,,,,,,,,,,,,,,,,,,,,,,,,,,,,,,,,,,,,,,,,,,,,,,,,,,,,,,,,,,,,,
,,,,361734,001,2024-02-02_11h38.55.467,fluency,2022.2.5,Win32,15.01501502,,,,,,,,,,,,,,,,,,,,,,,5,10,img/B10_05.jpg,MF,Press J if the face is MALE and K if the face is FEMALE, ,JK,,,,,,,,,,,,,,,,,,,,,,,,,,,,,,,,,,,,,,,,,,,,,,,,,,,,,641.7275,0,87,87,104,1,109,0,0,0,0,1,98,,,,,,,,,,,,,,,,,,,,,,,,,,,,,,,,,,,,,,,,,,,,,,,,,,,,,,,,,,,,,,,,,,,,,,,,
,,,,361734,001,2024-02-02_11h38.55.467,fluency,2022.2.5,Win32,15.01501502,,,,,,,,,,,,,,,,,,,,,,,,,,,,,,,,,,,,,,,,,,,,,,,,,,,,,,,,,,,,,,,,,,,,,,,,,,,,,,,,,,,,,,,,,0,0,0,0,1,,"[""j""]",[0.7538000000120064],2,"[""j""]",[0.7538000000120064],,,,,,,,,,,,,,,,,,,,,,,,,,,,,,,,,,,,,,,,,,,,,,,,,,,,,,,,,,,,,,,,,,,
,,,,361734,001,2024-02-02_11h38.55.467,fluency,2022.2.5,Win32,15.01501502,,,,,,,,,,,,,,,,,,,,,,,5,10,img/B10_05.jpg,MF,Press J if the face is MALE and K if the face is FEMALE, ,JK,,,,,,,,,,,,,,,,,,,,,,,,,,,,,,,,,,,,,,,1,0.4449,,,,,,,,,,,,,,0,87,87,104,1,,,,,,,,,,,,,space,0.1923,,,,,,,,,,,,,,,,,,,,,,,,,,,,,,,,,,,,,,,,,,,,,,,,,,,,,,,,,,,,,,,,,
,,,,361734,001,2024-02-02_11h38.55.467,fluency,2022.2.5,Win32,15.01501502,,,,,,,,,,,,,,,,,,,,,,,0,10,img/B10_00.jpg,MF,Press J if the face is MALE and K if the face is FEMALE, ,JK,,,,,,,,,,,,,,,,,,,,,,,,,,,,,,,,,,,,,,,,,,,,,,,,,,,,,646.5358,0,88,88,99,1,109,0,0,0,0,1,98,,,,,,,,,,,,,,,,,,,,,,,,,,,,,,,,,,,,,,,,,,,,,,,,,,,,,,,,,,,,,,,,,,,,,,,,
,,,,361734,001,2024-02-02_11h38.55.467,fluency,2022.2.5,Win32,15.01501502,,,,,,,,,,,,,,,,,,,,,,,,,,,,,,,,,,,,,,,,,,,,,,,,,,,,,,,,,,,,,,,,,,,,,,,,,,,,,,,,,,,,,,,,,0,0,0,0,1,,"[""j""]",[0.6271999999880791],2,"[""j""]",[0.6270999999642299],,,,,,,,,,,,,,,,,,,,,,,,,,,,,,,,,,,,,,,,,,,,,,,,,,,,,,,,,,,,,,,,,,,
,,,,361734,001,2024-02-02_11h38.55.467,fluency,2022.2.5,Win32,15.01501502,,,,,,,,,,,,,,,,,,,,,,,0,10,img/B10_00.jpg,MF,Press J if the face is MALE and K if the face is FEMALE, ,JK,,,,,,,,,,,,,,,,,,,,,,,,,,,,,,,,,,,,,,,2,0.5248,,,,,,,,,,,,,,0,88,88,99,1,,,,,,,,,,,,,space,0.1741,,,,,,,,,,,,,,,,,,,,,,,,,,,,,,,,,,,,,,,,,,,,,,,,,,,,,,,,,,,,,,,,,
,,,,361734,001,2024-02-02_11h38.55.467,fluency,2022.2.5,Win32,15.01501502,,,,,,,,,,,,,,,,,,,,,,,9,1,img/B01_09.jpg,MF,Press J if the face is MALE and K if the face is FEMALE, ,JK,,,,,,,,,,,,,,,,,,,,,,,,,,,,,,,,,,,,,,,,,,,,,,,,,,,,,652.4046,0,89,89,9,1,109,0,0,0,0,1,98,,,,,,,,,,,,,,,,,,,,,,,,,,,,,,,,,,,,,,,,,,,,,,,,,,,,,,,,,,,,,,,,,,,,,,,,
,,,,361734,001,2024-02-02_11h38.55.467,fluency,2022.2.5,Win32,15.01501502,,,,,,,,,,,,,,,,,,,,,,,,,,,,,,,,,,,,,,,,,,,,,,,,,,,,,,,,,,,,,,,,,,,,,,,,,,,,,,,,,,,,,,,,,0,0,0,0,1,,"[""k""]",[1.0167000000477628],2,"[""k""]",[1.0167000000477628],,,,,,,,,,,,,,,,,,,,,,,,,,,,,,,,,,,,,,,,,,,,,,,,,,,,,,,,,,,,,,,,,,,
,,,,361734,001,2024-02-02_11h38.55.467,fluency,2022.2.5,Win32,15.01501502,,,,,,,,,,,,,,,,,,,,,,,9,1,img/B01_09.jpg,MF,Press J if the face is MALE and K if the face is FEMALE, ,JK,,,,,,,,,,,,,,,,,,,,,,,,,,,,,,,,,,,,,,,3,0.4347,,,,,,,,,,,,,,0,89,89,9,1,,,,,,,,,,,,,space,0.0938,,,,,,,,,,,,,,,,,,,,,,,,,,,,,,,,,,,,,,,,,,,,,,,,,,,,,,,,,,,,,,,,,
,,,,361734,001,2024-02-02_11h38.55.467,fluency,2022.2.5,Win32,15.01501502,,,,,,,,,,,,,,,,,,,,,,,4,10,img/B10_04.jpg,MF,Press J if the face is MALE and K if the face is FEMALE, ,JK,,,,,,,,,,,,,,,,,,,,,,,,,,,,,,,,,,,,,,,,,,,,,,,,,,,,,657.1296,0,90,90,103,1,109,0,0,0,0,1,98,,,,,,,,,,,,,,,,,,,,,,,,,,,,,,,,,,,,,,,,,,,,,,,,,,,,,,,,,,,,,,,,,,,,,,,,
,,,,361734,001,2024-02-02_11h38.55.467,fluency,2022.2.5,Win32,15.01501502,,,,,,,,,,,,,,,,,,,,,,,,,,,,,,,,,,,,,,,,,,,,,,,,,,,,,,,,,,,,,,,,,,,,,,,,,,,,,,,,,,,,,,,,,0,0,0,0,1,,"[""j""]",[0.6296999999881336],2,"[""j""]",[0.6296999999881336],,,,,,,,,,,,,,,,,,,,,,,,,,,,,,,,,,,,,,,,,,,,,,,,,,,,,,,,,,,,,,,,,,,
,,,,361734,001,2024-02-02_11h38.55.467,fluency,2022.2.5,Win32,15.01501502,,,,,,,,,,,,,,,,,,,,,,,4,10,img/B10_04.jpg,MF,Press J if the face is MALE and K if the face is FEMALE, ,JK,,,,,,,,,,,,,,,,,,,,,,,,,,,,,,,,,,,,,,,2,0.364,,,,,,,,,,,,,,0,90,90,103,1,,,,,,,,,,,,,space,0.5014,,,,,,,,,,,,,,,,,,,,,,,,,,,,,,,,,,,,,,,,,,,,,,,,,,,,,,,,,,,,,,,,,
,,,,361734,001,2024-02-02_11h38.55.467,fluency,2022.2.5,Win32,15.01501502,,,,,,,,,,,,,,,,,,,,,,,7,5,img/B05_07.jpg,MF,Press J if the face is MALE and K if the face is FEMALE, ,JK,,,,,,,,,,,,,,,,,,,,,,,,,,,,,,,,,,,,,,,,,,,,,,,,,,,,,662.1091,0,91,91,51,1,109,0,0,0,0,1,98,,,,,,,,,,,,,,,,,,,,,,,,,,,,,,,,,,,,,,,,,,,,,,,,,,,,,,,,,,,,,,,,,,,,,,,,
,,,,361734,001,2024-02-02_11h38.55.467,fluency,2022.2.5,Win32,15.01501502,,,,,,,,,,,,,,,,,,,,,,,,,,,,,,,,,,,,,,,,,,,,,,,,,,,,,,,,,,,,,,,,,,,,,,,,,,,,,,,,,,,,,,,,,0,0,0,0,1,,"[""k""]",[0.7137000000477656],2,"[""k""]",[0.7138000000119291],,,,,,,,,,,,,,,,,,,,,,,,,,,,,,,,,,,,,,,,,,,,,,,,,,,,,,,,,,,,,,,,,,,
,,,,361734,001,2024-02-02_11h38.55.467,fluency,2022.2.5,Win32,15.01501502,,,,,,,,,,,,,,,,,,,,,,,7,5,img/B05_07.jpg,MF,Press J if the face is MALE and K if the face is FEMALE, ,JK,,,,,,,,,,,,,,,,,,,,,,,,,,,,,,,,,,,,,,,4,0.3536,,,,,,,,,,,,,,0,91,91,51,1,,,,,,,,,,,,,space,0.5236,,,,,,,,,,,,,,,,,,,,,,,,,,,,,,,,,,,,,,,,,,,,,,,,,,,,,,,,,,,,,,,,,
,,,,361734,001,2024-02-02_11h38.55.467,fluency,2022.2.5,Win32,15.01501502,,,,,,,,,,,,,,,,,,,,,,,5,2,img/B02_05.jpg,MF,Press J if the face is MALE and K if the face is FEMALE, ,JK,,,,,,,,,,,,,,,,,,,,,,,,,,,,,,,,,,,,,,,,,,,,,,,,,,,,,667.2242,0,92,92,16,1,109,0,0,0,0,1,98,,,,,,,,,,,,,,,,,,,,,,,,,,,,,,,,,,,,,,,,,,,,,,,,,,,,,,,,,,,,,,,,,,,,,,,,
,,,,361734,001,2024-02-02_11h38.55.467,fluency,2022.2.5,Win32,15.01501502,,,,,,,,,,,,,,,,,,,,,,,,,,,,,,,,,,,,,,,,,,,,,,,,,,,,,,,,,,,,,,,,,,,,,,,,,,,,,,,,,,,,,,,,,0,0,0,0,1,,"[""k""]",[0.8830000000000382],2,"[""k""]",[0.8830000000000382],,,,,,,,,,,,,,,,,,,,,,,,,,,,,,,,,,,,,,,,,,,,,,,,,,,,,,,,,,,,,,,,,,,
,,,,361734,001,2024-02-02_11h38.55.467,fluency,2022.2.5,Win32,15.01501502,,,,,,,,,,,,,,,,,,,,,,,5,2,img/B02_05.jpg,MF,Press J if the face is MALE and K if the face is FEMALE, ,JK,,,,,,,,,,,,,,,,,,,,,,,,,,,,,,,,,,,,,,,2,0.5133,,,,,,,,,,,,,,0,92,92,16,1,,,,,,,,,,,,,space,0.3394,,,,,,,,,,,,,,,,,,,,,,,,,,,,,,,,,,,,,,,,,,,,,,,,,,,,,,,,,,,,,,,,,
