idTextbox.text,welcomeDone.numClicks,welcomeDone.timesOn,welcomeDone.timesOff,participant,session,date,expName,psychopyVersion,OS,frameRate,consent_advance.keys,consent_advance.rt,consent_advance_2.keys,consent_advance_2.rt,consentClick.x,consentClick.y,consentClick.leftButton,consentClick.midButton,consentClick.rightButton,consentClick.time,consentClick.clicked_name,instr_advance_3.keys,instr_advance_3.rt,spec_instr_adv.keys,spec_instr_adv.rt,spec_instr_adv2.keys,spec_instr_adv2.rt,instrLoop.thisRepN,instrLoop.thisTrialN,instrLoop.thisN,instrLoop.thisIndex,instrLoop.ran,steps,fams,face_file,cond,instr,term,key_map,attnKeyResp1.keys,attnKeyResp1.rt,q1.thisRepN,q1.thisTrialN,q1.thisN,q1.thisIndex,q1.ran,attnKeyResp2.keys,attnKeyResp2.rt,q2.thisRepN,q2.thisTrialN,q2.thisN,q2.thisIndex,q2.ran,attnKeyResp3.keys,attnKeyResp3.rt,q3.thisRepN,q3.thisTrialN,q3.thisN,q3.thisIndex,q3.ran,practiceStart.keys,practiceStart.rt,practiceResp.keys,practiceResp.rt,timesRedone,practiceRepeat.thisRepN,practiceRepeat.thisTrialN,practiceRepeat.thisN,practiceRepeat.thisIndex,practiceRepeat.ran,attrRating.keys,attrRating.rt,practiceTrial.thisRepN,practiceTrial.thisTrialN,practiceTrial.thisN,practiceTrial.thisIndex,practiceTrial.ran,key_resp_3.keys,key_resp_3.rt,attnChecker.thisRepN,attnChecker.thisTrialN,attnChecker.thisN,attnChecker.thisIndex,attnChecker.ran,faceOnsetTime,trials.thisRepN,trials.thisTrialN,trials.thisN,trials.thisIndex,trials.ran,trials.order,repeat_loop.thisRepN,repeat_loop.thisTrialN,repeat_loop.thisN,repeat_loop.thisIndex,repeat_loop.ran,repeat_loop.order,catResp.keys,catResp.rt,globalTimesRedone,catAllKeys.keys,catAllKeys.rt,contResp.keys,contResp.rt,redo_keypress.keys,redo_keypress.rt,redo_feedback_loop.thisRepN,redo_feedback_loop.thisTrialN,redo_feedback_loop.thisN,redo_feedback_loop.thisIndex,redo_feedback_loop.ran,contResp_2.keys,contResp_2.rt,respQ1.response,respQ1.rt,respQ2.response,respQ2.rt,respQ3.response,respQ3.rt,respQ4.response,respQ4.rt,surveyContinue1.numClicks,surveyContinue1.timesOn,surveyContinue1.timesOff,respQ5.response,respQ5.rt,respQ6.response,respQ6.rt,respQ7.response,respQ7.rt,respQ8.response,respQ8.rt,surveyContinue2.numClicks,surveyContinue2.timesOn,surveyContinue2.timesOff,respQ9.response,respQ9.rt,respQ10.response,respQ10.rt,respQ11.response,respQ11.rt,respQ12.response,respQ12.rt,surveyContinue3.numClicks,surveyContinue3.timesOn,surveyContinue3.timesOff,respQ13.response,respQ13.rt,respQ14.response,respQ14.rt,respQ15.response,respQ15.rt,surveyContinue4.numClicks,surveyContinue4.timesOn,surveyContinue4.timesOff,respAge.response,respAge.rt,genderResp1.response,genderResp1.rt,genderResp2.text,demogexitClick.numClicks,demogexitClick.timesOn,demogexitClick.timesOff,textbox.text,openAnswerClick.numClicks,openAnswerClick.timesOn,openAnswerClick.timesOff,debriefEnd.keys,debriefEnd.rt,exitKey.keys,exitKey.rt
63b6be1a7980350f427461b4,1,[3.66430000001192],[3.66430000001192],378572,001,2023-08-02_07h13.54.845,fluency,2022.2.4,Win32,143.9263097,,,,,,,,,,,,,,,,,,,,,,,,,,,,,,,,,,,,,,,,,,,,,,,,,,,,,,,,,,,,,,,,,,,,,,,,,,,,,,,,,,,,,,,,,,,,,,,,,,,,,,,,,,,,,,,,,,,,,,,,,,,,,,,,,,,,,,,,,,,,,,,,,,,,,,,,,,,,,,,,,
,,,,378572,001,2023-08-02_07h13.54.845,fluency,2022.2.4,Win32,143.9263097,space,1.7936,,,,,,,,,,,,,,,,,,,,,,,,,,,,,,,,,,,,,,,,,,,,,,,,,,,,,,,,,,,,,,,,,,,,,,,,,,,,,,,,,,,,,,,,,,,,,,,,,,,,,,,,,,,,,,,,,,,,,,,,,,,,,,,,,,,,,,,,,,,,,,,,,,,,,,,,,,,,,,,
,,,,378572,001,2023-08-02_07h13.54.845,fluency,2022.2.4,Win32,143.9263097,,,space,0.5044,,,,,,,,,,,,,,,,,,,,,,,,,,,,,,,,,,,,,,,,,,,,,,,,,,,,,,,,,,,,,,,,,,,,,,,,,,,,,,,,,,,,,,,,,,,,,,,,,,,,,,,,,,,,,,,,,,,,,,,,,,,,,,,,,,,,,,,,,,,,,,,,,,,,,,,,,,,,,
,,,,378572,001,2023-08-02_07h13.54.845,fluency,2022.2.4,Win32,143.9263097,,,,,0.297916667,-0.334722222,1,0,0,1.7272,iAgree,,,,,,,,,,,,,,,,,,,,,,,,,,,,,,,,,,,,,,,,,,,,,,,,,,,,,,,,,,,,,,,,,,,,,,,,,,,,,,,,,,,,,,,,,,,,,,,,,,,,,,,,,,,,,,,,,,,,,,,,,,,,,,,,,,,,,,,,,,,,,,,,,,,,,,
,,,,378572,001,2023-08-02_07h13.54.845,fluency,2022.2.4,Win32,143.9263097,,,,,,,,,,,,space,0.4639,,,,,,,,,,,,,,,,,,,,,,,,,,,,,,,,,,,,,,,,,,,,,,,,,,,,,,,,,,,,,,,,,,,,,,,,,,,,,,,,,,,,,,,,,,,,,,,,,,,,,,,,,,,,,,,,,,,,,,,,,,,,,,,,,,,,,,,,,,,,,,,,,,,,
,,,,378572,001,2023-08-02_07h13.54.845,fluency,2022.2.4,Win32,143.9263097,,,,,,,,,,,,,,space,15.4096,space,5.438,0,0,0,94,1,6,9,img/B09_06.jpg,CONTROL,Press K as soon as you see a face, ,KJ,,,,,,,,,,,,,,,,,,,,,,,,,,,,,,,,,,,,,,,,,,,,,,,,,,,,,,,,,,,,,,,,,,,,,,,,,,,,,,,,,,,,,,,,,,,,,,,,,,,,,,,,,,,,,,,,,,,,,,,,,,,,,,,,,,,,
,,,,378572,001,2023-08-02_07h13.54.845,fluency,2022.2.4,Win32,143.9263097,,,,,,,,,,,,,,,,,,,,,,,,,,,,,,c,7.1959,0,0,0,0,1,,,,,,,,,,,,,,,,,,,,,,,,,,,,,,,,,,,,,,,,,,,,,,,,,,,,,,,,,,,,,,,,,,,,,,,,,,,,,,,,,,,,,,,,,,,,,,,,,,,,,,,,,,,,,,,,,,,,,,,,,,,,,
,,,,378572,001,2023-08-02_07h13.54.845,fluency,2022.2.4,Win32,143.9263097,,,,,,,,,,,,,,,,,,,,,,,,,,,,,,,,,,,,,a,6.2468,0,0,0,0,1,,,,,,,,,,,,,,,,,,,,,,,,,,,,,,,,,,,,,,,,,,,,,,,,,,,,,,,,,,,,,,,,,,,,,,,,,,,,,,,,,,,,,,,,,,,,,,,,,,,,,,,,,,,,,,,,,,,,,,
,,,,378572,001,2023-08-02_07h13.54.845,fluency,2022.2.4,Win32,143.9263097,,,,,,,,,,,,,,,,,,,,,,,,,,,,,,,,,,,,,,,,,,,,c,4.2223,0,0,0,0,1,,,,,,,,,,,,,,,,,,,,,,,,,,,,,,,,,,,,,,,,,,,,,,,,,,,,,,,,,,,,,,,,,,,,,,,,,,,,,,,,,,,,,,,,,,,,,,,,,,,,,,,,,,,,,,,
,,,,378572,001,2023-08-02_07h13.54.845,fluency,2022.2.4,Win32,143.9263097,,,,,,,,,,,,,,,,,,,,,,,,,,,,,,,,,,,,,,,,,,,,,,,,,,,space,0.9919,k,0.3863,0,0,0,0,0,1,,,,,,,,,,,,,,,,,,,,,,,,,,,,,,,,,,,,,,,,,,,,,,,,,,,,,,,,,,,,,,,,,,,,,,,,,,,,,,,,,,,,,,,,,,,,,,,,,,,,,
,,,,378572,001,2023-08-02_07h13.54.845,fluency,2022.2.4,Win32,143.9263097,,,,,,,,,,,,,,,,,,,,,,,,,,,,,,,,,,,,,,,,,,,,,,,,,,,,,,,,,,,,,5,3.3238,0,0,0,0,1,,,,,,,,,,,,,,,,,,,,,,,,,,,,,,,,,,,,,,,,,,,,,,,,,,,,,,,,,,,,,,,,,,,,,,,,,,,,,,,,,,,,,,,,,,,,,,
,,,,378572,001,2023-08-02_07h13.54.845,fluency,2022.2.4,Win32,143.9263097,,,,,,,,,,,,,,,,,,,,,,,,,,,,,,,,,,,,,,,,,,,,,,,,,,,,,,,,,,,,,,,,,,,,space,1.7757,0,0,0,0,1,,,,,,,,,,,,,,,,,,,,,,,,,,,,,,,,,,,,,,,,,,,,,,,,,,,,,,,,,,,,,,,,,,,,,,,,,,,,,,,,,,,,,,,
,,,,378572,001,2023-08-02_07h13.54.845,fluency,2022.2.4,Win32,143.9263097,,,,,,,,,,,,,,,,,,,,,,,9,3,img/B03_09.jpg,CONTROL,Press K as soon as you see a face, ,KJ,,,,,,,,,,,,,,,,,,,,,,,,,,,,,,,,,,,,,,,,,,,,,,76.1344,0,0,0,31,1,109,0,0,0,0,1,98,,,,,,,,,,,,,,,,,,,,,,,,,,,,,,,,,,,,,,,,,,,,,,,,,,,,,,,,,,,,,,,,,,,,,,,,,,
,,,,378572,001,2023-08-02_07h13.54.845,fluency,2022.2.4,Win32,143.9263097,,,,,,,,,,,,,,,,,,,,,,,,,,,,,,,,,,,,,,,,,,,,,,,,,,,,,,,,,,,,,,,,,,,,,,,,,,,,,,,,,,0,0,0,0,1,,"[""k""]",[0.3364000000357663],0,"[""k""]",[0.3363000000119172],,,,,,,,,,,,,,,,,,,,,,,,,,,,,,,,,,,,,,,,,,,,,,,,,,,,,,,,,,,,,,,,,,,,,
,,,,378572,001,2023-08-02_07h13.54.845,fluency,2022.2.4,Win32,143.9263097,,,,,,,,,,,,,,,,,,,,,,,9,3,img/B03_09.jpg,CONTROL,Press K as soon as you see a face, ,KJ,,,,,,,,,,,,,,,,,,,,,,,,,,,,,,,,7,0.7947,,,,,,,,,,,,,,0,0,0,31,1,,,,,,,,,,,,,space,1.6276,,,,,,,,,,,,,,,,,,,,,,,,,,,,,,,,,,,,,,,,,,,,,,,,,,,,,,,,,,,,,,,,,,,
,,,,378572,001,2023-08-02_07h13.54.845,fluency,2022.2.4,Win32,143.9263097,,,,,,,,,,,,,,,,,,,,,,,2,7,img/B07_02.jpg,CONTROL,Press K as soon as you see a face, ,KJ,,,,,,,,,,,,,,,,,,,,,,,,,,,,,,,,,,,,,,,,,,,,,,82.5965,0,1,1,68,1,109,0,0,0,0,1,98,,,,,,,,,,,,,,,,,,,,,,,,,,,,,,,,,,,,,,,,,,,,,,,,,,,,,,,,,,,,,,,,,,,,,,,,,,
,,,,378572,001,2023-08-02_07h13.54.845,fluency,2022.2.4,Win32,143.9263097,,,,,,,,,,,,,,,,,,,,,,,,,,,,,,,,,,,,,,,,,,,,,,,,,,,,,,,,,,,,,,,,,,,,,,,,,,,,,,,,,,0,0,0,0,1,,"[""k""]",[0.2922999999522915],0,"[""k""]",[0.2922999999522915],,,,,,,,,,,,,,,,,,,,,,,,,,,,,,,,,,,,,,,,,,,,,,,,,,,,,,,,,,,,,,,,,,,,,
,,,,378572,001,2023-08-02_07h13.54.845,fluency,2022.2.4,Win32,143.9263097,,,,,,,,,,,,,,,,,,,,,,,2,7,img/B07_02.jpg,CONTROL,Press K as soon as you see a face, ,KJ,,,,,,,,,,,,,,,,,,,,,,,,,,,,,,,,6,1.2035,,,,,,,,,,,,,,0,1,1,68,1,,,,,,,,,,,,,space,0.6879,,,,,,,,,,,,,,,,,,,,,,,,,,,,,,,,,,,,,,,,,,,,,,,,,,,,,,,,,,,,,,,,,,,
,,,,378572,001,2023-08-02_07h13.54.845,fluency,2022.2.4,Win32,143.9263097,,,,,,,,,,,,,,,,,,,,,,,7,6,img/B06_07.jpg,CONTROL,Press K as soon as you see a face, ,KJ,,,,,,,,,,,,,,,,,,,,,,,,,,,,,,,,,,,,,,,,,,,,,,88.5174,0,2,2,62,1,109,0,0,0,0,1,98,,,,,,,,,,,,,,,,,,,,,,,,,,,,,,,,,,,,,,,,,,,,,,,,,,,,,,,,,,,,,,,,,,,,,,,,,,
,,,,378572,001,2023-08-02_07h13.54.845,fluency,2022.2.4,Win32,143.9263097,,,,,,,,,,,,,,,,,,,,,,,,,,,,,,,,,,,,,,,,,,,,,,,,,,,,,,,,,,,,,,,,,,,,,,,,,,,,,,,,,,0,0,0,0,1,,"[""k""]",[0.5280999999642404],0,"[""k""]",[0.5281000000238407],,,,,,,,,,,,,,,,,,,,,,,,,,,,,,,,,,,,,,,,,,,,,,,,,,,,,,,,,,,,,,,,,,,,,
,,,,378572,001,2023-08-02_07h13.54.845,fluency,2022.2.4,Win32,143.9263097,,,,,,,,,,,,,,,,,,,,,,,7,6,img/B06_07.jpg,CONTROL,Press K as soon as you see a face, ,KJ,,,,,,,,,,,,,,,,,,,,,,,,,,,,,,,,4,1.4814,,,,,,,,,,,,,,0,2,2,62,1,,,,,,,,,,,,,space,0.6831,,,,,,,,,,,,,,,,,,,,,,,,,,,,,,,,,,,,,,,,,,,,,,,,,,,,,,,,,,,,,,,,,,,
,,,,378572,001,2023-08-02_07h13.54.845,fluency,2022.2.4,Win32,143.9263097,,,,,,,,,,,,,,,,,,,,,,,2,10,img/B10_02.jpg,CONTROL,Press K as soon as you see a face, ,KJ,,,,,,,,,,,,,,,,,,,,,,,,,,,,,,,,,,,,,,,,,,,,,,95.7297,0,3,3,101,1,109,0,0,0,0,1,98,,,,,,,,,,,,,,,,,,,,,,,,,,,,,,,,,,,,,,,,,,,,,,,,,,,,,,,,,,,,,,,,,,,,,,,,,,
,,,,378572,001,2023-08-02_07h13.54.845,fluency,2022.2.4,Win32,143.9263097,,,,,,,,,,,,,,,,,,,,,,,,,,,,,,,,,,,,,,,,,,,,,,,,,,,,,,,,,,,,,,,,,,,,,,,,,,,,,,,,,,0,0,0,0,1,,"[""k""]",[0.3947000000476635],0,"[""k""]",[0.3947000000476635],,,,,,,,,,,,,,,,,,,,,,,,,,,,,,,,,,,,,,,,,,,,,,,,,,,,,,,,,,,,,,,,,,,,,
,,,,378572,001,2023-08-02_07h13.54.845,fluency,2022.2.4,Win32,143.9263097,,,,,,,,,,,,,,,,,,,,,,,2,10,img/B10_02.jpg,CONTROL,Press K as soon as you see a face, ,KJ,,,,,,,,,,,,,,,,,,,,,,,,,,,,,,,,5,0.5213,,,,,,,,,,,,,,0,3,3,101,1,,,,,,,,,,,,,space,0.9875,,,,,,,,,,,,,,,,,,,,,,,,,,,,,,,,,,,,,,,,,,,,,,,,,,,,,,,,,,,,,,,,,,,
,,,,378572,001,2023-08-02_07h13.54.845,fluency,2022.2.4,Win32,143.9263097,,,,,,,,,,,,,,,,,,,,,,,10,7,img/B07_10.jpg,CONTROL,Press K as soon as you see a face, ,KJ,,,,,,,,,,,,,,,,,,,,,,,,,,,,,,,,,,,,,,,,,,,,,,101.2748,0,4,4,76,1,109,0,0,0,0,1,98,,,,,,,,,,,,,,,,,,,,,,,,,,,,,,,,,,,,,,,,,,,,,,,,,,,,,,,,,,,,,,,,,,,,,,,,,,
,,,,378572,001,2023-08-02_07h13.54.845,fluency,2022.2.4,Win32,143.9263097,,,,,,,,,,,,,,,,,,,,,,,,,,,,,,,,,,,,,,,,,,,,,,,,,,,,,,,,,,,,,,,,,,,,,,,,,,,,,,,,,,0,0,0,0,1,,"[""k""]",[0.37740000003577734],0,"[""k""]",[0.37740000003577734],,,,,,,,,,,,,,,,,,,,,,,,,,,,,,,,,,,,,,,,,,,,,,,,,,,,,,,,,,,,,,,,,,,,,
,,,,378572,001,2023-08-02_07h13.54.845,fluency,2022.2.4,Win32,143.9263097,,,,,,,,,,,,,,,,,,,,,,,10,7,img/B07_10.jpg,CONTROL,Press K as soon as you see a face, ,KJ,,,,,,,,,,,,,,,,,,,,,,,,,,,,,,,,5,0.4255,,,,,,,,,,,,,,0,4,4,76,1,,,,,,,,,,,,,space,0.7414,,,,,,,,,,,,,,,,,,,,,,,,,,,,,,,,,,,,,,,,,,,,,,,,,,,,,,,,,,,,,,,,,,,
,,,,378572,001,2023-08-02_07h13.54.845,fluency,2022.2.4,Win32,143.9263097,,,,,,,,,,,,,,,,,,,,,,,8,2,img/B02_08.jpg,CONTROL,Press K as soon as you see a face, ,KJ,,,,,,,,,,,,,,,,,,,,,,,,,,,,,,,,,,,,,,,,,,,,,,106.4935,0,5,5,19,1,109,0,0,0,0,1,98,,,,,,,,,,,,,,,,,,,,,,,,,,,,,,,,,,,,,,,,,,,,,,,,,,,,,,,,,,,,,,,,,,,,,,,,,,
,,,,378572,001,2023-08-02_07h13.54.845,fluency,2022.2.4,Win32,143.9263097,,,,,,,,,,,,,,,,,,,,,,,,,,,,,,,,,,,,,,,,,,,,,,,,,,,,,,,,,,,,,,,,,,,,,,,,,,,,,,,,,,0,0,0,0,1,,"[""k""]",[0.4293999999761695],0,"[""k""]",[0.4293999999761695],,,,,,,,,,,,,,,,,,,,,,,,,,,,,,,,,,,,,,,,,,,,,,,,,,,,,,,,,,,,,,,,,,,,,
,,,,378572,001,2023-08-02_07h13.54.845,fluency,2022.2.4,Win32,143.9263097,,,,,,,,,,,,,,,,,,,,,,,8,2,img/B02_08.jpg,CONTROL,Press K as soon as you see a face, ,KJ,,,,,,,,,,,,,,,,,,,,,,,,,,,,,,,,5,0.6671,,,,,,,,,,,,,,0,5,5,19,1,,,,,,,,,,,,,space,0.431,,,,,,,,,,,,,,,,,,,,,,,,,,,,,,,,,,,,,,,,,,,,,,,,,,,,,,,,,,,,,,,,,,,
,,,,378572,001,2023-08-02_07h13.54.845,fluency,2022.2.4,Win32,143.9263097,,,,,,,,,,,,,,,,,,,,,,,3,7,img/B07_03.jpg,CONTROL,Press K as soon as you see a face, ,KJ,,,,,,,,,,,,,,,,,,,,,,,,,,,,,,,,,,,,,,,,,,,,,,111.6358,0,6,6,69,1,109,0,0,0,0,1,98,,,,,,,,,,,,,,,,,,,,,,,,,,,,,,,,,,,,,,,,,,,,,,,,,,,,,,,,,,,,,,,,,,,,,,,,,,
,,,,378572,001,2023-08-02_07h13.54.845,fluency,2022.2.4,Win32,143.9263097,,,,,,,,,,,,,,,,,,,,,,,,,,,,,,,,,,,,,,,,,,,,,,,,,,,,,,,,,,,,,,,,,,,,,,,,,,,,,,,,,,0,0,0,0,1,,"[""k""]",[0.46860000002385505],0,"[""k""]",[0.4685000000000059],,,,,,,,,,,,,,,,,,,,,,,,,,,,,,,,,,,,,,,,,,,,,,,,,,,,,,,,,,,,,,,,,,,,,
,,,,378572,001,2023-08-02_07h13.54.845,fluency,2022.2.4,Win32,143.9263097,,,,,,,,,,,,,,,,,,,,,,,3,7,img/B07_03.jpg,CONTROL,Press K as soon as you see a face, ,KJ,,,,,,,,,,,,,,,,,,,,,,,,,,,,,,,,6,1.3039,,,,,,,,,,,,,,0,6,6,69,1,,,,,,,,,,,,,space,0.7034,,,,,,,,,,,,,,,,,,,,,,,,,,,,,,,,,,,,,,,,,,,,,,,,,,,,,,,,,,,,,,,,,,,
,,,,378572,001,2023-08-02_07h13.54.845,fluency,2022.2.4,Win32,143.9263097,,,,,,,,,,,,,,,,,,,,,,,3,2,img/B02_03.jpg,CONTROL,Press K as soon as you see a face, ,KJ,,,,,,,,,,,,,,,,,,,,,,,,,,,,,,,,,,,,,,,,,,,,,,117.6739,0,7,7,14,1,109,0,0,0,0,1,98,,,,,,,,,,,,,,,,,,,,,,,,,,,,,,,,,,,,,,,,,,,,,,,,,,,,,,,,,,,,,,,,,,,,,,,,,,
,,,,378572,001,2023-08-02_07h13.54.845,fluency,2022.2.4,Win32,143.9263097,,,,,,,,,,,,,,,,,,,,,,,,,,,,,,,,,,,,,,,,,,,,,,,,,,,,,,,,,,,,,,,,,,,,,,,,,,,,,,,,,,0,0,0,0,1,,"[""k""]",[0.6107000000476717],0,"[""k""]",[0.6107000000476717],,,,,,,,,,,,,,,,,,,,,,,,,,,,,,,,,,,,,,,,,,,,,,,,,,,,,,,,,,,,,,,,,,,,,
,,,,378572,001,2023-08-02_07h13.54.845,fluency,2022.2.4,Win32,143.9263097,,,,,,,,,,,,,,,,,,,,,,,3,2,img/B02_03.jpg,CONTROL,Press K as soon as you see a face, ,KJ,,,,,,,,,,,,,,,,,,,,,,,,,,,,,,,,3,0.6575,,,,,,,,,,,,,,0,7,7,14,1,,,,,,,,,,,,,space,0.8402,,,,,,,,,,,,,,,,,,,,,,,,,,,,,,,,,,,,,,,,,,,,,,,,,,,,,,,,,,,,,,,,,,,
,,,,378572,001,2023-08-02_07h13.54.845,fluency,2022.2.4,Win32,143.9263097,,,,,,,,,,,,,,,,,,,,,,,10,10,img/B10_10.jpg,CONTROL,Press K as soon as you see a face, ,KJ,,,,,,,,,,,,,,,,,,,,,,,,,,,,,,,,,,,,,,,,,,,,,,123.2051,0,8,8,109,1,109,0,0,0,0,1,98,,,,,,,,,,,,,,,,,,,,,,,,,,,,,,,,,,,,,,,,,,,,,,,,,,,,,,,,,,,,,,,,,,,,,,,,,,
,,,,378572,001,2023-08-02_07h13.54.845,fluency,2022.2.4,Win32,143.9263097,,,,,,,,,,,,,,,,,,,,,,,,,,,,,,,,,,,,,,,,,,,,,,,,,,,,,,,,,,,,,,,,,,,,,,,,,,,,,,,,,,0,0,0,0,1,,"[""k""]",[1.079300000011898],0,"[""k""]",[1.0791999999880773],,,,,,,,,,,,,,,,,,,,,,,,,,,,,,,,,,,,,,,,,,,,,,,,,,,,,,,,,,,,,,,,,,,,,
,,,,378572,001,2023-08-02_07h13.54.845,fluency,2022.2.4,Win32,143.9263097,,,,,,,,,,,,,,,,,,,,,,,10,10,img/B10_10.jpg,CONTROL,Press K as soon as you see a face, ,KJ,,,,,,,,,,,,,,,,,,,,,,,,,,,,,,,,4,1.0358,,,,,,,,,,,,,,0,8,8,109,1,,,,,,,,,,,,,space,0.6537,,,,,,,,,,,,,,,,,,,,,,,,,,,,,,,,,,,,,,,,,,,,,,,,,,,,,,,,,,,,,,,,,,,
,,,,378572,001,2023-08-02_07h13.54.845,fluency,2022.2.4,Win32,143.9263097,,,,,,,,,,,,,,,,,,,,,,,10,5,img/B05_10.jpg,CONTROL,Press K as soon as you see a face, ,KJ,,,,,,,,,,,,,,,,,,,,,,,,,,,,,,,,,,,,,,,,,,,,,,129.9246,0,9,9,54,1,109,0,0,0,0,1,98,,,,,,,,,,,,,,,,,,,,,,,,,,,,,,,,,,,,,,,,,,,,,,,,,,,,,,,,,,,,,,,,,,,,,,,,,,
,,,,378572,001,2023-08-02_07h13.54.845,fluency,2022.2.4,Win32,143.9263097,,,,,,,,,,,,,,,,,,,,,,,,,,,,,,,,,,,,,,,,,,,,,,,,,,,,,,,,,,,,,,,,,,,,,,,,,,,,,,,,,,0,0,0,0,1,,"[""k""]",[0.5278000000119221],0,"[""k""]",[0.5278000000119221],,,,,,,,,,,,,,,,,,,,,,,,,,,,,,,,,,,,,,,,,,,,,,,,,,,,,,,,,,,,,,,,,,,,,
,,,,378572,001,2023-08-02_07h13.54.845,fluency,2022.2.4,Win32,143.9263097,,,,,,,,,,,,,,,,,,,,,,,10,5,img/B05_10.jpg,CONTROL,Press K as soon as you see a face, ,KJ,,,,,,,,,,,,,,,,,,,,,,,,,,,,,,,,3,0.3714,,,,,,,,,,,,,,0,9,9,54,1,,,,,,,,,,,,,space,0.4662,,,,,,,,,,,,,,,,,,,,,,,,,,,,,,,,,,,,,,,,,,,,,,,,,,,,,,,,,,,,,,,,,,,
,,,,378572,001,2023-08-02_07h13.54.845,fluency,2022.2.4,Win32,143.9263097,,,,,,,,,,,,,,,,,,,,,,,8,7,img/B07_08.jpg,CONTROL,Press K as soon as you see a face, ,KJ,,,,,,,,,,,,,,,,,,,,,,,,,,,,,,,,,,,,,,,,,,,,,,135.7965,0,10,10,74,1,109,0,0,0,0,1,98,,,,,,,,,,,,,,,,,,,,,,,,,,,,,,,,,,,,,,,,,,,,,,,,,,,,,,,,,,,,,,,,,,,,,,,,,,
,,,,378572,001,2023-08-02_07h13.54.845,fluency,2022.2.4,Win32,143.9263097,,,,,,,,,,,,,,,,,,,,,,,,,,,,,,,,,,,,,,,,,,,,,,,,,,,,,,,,,,,,,,,,,,,,,,,,,,,,,,,,,,0,0,0,0,1,,"[""k""]",[0.46259999996422607],0,"[""k""]",[0.46259999996422607],,,,,,,,,,,,,,,,,,,,,,,,,,,,,,,,,,,,,,,,,,,,,,,,,,,,,,,,,,,,,,,,,,,,,
,,,,378572,001,2023-08-02_07h13.54.845,fluency,2022.2.4,Win32,143.9263097,,,,,,,,,,,,,,,,,,,,,,,8,7,img/B07_08.jpg,CONTROL,Press K as soon as you see a face, ,KJ,,,,,,,,,,,,,,,,,,,,,,,,,,,,,,,,7,8.7431,,,,,,,,,,,,,,0,10,10,74,1,,,,,,,,,,,,,space,0.8487,,,,,,,,,,,,,,,,,,,,,,,,,,,,,,,,,,,,,,,,,,,,,,,,,,,,,,,,,,,,,,,,,,,
,,,,378572,001,2023-08-02_07h13.54.845,fluency,2022.2.4,Win32,143.9263097,,,,,,,,,,,,,,,,,,,,,,,7,10,img/B10_07.jpg,CONTROL,Press K as soon as you see a face, ,KJ,,,,,,,,,,,,,,,,,,,,,,,,,,,,,,,,,,,,,,,,,,,,,,149.4439,0,11,11,106,1,109,0,0,0,0,1,98,,,,,,,,,,,,,,,,,,,,,,,,,,,,,,,,,,,,,,,,,,,,,,,,,,,,,,,,,,,,,,,,,,,,,,,,,,
,,,,378572,001,2023-08-02_07h13.54.845,fluency,2022.2.4,Win32,143.9263097,,,,,,,,,,,,,,,,,,,,,,,,,,,,,,,,,,,,,,,,,,,,,,,,,,,,,,,,,,,,,,,,,,,,,,,,,,,,,,,,,,0,0,0,0,1,,"[""k""]",[0.39670000004770145],0,"[""k""]",[0.39670000004770145],,,,,,,,,,,,,,,,,,,,,,,,,,,,,,,,,,,,,,,,,,,,,,,,,,,,,,,,,,,,,,,,,,,,,
,,,,378572,001,2023-08-02_07h13.54.845,fluency,2022.2.4,Win32,143.9263097,,,,,,,,,,,,,,,,,,,,,,,7,10,img/B10_07.jpg,CONTROL,Press K as soon as you see a face, ,KJ,,,,,,,,,,,,,,,,,,,,,,,,,,,,,,,,4,0.2723,,,,,,,,,,,,,,0,11,11,106,1,,,,,,,,,,,,,space,0.4054,,,,,,,,,,,,,,,,,,,,,,,,,,,,,,,,,,,,,,,,,,,,,,,,,,,,,,,,,,,,,,,,,,,
,,,,378572,001,2023-08-02_07h13.54.845,fluency,2022.2.4,Win32,143.9263097,,,,,,,,,,,,,,,,,,,,,,,6,1,img/B01_06.jpg,CONTROL,Press K as soon as you see a face, ,KJ,,,,,,,,,,,,,,,,,,,,,,,,,,,,,,,,,,,,,,,,,,,,,,155.163,0,12,12,6,1,109,0,0,0,0,1,98,,,,,,,,,,,,,,,,,,,,,,,,,,,,,,,,,,,,,,,,,,,,,,,,,,,,,,,,,,,,,,,,,,,,,,,,,,
,,,,378572,001,2023-08-02_07h13.54.845,fluency,2022.2.4,Win32,143.9263097,,,,,,,,,,,,,,,,,,,,,,,,,,,,,,,,,,,,,,,,,,,,,,,,,,,,,,,,,,,,,,,,,,,,,,,,,,,,,,,,,,0,0,0,0,1,,"[""k""]",[0.8411000000238289],0,"[""k""]",[0.8411000000238289],,,,,,,,,,,,,,,,,,,,,,,,,,,,,,,,,,,,,,,,,,,,,,,,,,,,,,,,,,,,,,,,,,,,,
,,,,378572,001,2023-08-02_07h13.54.845,fluency,2022.2.4,Win32,143.9263097,,,,,,,,,,,,,,,,,,,,,,,6,1,img/B01_06.jpg,CONTROL,Press K as soon as you see a face, ,KJ,,,,,,,,,,,,,,,,,,,,,,,,,,,,,,,,4,4.0188,,,,,,,,,,,,,,0,12,12,6,1,,,,,,,,,,,,,space,0.4113,,,,,,,,,,,,,,,,,,,,,,,,,,,,,,,,,,,,,,,,,,,,,,,,,,,,,,,,,,,,,,,,,,,
,,,,378572,001,2023-08-02_07h13.54.845,fluency,2022.2.4,Win32,143.9263097,,,,,,,,,,,,,,,,,,,,,,,0,3,img/B03_00.jpg,CONTROL,Press K as soon as you see a face, ,KJ,,,,,,,,,,,,,,,,,,,,,,,,,,,,,,,,,,,,,,,,,,,,,,163.6261,0,13,13,22,1,109,0,0,0,0,1,98,,,,,,,,,,,,,,,,,,,,,,,,,,,,,,,,,,,,,,,,,,,,,,,,,,,,,,,,,,,,,,,,,,,,,,,,,,
,,,,378572,001,2023-08-02_07h13.54.845,fluency,2022.2.4,Win32,143.9263097,,,,,,,,,,,,,,,,,,,,,,,,,,,,,,,,,,,,,,,,,,,,,,,,,,,,,,,,,,,,,,,,,,,,,,,,,,,,,,,,,,0,0,0,0,1,,"[""k""]",[0.8425000000000011],0,"[""k""]",[0.8425000000000011],,,,,,,,,,,,,,,,,,,,,,,,,,,,,,,,,,,,,,,,,,,,,,,,,,,,,,,,,,,,,,,,,,,,,
,,,,378572,001,2023-08-02_07h13.54.845,fluency,2022.2.4,Win32,143.9263097,,,,,,,,,,,,,,,,,,,,,,,0,3,img/B03_00.jpg,CONTROL,Press K as soon as you see a face, ,KJ,,,,,,,,,,,,,,,,,,,,,,,,,,,,,,,,5,2.729,,,,,,,,,,,,,,0,13,13,22,1,,,,,,,,,,,,,space,1.1285,,,,,,,,,,,,,,,,,,,,,,,,,,,,,,,,,,,,,,,,,,,,,,,,,,,,,,,,,,,,,,,,,,,
,,,,378572,001,2023-08-02_07h13.54.845,fluency,2022.2.4,Win32,143.9263097,,,,,,,,,,,,,,,,,,,,,,,5,7,img/B07_05.jpg,CONTROL,Press K as soon as you see a face, ,KJ,,,,,,,,,,,,,,,,,,,,,,,,,,,,,,,,,,,,,,,,,,,,,,171.5199,0,14,14,71,1,109,0,0,0,0,1,98,,,,,,,,,,,,,,,,,,,,,,,,,,,,,,,,,,,,,,,,,,,,,,,,,,,,,,,,,,,,,,,,,,,,,,,,,,
,,,,378572,001,2023-08-02_07h13.54.845,fluency,2022.2.4,Win32,143.9263097,,,,,,,,,,,,,,,,,,,,,,,,,,,,,,,,,,,,,,,,,,,,,,,,,,,,,,,,,,,,,,,,,,,,,,,,,,,,,,,,,,0,0,0,0,1,,"[""k""]",[0.36690000003576984],0,"[""k""]",[0.36690000003576984],,,,,,,,,,,,,,,,,,,,,,,,,,,,,,,,,,,,,,,,,,,,,,,,,,,,,,,,,,,,,,,,,,,,,
,,,,378572,001,2023-08-02_07h13.54.845,fluency,2022.2.4,Win32,143.9263097,,,,,,,,,,,,,,,,,,,,,,,5,7,img/B07_05.jpg,CONTROL,Press K as soon as you see a face, ,KJ,,,,,,,,,,,,,,,,,,,,,,,,,,,,,,,,4,1.3456,,,,,,,,,,,,,,0,14,14,71,1,,,,,,,,,,,,,space,0.6254,,,,,,,,,,,,,,,,,,,,,,,,,,,,,,,,,,,,,,,,,,,,,,,,,,,,,,,,,,,,,,,,,,,
,,,,378572,001,2023-08-02_07h13.54.845,fluency,2022.2.4,Win32,143.9263097,,,,,,,,,,,,,,,,,,,,,,,5,4,img/B04_05.jpg,CONTROL,Press K as soon as you see a face, ,KJ,,,,,,,,,,,,,,,,,,,,,,,,,,,,,,,,,,,,,,,,,,,,,,178.5245,0,15,15,38,1,109,0,0,0,0,1,98,,,,,,,,,,,,,,,,,,,,,,,,,,,,,,,,,,,,,,,,,,,,,,,,,,,,,,,,,,,,,,,,,,,,,,,,,,
,,,,378572,001,2023-08-02_07h13.54.845,fluency,2022.2.4,Win32,143.9263097,,,,,,,,,,,,,,,,,,,,,,,,,,,,,,,,,,,,,,,,,,,,,,,,,,,,,,,,,,,,,,,,,,,,,,,,,,,,,,,,,,0,0,0,0,1,,"[""k""]",[0.855800000011925],0,"[""k""]",[0.855800000011925],,,,,,,,,,,,,,,,,,,,,,,,,,,,,,,,,,,,,,,,,,,,,,,,,,,,,,,,,,,,,,,,,,,,,
,,,,378572,001,2023-08-02_07h13.54.845,fluency,2022.2.4,Win32,143.9263097,,,,,,,,,,,,,,,,,,,,,,,5,4,img/B04_05.jpg,CONTROL,Press K as soon as you see a face, ,KJ,,,,,,,,,,,,,,,,,,,,,,,,,,,,,,,,5,1.6702,,,,,,,,,,,,,,0,15,15,38,1,,,,,,,,,,,,,space,0.3422,,,,,,,,,,,,,,,,,,,,,,,,,,,,,,,,,,,,,,,,,,,,,,,,,,,,,,,,,,,,,,,,,,,
,,,,378572,001,2023-08-02_07h13.54.845,fluency,2022.2.4,Win32,143.9263097,,,,,,,,,,,,,,,,,,,,,,,9,6,img/B06_09.jpg,CONTROL,Press K as soon as you see a face, ,KJ,,,,,,,,,,,,,,,,,,,,,,,,,,,,,,,,,,,,,,,,,,,,,,184.5629,0,16,16,64,1,109,0,0,0,0,1,98,,,,,,,,,,,,,,,,,,,,,,,,,,,,,,,,,,,,,,,,,,,,,,,,,,,,,,,,,,,,,,,,,,,,,,,,,,
,,,,378572,001,2023-08-02_07h13.54.845,fluency,2022.2.4,Win32,143.9263097,,,,,,,,,,,,,,,,,,,,,,,,,,,,,,,,,,,,,,,,,,,,,,,,,,,,,,,,,,,,,,,,,,,,,,,,,,,,,,,,,,0,0,0,0,1,,"[""k""]",[0.8791999999880886],0,"[""k""]",[0.8791999999880886],,,,,,,,,,,,,,,,,,,,,,,,,,,,,,,,,,,,,,,,,,,,,,,,,,,,,,,,,,,,,,,,,,,,,
,,,,378572,001,2023-08-02_07h13.54.845,fluency,2022.2.4,Win32,143.9263097,,,,,,,,,,,,,,,,,,,,,,,9,6,img/B06_09.jpg,CONTROL,Press K as soon as you see a face, ,KJ,,,,,,,,,,,,,,,,,,,,,,,,,,,,,,,,5,0.883,,,,,,,,,,,,,,0,16,16,64,1,,,,,,,,,,,,,space,0.1915,,,,,,,,,,,,,,,,,,,,,,,,,,,,,,,,,,,,,,,,,,,,,,,,,,,,,,,,,,,,,,,,,,,
,,,,378572,001,2023-08-02_07h13.54.845,fluency,2022.2.4,Win32,143.9263097,,,,,,,,,,,,,,,,,,,,,,,4,6,img/B06_04.jpg,CONTROL,Press K as soon as you see a face, ,KJ,,,,,,,,,,,,,,,,,,,,,,,,,,,,,,,,,,,,,,,,,,,,,,190.6568,0,17,17,59,1,109,0,0,0,0,1,98,,,,,,,,,,,,,,,,,,,,,,,,,,,,,,,,,,,,,,,,,,,,,,,,,,,,,,,,,,,,,,,,,,,,,,,,,,
,,,,378572,001,2023-08-02_07h13.54.845,fluency,2022.2.4,Win32,143.9263097,,,,,,,,,,,,,,,,,,,,,,,,,,,,,,,,,,,,,,,,,,,,,,,,,,,,,,,,,,,,,,,,,,,,,,,,,,,,,,,,,,0,0,0,0,1,,"[""k""]",[0.3108999999761579],0,"[""k""]",[0.31100000000000705],,,,,,,,,,,,,,,,,,,,,,,,,,,,,,,,,,,,,,,,,,,,,,,,,,,,,,,,,,,,,,,,,,,,,
,,,,378572,001,2023-08-02_07h13.54.845,fluency,2022.2.4,Win32,143.9263097,,,,,,,,,,,,,,,,,,,,,,,4,6,img/B06_04.jpg,CONTROL,Press K as soon as you see a face, ,KJ,,,,,,,,,,,,,,,,,,,,,,,,,,,,,,,,3,0.3889,,,,,,,,,,,,,,0,17,17,59,1,,,,,,,,,,,,,space,0.6071,,,,,,,,,,,,,,,,,,,,,,,,,,,,,,,,,,,,,,,,,,,,,,,,,,,,,,,,,,,,,,,,,,,
,,,,378572,001,2023-08-02_07h13.54.845,fluency,2022.2.4,Win32,143.9263097,,,,,,,,,,,,,,,,,,,,,,,10,4,img/B04_10.jpg,CONTROL,Press K as soon as you see a face, ,KJ,,,,,,,,,,,,,,,,,,,,,,,,,,,,,,,,,,,,,,,,,,,,,,195.6744,0,18,18,43,1,109,0,0,0,0,1,98,,,,,,,,,,,,,,,,,,,,,,,,,,,,,,,,,,,,,,,,,,,,,,,,,,,,,,,,,,,,,,,,,,,,,,,,,,
,,,,378572,001,2023-08-02_07h13.54.845,fluency,2022.2.4,Win32,143.9263097,,,,,,,,,,,,,,,,,,,,,,,,,,,,,,,,,,,,,,,,,,,,,,,,,,,,,,,,,,,,,,,,,,,,,,,,,,,,,,,,,,0,0,0,0,1,,"[""k""]",[0.5194999999999936],0,"[""k""]",[0.5194999999999936],,,,,,,,,,,,,,,,,,,,,,,,,,,,,,,,,,,,,,,,,,,,,,,,,,,,,,,,,,,,,,,,,,,,,
,,,,378572,001,2023-08-02_07h13.54.845,fluency,2022.2.4,Win32,143.9263097,,,,,,,,,,,,,,,,,,,,,,,10,4,img/B04_10.jpg,CONTROL,Press K as soon as you see a face, ,KJ,,,,,,,,,,,,,,,,,,,,,,,,,,,,,,,,2,0.3411,,,,,,,,,,,,,,0,18,18,43,1,,,,,,,,,,,,,space,0.4054,,,,,,,,,,,,,,,,,,,,,,,,,,,,,,,,,,,,,,,,,,,,,,,,,,,,,,,,,,,,,,,,,,,
,,,,378572,001,2023-08-02_07h13.54.845,fluency,2022.2.4,Win32,143.9263097,,,,,,,,,,,,,,,,,,,,,,,2,5,img/B05_02.jpg,CONTROL,Press K as soon as you see a face, ,KJ,,,,,,,,,,,,,,,,,,,,,,,,,,,,,,,,,,,,,,,,,,,,,,200.4756,0,19,19,46,1,109,0,0,0,0,1,98,,,,,,,,,,,,,,,,,,,,,,,,,,,,,,,,,,,,,,,,,,,,,,,,,,,,,,,,,,,,,,,,,,,,,,,,,,
,,,,378572,001,2023-08-02_07h13.54.845,fluency,2022.2.4,Win32,143.9263097,,,,,,,,,,,,,,,,,,,,,,,,,,,,,,,,,,,,,,,,,,,,,,,,,,,,,,,,,,,,,,,,,,,,,,,,,,,,,,,,,,0,0,0,0,1,,"[""k""]",[0.4282999999523156],0,"[""k""]",[0.4281999999880668],,,,,,,,,,,,,,,,,,,,,,,,,,,,,,,,,,,,,,,,,,,,,,,,,,,,,,,,,,,,,,,,,,,,,
,,,,378572,001,2023-08-02_07h13.54.845,fluency,2022.2.4,Win32,143.9263097,,,,,,,,,,,,,,,,,,,,,,,2,5,img/B05_02.jpg,CONTROL,Press K as soon as you see a face, ,KJ,,,,,,,,,,,,,,,,,,,,,,,,,,,,,,,,3,0.4875,,,,,,,,,,,,,,0,19,19,46,1,,,,,,,,,,,,,space,0.3136,,,,,,,,,,,,,,,,,,,,,,,,,,,,,,,,,,,,,,,,,,,,,,,,,,,,,,,,,,,,,,,,,,,
,,,,378572,001,2023-08-02_07h13.54.845,fluency,2022.2.4,Win32,143.9263097,,,,,,,,,,,,,,,,,,,,,,,9,4,img/B04_09.jpg,CONTROL,Press K as soon as you see a face, ,KJ,,,,,,,,,,,,,,,,,,,,,,,,,,,,,,,,,,,,,,,,,,,,,,205.34,0,20,20,42,1,109,0,0,0,0,1,98,,,,,,,,,,,,,,,,,,,,,,,,,,,,,,,,,,,,,,,,,,,,,,,,,,,,,,,,,,,,,,,,,,,,,,,,,,
,,,,378572,001,2023-08-02_07h13.54.845,fluency,2022.2.4,Win32,143.9263097,,,,,,,,,,,,,,,,,,,,,,,,,,,,,,,,,,,,,,,,,,,,,,,,,,,,,,,,,,,,,,,,,,,,,,,,,,,,,,,,,,0,0,0,0,1,,"[""k""]",[0.40869999998807316],0,"[""k""]",[0.40869999998807316],,,,,,,,,,,,,,,,,,,,,,,,,,,,,,,,,,,,,,,,,,,,,,,,,,,,,,,,,,,,,,,,,,,,,
,,,,378572,001,2023-08-02_07h13.54.845,fluency,2022.2.4,Win32,143.9263097,,,,,,,,,,,,,,,,,,,,,,,9,4,img/B04_09.jpg,CONTROL,Press K as soon as you see a face, ,KJ,,,,,,,,,,,,,,,,,,,,,,,,,,,,,,,,2,0.2827,,,,,,,,,,,,,,0,20,20,42,1,,,,,,,,,,,,,space,0.1948,,,,,,,,,,,,,,,,,,,,,,,,,,,,,,,,,,,,,,,,,,,,,,,,,,,,,,,,,,,,,,,,,,,
,,,,378572,001,2023-08-02_07h13.54.845,fluency,2022.2.4,Win32,143.9263097,,,,,,,,,,,,,,,,,,,,,,,1,9,img/B09_01.jpg,CONTROL,Press K as soon as you see a face, ,KJ,,,,,,,,,,,,,,,,,,,,,,,,,,,,,,,,,,,,,,,,,,,,,,209.8387,0,21,21,89,1,109,0,0,0,0,1,98,,,,,,,,,,,,,,,,,,,,,,,,,,,,,,,,,,,,,,,,,,,,,,,,,,,,,,,,,,,,,,,,,,,,,,,,,,
,,,,378572,001,2023-08-02_07h13.54.845,fluency,2022.2.4,Win32,143.9263097,,,,,,,,,,,,,,,,,,,,,,,,,,,,,,,,,,,,,,,,,,,,,,,,,,,,,,,,,,,,,,,,,,,,,,,,,,,,,,,,,,0,0,0,0,1,,"[""k""]",[0.30000000000001137],0,"[""k""]",[0.30000000000001137],,,,,,,,,,,,,,,,,,,,,,,,,,,,,,,,,,,,,,,,,,,,,,,,,,,,,,,,,,,,,,,,,,,,,
,,,,378572,001,2023-08-02_07h13.54.845,fluency,2022.2.4,Win32,143.9263097,,,,,,,,,,,,,,,,,,,,,,,1,9,img/B09_01.jpg,CONTROL,Press K as soon as you see a face, ,KJ,,,,,,,,,,,,,,,,,,,,,,,,,,,,,,,,4,1.5806,,,,,,,,,,,,,,0,21,21,89,1,,,,,,,,,,,,,space,0.3825,,,,,,,,,,,,,,,,,,,,,,,,,,,,,,,,,,,,,,,,,,,,,,,,,,,,,,,,,,,,,,,,,,,
,,,,378572,001,2023-08-02_07h13.54.845,fluency,2022.2.4,Win32,143.9263097,,,,,,,,,,,,,,,,,,,,,,,4,7,img/B07_04.jpg,CONTROL,Press K as soon as you see a face, ,KJ,,,,,,,,,,,,,,,,,,,,,,,,,,,,,,,,,,,,,,,,,,,,,,215.8674,0,22,22,70,1,109,0,0,0,0,1,98,,,,,,,,,,,,,,,,,,,,,,,,,,,,,,,,,,,,,,,,,,,,,,,,,,,,,,,,,,,,,,,,,,,,,,,,,,
,,,,378572,001,2023-08-02_07h13.54.845,fluency,2022.2.4,Win32,143.9263097,,,,,,,,,,,,,,,,,,,,,,,,,,,,,,,,,,,,,,,,,,,,,,,,,,,,,,,,,,,,,,,,,,,,,,,,,,,,,,,,,,0,0,0,0,1,,"[""k""]",[0.22370000004769963],0,"[""k""]",[0.22369999998807089],,,,,,,,,,,,,,,,,,,,,,,,,,,,,,,,,,,,,,,,,,,,,,,,,,,,,,,,,,,,,,,,,,,,,
,,,,378572,001,2023-08-02_07h13.54.845,fluency,2022.2.4,Win32,143.9263097,,,,,,,,,,,,,,,,,,,,,,,4,7,img/B07_04.jpg,CONTROL,Press K as soon as you see a face, ,KJ,,,,,,,,,,,,,,,,,,,,,,,,,,,,,,,,5,1.3678,,,,,,,,,,,,,,0,22,22,70,1,,,,,,,,,,,,,space,0.3612,,,,,,,,,,,,,,,,,,,,,,,,,,,,,,,,,,,,,,,,,,,,,,,,,,,,,,,,,,,,,,,,,,,
,,,,378572,001,2023-08-02_07h13.54.845,fluency,2022.2.4,Win32,143.9263097,,,,,,,,,,,,,,,,,,,,,,,8,10,img/B10_08.jpg,CONTROL,Press K as soon as you see a face, ,KJ,,,,,,,,,,,,,,,,,,,,,,,,,,,,,,,,,,,,,,,,,,,,,,221.6275,0,23,23,107,1,109,0,0,0,0,1,98,,,,,,,,,,,,,,,,,,,,,,,,,,,,,,,,,,,,,,,,,,,,,,,,,,,,,,,,,,,,,,,,,,,,,,,,,,
,,,,378572,001,2023-08-02_07h13.54.845,fluency,2022.2.4,Win32,143.9263097,,,,,,,,,,,,,,,,,,,,,,,,,,,,,,,,,,,,,,,,,,,,,,,,,,,,,,,,,,,,,,,,,,,,,,,,,,,,,,,,,,0,0,0,0,1,,"[""k""]",[0.4166999999880545],0,"[""k""]",[0.4166000000238341],,,,,,,,,,,,,,,,,,,,,,,,,,,,,,,,,,,,,,,,,,,,,,,,,,,,,,,,,,,,,,,,,,,,,
,,,,378572,001,2023-08-02_07h13.54.845,fluency,2022.2.4,Win32,143.9263097,,,,,,,,,,,,,,,,,,,,,,,8,10,img/B10_08.jpg,CONTROL,Press K as soon as you see a face, ,KJ,,,,,,,,,,,,,,,,,,,,,,,,,,,,,,,,4,1.6655,,,,,,,,,,,,,,0,23,23,107,1,,,,,,,,,,,,,space,0.4399,,,,,,,,,,,,,,,,,,,,,,,,,,,,,,,,,,,,,,,,,,,,,,,,,,,,,,,,,,,,,,,,,,,
,,,,378572,001,2023-08-02_07h13.54.845,fluency,2022.2.4,Win32,143.9263097,,,,,,,,,,,,,,,,,,,,,,,7,8,img/B08_07.jpg,CONTROL,Press K as soon as you see a face, ,KJ,,,,,,,,,,,,,,,,,,,,,,,,,,,,,,,,,,,,,,,,,,,,,,228.7777,0,24,24,84,1,109,0,0,0,0,1,98,,,,,,,,,,,,,,,,,,,,,,,,,,,,,,,,,,,,,,,,,,,,,,,,,,,,,,,,,,,,,,,,,,,,,,,,,,
,,,,378572,001,2023-08-02_07h13.54.845,fluency,2022.2.4,Win32,143.9263097,,,,,,,,,,,,,,,,,,,,,,,,,,,,,,,,,,,,,,,,,,,,,,,,,,,,,,,,,,,,,,,,,,,,,,,,,,,,,,,,,,0,0,0,0,1,,"[""k""]",[0.47440000003575733],0,"[""k""]",[0.47440000003575733],,,,,,,,,,,,,,,,,,,,,,,,,,,,,,,,,,,,,,,,,,,,,,,,,,,,,,,,,,,,,,,,,,,,,
,,,,378572,001,2023-08-02_07h13.54.845,fluency,2022.2.4,Win32,143.9263097,,,,,,,,,,,,,,,,,,,,,,,7,8,img/B08_07.jpg,CONTROL,Press K as soon as you see a face, ,KJ,,,,,,,,,,,,,,,,,,,,,,,,,,,,,,,,3,0.4029,,,,,,,,,,,,,,0,24,24,84,1,,,,,,,,,,,,,space,0.2565,,,,,,,,,,,,,,,,,,,,,,,,,,,,,,,,,,,,,,,,,,,,,,,,,,,,,,,,,,,,,,,,,,,
,,,,378572,001,2023-08-02_07h13.54.845,fluency,2022.2.4,Win32,143.9263097,,,,,,,,,,,,,,,,,,,,,,,3,8,img/B08_03.jpg,CONTROL,Press K as soon as you see a face, ,KJ,,,,,,,,,,,,,,,,,,,,,,,,,,,,,,,,,,,,,,,,,,,,,,234.462,0,25,25,80,1,109,0,0,0,0,1,98,,,,,,,,,,,,,,,,,,,,,,,,,,,,,,,,,,,,,,,,,,,,,,,,,,,,,,,,,,,,,,,,,,,,,,,,,,
,,,,378572,001,2023-08-02_07h13.54.845,fluency,2022.2.4,Win32,143.9263097,,,,,,,,,,,,,,,,,,,,,,,,,,,,,,,,,,,,,,,,,,,,,,,,,,,,,,,,,,,,,,,,,,,,,,,,,,,,,,,,,,0,0,0,0,1,,"[""k""]",[0.4070999999642595],0,"[""k""]",[0.4070999999642595],,,,,,,,,,,,,,,,,,,,,,,,,,,,,,,,,,,,,,,,,,,,,,,,,,,,,,,,,,,,,,,,,,,,,
,,,,378572,001,2023-08-02_07h13.54.845,fluency,2022.2.4,Win32,143.9263097,,,,,,,,,,,,,,,,,,,,,,,3,8,img/B08_03.jpg,CONTROL,Press K as soon as you see a face, ,KJ,,,,,,,,,,,,,,,,,,,,,,,,,,,,,,,,3,0.2991,,,,,,,,,,,,,,0,25,25,80,1,,,,,,,,,,,,,space,0.3816,,,,,,,,,,,,,,,,,,,,,,,,,,,,,,,,,,,,,,,,,,,,,,,,,,,,,,,,,,,,,,,,,,,
,,,,378572,001,2023-08-02_07h13.54.845,fluency,2022.2.4,Win32,143.9263097,,,,,,,,,,,,,,,,,,,,,,,8,3,img/B03_08.jpg,CONTROL,Press K as soon as you see a face, ,KJ,,,,,,,,,,,,,,,,,,,,,,,,,,,,,,,,,,,,,,,,,,,,,,240.1737,0,26,26,30,1,109,0,0,0,0,1,98,,,,,,,,,,,,,,,,,,,,,,,,,,,,,,,,,,,,,,,,,,,,,,,,,,,,,,,,,,,,,,,,,,,,,,,,,,
,,,,378572,001,2023-08-02_07h13.54.845,fluency,2022.2.4,Win32,143.9263097,,,,,,,,,,,,,,,,,,,,,,,,,,,,,,,,,,,,,,,,,,,,,,,,,,,,,,,,,,,,,,,,,,,,,,,,,,,,,,,,,,0,0,0,0,1,,"[""k""]",[0.53449999999998],0,"[""k""]",[0.5344000000357596],,,,,,,,,,,,,,,,,,,,,,,,,,,,,,,,,,,,,,,,,,,,,,,,,,,,,,,,,,,,,,,,,,,,,
,,,,378572,001,2023-08-02_07h13.54.845,fluency,2022.2.4,Win32,143.9263097,,,,,,,,,,,,,,,,,,,,,,,8,3,img/B03_08.jpg,CONTROL,Press K as soon as you see a face, ,KJ,,,,,,,,,,,,,,,,,,,,,,,,,,,,,,,,6,1.1627,,,,,,,,,,,,,,0,26,26,30,1,,,,,,,,,,,,,space,0.322,,,,,,,,,,,,,,,,,,,,,,,,,,,,,,,,,,,,,,,,,,,,,,,,,,,,,,,,,,,,,,,,,,,
,,,,378572,001,2023-08-02_07h13.54.845,fluency,2022.2.4,Win32,143.9263097,,,,,,,,,,,,,,,,,,,,,,,3,4,img/B04_03.jpg,CONTROL,Press K as soon as you see a face, ,KJ,,,,,,,,,,,,,,,,,,,,,,,,,,,,,,,,,,,,,,,,,,,,,,246.6986,0,27,27,36,1,109,0,0,0,0,1,98,,,,,,,,,,,,,,,,,,,,,,,,,,,,,,,,,,,,,,,,,,,,,,,,,,,,,,,,,,,,,,,,,,,,,,,,,,
,,,,378572,001,2023-08-02_07h13.54.845,fluency,2022.2.4,Win32,143.9263097,,,,,,,,,,,,,,,,,,,,,,,,,,,,,,,,,,,,,,,,,,,,,,,,,,,,,,,,,,,,,,,,,,,,,,,,,,,,,,,,,,0,0,0,0,1,,"[""k""]",[0.2909999999999968],0,"[""k""]",[0.2909999999999968],,,,,,,,,,,,,,,,,,,,,,,,,,,,,,,,,,,,,,,,,,,,,,,,,,,,,,,,,,,,,,,,,,,,,
,,,,378572,001,2023-08-02_07h13.54.845,fluency,2022.2.4,Win32,143.9263097,,,,,,,,,,,,,,,,,,,,,,,3,4,img/B04_03.jpg,CONTROL,Press K as soon as you see a face, ,KJ,,,,,,,,,,,,,,,,,,,,,,,,,,,,,,,,4,0.368,,,,,,,,,,,,,,0,27,27,36,1,,,,,,,,,,,,,space,0.1623,,,,,,,,,,,,,,,,,,,,,,,,,,,,,,,,,,,,,,,,,,,,,,,,,,,,,,,,,,,,,,,,,,,
,,,,378572,001,2023-08-02_07h13.54.845,fluency,2022.2.4,Win32,143.9263097,,,,,,,,,,,,,,,,,,,,,,,0,7,img/B07_00.jpg,CONTROL,Press K as soon as you see a face, ,KJ,,,,,,,,,,,,,,,,,,,,,,,,,,,,,,,,,,,,,,,,,,,,,,252.2577,0,28,28,66,1,109,0,0,0,0,1,98,,,,,,,,,,,,,,,,,,,,,,,,,,,,,,,,,,,,,,,,,,,,,,,,,,,,,,,,,,,,,,,,,,,,,,,,,,
,,,,378572,001,2023-08-02_07h13.54.845,fluency,2022.2.4,Win32,143.9263097,,,,,,,,,,,,,,,,,,,,,,,,,,,,,,,,,,,,,,,,,,,,,,,,,,,,,,,,,,,,,,,,,,,,,,,,,,,,,,,,,,0,0,0,0,1,,"[""k""]",[1.1066999999880522],0,"[""k""]",[1.106599999964203],,,,,,,,,,,,,,,,,,,,,,,,,,,,,,,,,,,,,,,,,,,,,,,,,,,,,,,,,,,,,,,,,,,,,
,,,,378572,001,2023-08-02_07h13.54.845,fluency,2022.2.4,Win32,143.9263097,,,,,,,,,,,,,,,,,,,,,,,0,7,img/B07_00.jpg,CONTROL,Press K as soon as you see a face, ,KJ,,,,,,,,,,,,,,,,,,,,,,,,,,,,,,,,6,2.5603,,,,,,,,,,,,,,0,28,28,66,1,,,,,,,,,,,,,space,0.3292,,,,,,,,,,,,,,,,,,,,,,,,,,,,,,,,,,,,,,,,,,,,,,,,,,,,,,,,,,,,,,,,,,,
,,,,378572,001,2023-08-02_07h13.54.845,fluency,2022.2.4,Win32,143.9263097,,,,,,,,,,,,,,,,,,,,,,,7,4,img/B04_07.jpg,CONTROL,Press K as soon as you see a face, ,KJ,,,,,,,,,,,,,,,,,,,,,,,,,,,,,,,,,,,,,,,,,,,,,,259.1859,0,29,29,40,1,109,0,0,0,0,1,98,,,,,,,,,,,,,,,,,,,,,,,,,,,,,,,,,,,,,,,,,,,,,,,,,,,,,,,,,,,,,,,,,,,,,,,,,,
,,,,378572,001,2023-08-02_07h13.54.845,fluency,2022.2.4,Win32,143.9263097,,,,,,,,,,,,,,,,,,,,,,,,,,,,,,,,,,,,,,,,,,,,,,,,,,,,,,,,,,,,,,,,,,,,,,,,,,,,,,,,,,0,0,0,0,1,,"[""k""]",[0.6061999999880641],0,"[""k""]",[0.6060999999642149],,,,,,,,,,,,,,,,,,,,,,,,,,,,,,,,,,,,,,,,,,,,,,,,,,,,,,,,,,,,,,,,,,,,,
,,,,378572,001,2023-08-02_07h13.54.845,fluency,2022.2.4,Win32,143.9263097,,,,,,,,,,,,,,,,,,,,,,,7,4,img/B04_07.jpg,CONTROL,Press K as soon as you see a face, ,KJ,,,,,,,,,,,,,,,,,,,,,,,,,,,,,,,,3,0.3541,,,,,,,,,,,,,,0,29,29,40,1,,,,,,,,,,,,,space,0.2426,,,,,,,,,,,,,,,,,,,,,,,,,,,,,,,,,,,,,,,,,,,,,,,,,,,,,,,,,,,,,,,,,,,
,,,,378572,001,2023-08-02_07h13.54.845,fluency,2022.2.4,Win32,143.9263097,,,,,,,,,,,,,,,,,,,,,,,5,10,img/B10_05.jpg,CONTROL,Press K as soon as you see a face, ,KJ,,,,,,,,,,,,,,,,,,,,,,,,,,,,,,,,,,,,,,,,,,,,,,263.8134,0,30,30,104,1,109,0,0,0,0,1,98,,,,,,,,,,,,,,,,,,,,,,,,,,,,,,,,,,,,,,,,,,,,,,,,,,,,,,,,,,,,,,,,,,,,,,,,,,
,,,,378572,001,2023-08-02_07h13.54.845,fluency,2022.2.4,Win32,143.9263097,,,,,,,,,,,,,,,,,,,,,,,,,,,,,,,,,,,,,,,,,,,,,,,,,,,,,,,,,,,,,,,,,,,,,,,,,,,,,,,,,,0,0,0,0,1,,"[""k""]",[0.45719999998806315],0,"[""k""]",[0.457099999964214],,,,,,,,,,,,,,,,,,,,,,,,,,,,,,,,,,,,,,,,,,,,,,,,,,,,,,,,,,,,,,,,,,,,,
,,,,378572,001,2023-08-02_07h13.54.845,fluency,2022.2.4,Win32,143.9263097,,,,,,,,,,,,,,,,,,,,,,,5,10,img/B10_05.jpg,CONTROL,Press K as soon as you see a face, ,KJ,,,,,,,,,,,,,,,,,,,,,,,,,,,,,,,,3,0.6928,,,,,,,,,,,,,,0,30,30,104,1,,,,,,,,,,,,,space,0.2088,,,,,,,,,,,,,,,,,,,,,,,,,,,,,,,,,,,,,,,,,,,,,,,,,,,,,,,,,,,,,,,,,,,
,,,,378572,001,2023-08-02_07h13.54.845,fluency,2022.2.4,Win32,143.9263097,,,,,,,,,,,,,,,,,,,,,,,7,1,img/B01_07.jpg,CONTROL,Press K as soon as you see a face, ,KJ,,,,,,,,,,,,,,,,,,,,,,,,,,,,,,,,,,,,,,,,,,,,,,269.7477,0,31,31,7,1,109,0,0,0,0,1,98,,,,,,,,,,,,,,,,,,,,,,,,,,,,,,,,,,,,,,,,,,,,,,,,,,,,,,,,,,,,,,,,,,,,,,,,,,
,,,,378572,001,2023-08-02_07h13.54.845,fluency,2022.2.4,Win32,143.9263097,,,,,,,,,,,,,,,,,,,,,,,,,,,,,,,,,,,,,,,,,,,,,,,,,,,,,,,,,,,,,,,,,,,,,,,,,,,,,,,,,,0,0,0,0,1,,"[""k""]",[0.24930000001188546],0,"[""k""]",[0.24930000001188546],,,,,,,,,,,,,,,,,,,,,,,,,,,,,,,,,,,,,,,,,,,,,,,,,,,,,,,,,,,,,,,,,,,,,
,,,,378572,001,2023-08-02_07h13.54.845,fluency,2022.2.4,Win32,143.9263097,,,,,,,,,,,,,,,,,,,,,,,7,1,img/B01_07.jpg,CONTROL,Press K as soon as you see a face, ,KJ,,,,,,,,,,,,,,,,,,,,,,,,,,,,,,,,3,1.4026,,,,,,,,,,,,,,0,31,31,7,1,,,,,,,,,,,,,space,0.2103,,,,,,,,,,,,,,,,,,,,,,,,,,,,,,,,,,,,,,,,,,,,,,,,,,,,,,,,,,,,,,,,,,,
,,,,378572,001,2023-08-02_07h13.54.845,fluency,2022.2.4,Win32,143.9263097,,,,,,,,,,,,,,,,,,,,,,,4,3,img/B03_04.jpg,CONTROL,Press K as soon as you see a face, ,KJ,,,,,,,,,,,,,,,,,,,,,,,,,,,,,,,,,,,,,,,,,,,,,,275.4187,0,32,32,26,1,109,0,0,0,0,1,98,,,,,,,,,,,,,,,,,,,,,,,,,,,,,,,,,,,,,,,,,,,,,,,,,,,,,,,,,,,,,,,,,,,,,,,,,,
,,,,378572,001,2023-08-02_07h13.54.845,fluency,2022.2.4,Win32,143.9263097,,,,,,,,,,,,,,,,,,,,,,,,,,,,,,,,,,,,,,,,,,,,,,,,,,,,,,,,,,,,,,,,,,,,,,,,,,,,,,,,,,0,0,0,0,1,,"[""k""]",[0.5215000000000032],0,"[""k""]",[0.5215000000000032],,,,,,,,,,,,,,,,,,,,,,,,,,,,,,,,,,,,,,,,,,,,,,,,,,,,,,,,,,,,,,,,,,,,,
,,,,378572,001,2023-08-02_07h13.54.845,fluency,2022.2.4,Win32,143.9263097,,,,,,,,,,,,,,,,,,,,,,,4,3,img/B03_04.jpg,CONTROL,Press K as soon as you see a face, ,KJ,,,,,,,,,,,,,,,,,,,,,,,,,,,,,,,,4,0.6453,,,,,,,,,,,,,,0,32,32,26,1,,,,,,,,,,,,,space,0.2035,,,,,,,,,,,,,,,,,,,,,,,,,,,,,,,,,,,,,,,,,,,,,,,,,,,,,,,,,,,,,,,,,,,
,,,,378572,001,2023-08-02_07h13.54.845,fluency,2022.2.4,Win32,143.9263097,,,,,,,,,,,,,,,,,,,,,,,2,2,img/B02_02.jpg,CONTROL,Press K as soon as you see a face, ,KJ,,,,,,,,,,,,,,,,,,,,,,,,,,,,,,,,,,,,,,,,,,,,,,281.2829,0,33,33,13,1,109,0,0,0,0,1,98,,,,,,,,,,,,,,,,,,,,,,,,,,,,,,,,,,,,,,,,,,,,,,,,,,,,,,,,,,,,,,,,,,,,,,,,,,
,,,,378572,001,2023-08-02_07h13.54.845,fluency,2022.2.4,Win32,143.9263097,,,,,,,,,,,,,,,,,,,,,,,,,,,,,,,,,,,,,,,,,,,,,,,,,,,,,,,,,,,,,,,,,,,,,,,,,,,,,,,,,,0,0,0,0,1,,"[""k""]",[0.4314000000358078],0,"[""k""]",[0.4314000000358078],,,,,,,,,,,,,,,,,,,,,,,,,,,,,,,,,,,,,,,,,,,,,,,,,,,,,,,,,,,,,,,,,,,,,
,,,,378572,001,2023-08-02_07h13.54.845,fluency,2022.2.4,Win32,143.9263097,,,,,,,,,,,,,,,,,,,,,,,2,2,img/B02_02.jpg,CONTROL,Press K as soon as you see a face, ,KJ,,,,,,,,,,,,,,,,,,,,,,,,,,,,,,,,2,0.692,,,,,,,,,,,,,,0,33,33,13,1,,,,,,,,,,,,,space,0.2356,,,,,,,,,,,,,,,,,,,,,,,,,,,,,,,,,,,,,,,,,,,,,,,,,,,,,,,,,,,,,,,,,,,
,,,,378572,001,2023-08-02_07h13.54.845,fluency,2022.2.4,Win32,143.9263097,,,,,,,,,,,,,,,,,,,,,,,2,3,img/B03_02.jpg,CONTROL,Press K as soon as you see a face, ,KJ,,,,,,,,,,,,,,,,,,,,,,,,,,,,,,,,,,,,,,,,,,,,,,286.2371,0,34,34,24,1,109,0,0,0,0,1,98,,,,,,,,,,,,,,,,,,,,,,,,,,,,,,,,,,,,,,,,,,,,,,,,,,,,,,,,,,,,,,,,,,,,,,,,,,
,,,,378572,001,2023-08-02_07h13.54.845,fluency,2022.2.4,Win32,143.9263097,,,,,,,,,,,,,,,,,,,,,,,,,,,,,,,,,,,,,,,,,,,,,,,,,,,,,,,,,,,,,,,,,,,,,,,,,,,,,,,,,,0,0,0,0,1,,"[""k""]",[0.6340000000000146],0,"[""k""]",[0.6340000000000146],,,,,,,,,,,,,,,,,,,,,,,,,,,,,,,,,,,,,,,,,,,,,,,,,,,,,,,,,,,,,,,,,,,,,
,,,,378572,001,2023-08-02_07h13.54.845,fluency,2022.2.4,Win32,143.9263097,,,,,,,,,,,,,,,,,,,,,,,2,3,img/B03_02.jpg,CONTROL,Press K as soon as you see a face, ,KJ,,,,,,,,,,,,,,,,,,,,,,,,,,,,,,,,7,1.4036,,,,,,,,,,,,,,0,34,34,24,1,,,,,,,,,,,,,space,0.4164,,,,,,,,,,,,,,,,,,,,,,,,,,,,,,,,,,,,,,,,,,,,,,,,,,,,,,,,,,,,,,,,,,,
,,,,378572,001,2023-08-02_07h13.54.845,fluency,2022.2.4,Win32,143.9263097,,,,,,,,,,,,,,,,,,,,,,,9,2,img/B02_09.jpg,CONTROL,Press K as soon as you see a face, ,KJ,,,,,,,,,,,,,,,,,,,,,,,,,,,,,,,,,,,,,,,,,,,,,,292.1089,0,35,35,20,1,109,0,0,0,0,1,98,,,,,,,,,,,,,,,,,,,,,,,,,,,,,,,,,,,,,,,,,,,,,,,,,,,,,,,,,,,,,,,,,,,,,,,,,,
,,,,378572,001,2023-08-02_07h13.54.845,fluency,2022.2.4,Win32,143.9263097,,,,,,,,,,,,,,,,,,,,,,,,,,,,,,,,,,,,,,,,,,,,,,,,,,,,,,,,,,,,,,,,,,,,,,,,,,,,,,,,,,0,0,0,0,1,,"[""k"",""k""]","[1.1383000000118955,1.287600000023815]",0,"[""k"",""k""]","[1.1383000000118955,1.2876999999880923]",,,,,,,,,,,,,,,,,,,,,,,,,,,,,,,,,,,,,,,,,,,,,,,,,,,,,,,,,,,,,,,,,,,,,
,,,,378572,001,2023-08-02_07h13.54.845,fluency,2022.2.4,Win32,143.9263097,,,,,,,,,,,,,,,,,,,,,,,9,2,img/B02_09.jpg,CONTROL,Press K as soon as you see a face, ,KJ,,,,,,,,,,,,,,,,,,,,,,,,,,,,,,,,4,0.9326,,,,,,,,,,,,,,0,35,35,20,1,,,,,,,,,,,,,space,0.2075,,,,,,,,,,,,,,,,,,,,,,,,,,,,,,,,,,,,,,,,,,,,,,,,,,,,,,,,,,,,,,,,,,,
,,,,378572,001,2023-08-02_07h13.54.845,fluency,2022.2.4,Win32,143.9263097,,,,,,,,,,,,,,,,,,,,,,,6,9,img/B09_06.jpg,CONTROL,Press K as soon as you see a face, ,KJ,,,,,,,,,,,,,,,,,,,,,,,,,,,,,,,,,,,,,,,,,,,,,,297.2862,0,36,36,94,1,109,0,0,0,0,1,98,,,,,,,,,,,,,,,,,,,,,,,,,,,,,,,,,,,,,,,,,,,,,,,,,,,,,,,,,,,,,,,,,,,,,,,,,,
,,,,378572,001,2023-08-02_07h13.54.845,fluency,2022.2.4,Win32,143.9263097,,,,,,,,,,,,,,,,,,,,,,,,,,,,,,,,,,,,,,,,,,,,,,,,,,,,,,,,,,,,,,,,,,,,,,,,,,,,,,,,,,0,0,0,0,1,,"[""k""]",[0.5955000000000155],0,"[""k""]",[0.5954000000357951],,,,,,,,,,,,,,,,,,,,,,,,,,,,,,,,,,,,,,,,,,,,,,,,,,,,,,,,,,,,,,,,,,,,,
,,,,378572,001,2023-08-02_07h13.54.845,fluency,2022.2.4,Win32,143.9263097,,,,,,,,,,,,,,,,,,,,,,,6,9,img/B09_06.jpg,CONTROL,Press K as soon as you see a face, ,KJ,,,,,,,,,,,,,,,,,,,,,,,,,,,,,,,,5,1.1124,,,,,,,,,,,,,,0,36,36,94,1,,,,,,,,,,,,,space,0.3004,,,,,,,,,,,,,,,,,,,,,,,,,,,,,,,,,,,,,,,,,,,,,,,,,,,,,,,,,,,,,,,,,,,
,,,,378572,001,2023-08-02_07h13.54.845,fluency,2022.2.4,Win32,143.9263097,,,,,,,,,,,,,,,,,,,,,,,0,2,img/B02_00.jpg,CONTROL,Press K as soon as you see a face, ,KJ,,,,,,,,,,,,,,,,,,,,,,,,,,,,,,,,,,,,,,,,,,,,,,302.727,0,37,37,11,1,109,0,0,0,0,1,98,,,,,,,,,,,,,,,,,,,,,,,,,,,,,,,,,,,,,,,,,,,,,,,,,,,,,,,,,,,,,,,,,,,,,,,,,,
,,,,378572,001,2023-08-02_07h13.54.845,fluency,2022.2.4,Win32,143.9263097,,,,,,,,,,,,,,,,,,,,,,,,,,,,,,,,,,,,,,,,,,,,,,,,,,,,,,,,,,,,,,,,,,,,,,,,,,,,,,,,,,0,0,0,0,1,,"[""k""]",[0.39460000002384277],0,"[""k""]",[0.39439999997620134],,,,,,,,,,,,,,,,,,,,,,,,,,,,,,,,,,,,,,,,,,,,,,,,,,,,,,,,,,,,,,,,,,,,,
,,,,378572,001,2023-08-02_07h13.54.845,fluency,2022.2.4,Win32,143.9263097,,,,,,,,,,,,,,,,,,,,,,,0,2,img/B02_00.jpg,CONTROL,Press K as soon as you see a face, ,KJ,,,,,,,,,,,,,,,,,,,,,,,,,,,,,,,,2,0.4017,,,,,,,,,,,,,,0,37,37,11,1,,,,,,,,,,,,,space,1.2114,,,,,,,,,,,,,,,,,,,,,,,,,,,,,,,,,,,,,,,,,,,,,,,,,,,,,,,,,,,,,,,,,,,
,,,,378572,001,2023-08-02_07h13.54.845,fluency,2022.2.4,Win32,143.9263097,,,,,,,,,,,,,,,,,,,,,,,10,3,img/B03_10.jpg,CONTROL,Press K as soon as you see a face, ,KJ,,,,,,,,,,,,,,,,,,,,,,,,,,,,,,,,,,,,,,,,,,,,,,308.355,0,38,38,32,1,109,0,0,0,0,1,98,,,,,,,,,,,,,,,,,,,,,,,,,,,,,,,,,,,,,,,,,,,,,,,,,,,,,,,,,,,,,,,,,,,,,,,,,,
,,,,378572,001,2023-08-02_07h13.54.845,fluency,2022.2.4,Win32,143.9263097,,,,,,,,,,,,,,,,,,,,,,,,,,,,,,,,,,,,,,,,,,,,,,,,,,,,,,,,,,,,,,,,,,,,,,,,,,,,,,,,,,0,0,0,0,1,,"[""k""]",[0.5308000000118795],0,"[""k""]",[0.5306999999880304],,,,,,,,,,,,,,,,,,,,,,,,,,,,,,,,,,,,,,,,,,,,,,,,,,,,,,,,,,,,,,,,,,,,,
,,,,378572,001,2023-08-02_07h13.54.845,fluency,2022.2.4,Win32,143.9263097,,,,,,,,,,,,,,,,,,,,,,,10,3,img/B03_10.jpg,CONTROL,Press K as soon as you see a face, ,KJ,,,,,,,,,,,,,,,,,,,,,,,,,,,,,,,,7,0.3621,,,,,,,,,,,,,,0,38,38,32,1,,,,,,,,,,,,,space,0.3537,,,,,,,,,,,,,,,,,,,,,,,,,,,,,,,,,,,,,,,,,,,,,,,,,,,,,,,,,,,,,,,,,,,
,,,,378572,001,2023-08-02_07h13.54.845,fluency,2022.2.4,Win32,143.9263097,,,,,,,,,,,,,,,,,,,,,,,6,7,img/B07_06.jpg,CONTROL,Press K as soon as you see a face, ,KJ,,,,,,,,,,,,,,,,,,,,,,,,,,,,,,,,,,,,,,,,,,,,,,313.1011,0,39,39,72,1,109,0,0,0,0,1,98,,,,,,,,,,,,,,,,,,,,,,,,,,,,,,,,,,,,,,,,,,,,,,,,,,,,,,,,,,,,,,,,,,,,,,,,,,
,,,,378572,001,2023-08-02_07h13.54.845,fluency,2022.2.4,Win32,143.9263097,,,,,,,,,,,,,,,,,,,,,,,,,,,,,,,,,,,,,,,,,,,,,,,,,,,,,,,,,,,,,,,,,,,,,,,,,,,,,,,,,,0,0,0,0,1,,"[""k""]",[0.39219999998806543],0,"[""k""]",[0.39219999998806543],,,,,,,,,,,,,,,,,,,,,,,,,,,,,,,,,,,,,,,,,,,,,,,,,,,,,,,,,,,,,,,,,,,,,
,,,,378572,001,2023-08-02_07h13.54.845,fluency,2022.2.4,Win32,143.9263097,,,,,,,,,,,,,,,,,,,,,,,6,7,img/B07_06.jpg,CONTROL,Press K as soon as you see a face, ,KJ,,,,,,,,,,,,,,,,,,,,,,,,,,,,,,,,5,0.6292,,,,,,,,,,,,,,0,39,39,72,1,,,,,,,,,,,,,space,0.2507,,,,,,,,,,,,,,,,,,,,,,,,,,,,,,,,,,,,,,,,,,,,,,,,,,,,,,,,,,,,,,,,,,,
,,,,378572,001,2023-08-02_07h13.54.845,fluency,2022.2.4,Win32,143.9263097,,,,,,,,,,,,,,,,,,,,,,,5,3,img/B03_05.jpg,CONTROL,Press K as soon as you see a face, ,KJ,,,,,,,,,,,,,,,,,,,,,,,,,,,,,,,,,,,,,,,,,,,,,,318.0069,0,40,40,27,1,109,0,0,0,0,1,98,,,,,,,,,,,,,,,,,,,,,,,,,,,,,,,,,,,,,,,,,,,,,,,,,,,,,,,,,,,,,,,,,,,,,,,,,,
,,,,378572,001,2023-08-02_07h13.54.845,fluency,2022.2.4,Win32,143.9263097,,,,,,,,,,,,,,,,,,,,,,,,,,,,,,,,,,,,,,,,,,,,,,,,,,,,,,,,,,,,,,,,,,,,,,,,,,,,,,,,,,0,0,0,0,1,,"[""k""]",[0.2299000000357978],0,"[""k""]",[0.22989999997616906],,,,,,,,,,,,,,,,,,,,,,,,,,,,,,,,,,,,,,,,,,,,,,,,,,,,,,,,,,,,,,,,,,,,,
,,,,378572,001,2023-08-02_07h13.54.845,fluency,2022.2.4,Win32,143.9263097,,,,,,,,,,,,,,,,,,,,,,,5,3,img/B03_05.jpg,CONTROL,Press K as soon as you see a face, ,KJ,,,,,,,,,,,,,,,,,,,,,,,,,,,,,,,,5,1.0176,,,,,,,,,,,,,,0,40,40,27,1,,,,,,,,,,,,,space,0.2015,,,,,,,,,,,,,,,,,,,,,,,,,,,,,,,,,,,,,,,,,,,,,,,,,,,,,,,,,,,,,,,,,,,
,,,,378572,001,2023-08-02_07h13.54.845,fluency,2022.2.4,Win32,143.9263097,,,,,,,,,,,,,,,,,,,,,,,1,4,img/B04_01.jpg,CONTROL,Press K as soon as you see a face, ,KJ,,,,,,,,,,,,,,,,,,,,,,,,,,,,,,,,,,,,,,,,,,,,,,323.2603,0,41,41,34,1,109,0,0,0,0,1,98,,,,,,,,,,,,,,,,,,,,,,,,,,,,,,,,,,,,,,,,,,,,,,,,,,,,,,,,,,,,,,,,,,,,,,,,,,
,,,,378572,001,2023-08-02_07h13.54.845,fluency,2022.2.4,Win32,143.9263097,,,,,,,,,,,,,,,,,,,,,,,,,,,,,,,,,,,,,,,,,,,,,,,,,,,,,,,,,,,,,,,,,,,,,,,,,,,,,,,,,,0,0,0,0,1,,"[""k""]",[0.23330000001192275],0,"[""k""]",[0.23330000001192275],,,,,,,,,,,,,,,,,,,,,,,,,,,,,,,,,,,,,,,,,,,,,,,,,,,,,,,,,,,,,,,,,,,,,
,,,,378572,001,2023-08-02_07h13.54.845,fluency,2022.2.4,Win32,143.9263097,,,,,,,,,,,,,,,,,,,,,,,1,4,img/B04_01.jpg,CONTROL,Press K as soon as you see a face, ,KJ,,,,,,,,,,,,,,,,,,,,,,,,,,,,,,,,3,1.4204,,,,,,,,,,,,,,0,41,41,34,1,,,,,,,,,,,,,space,0.2576,,,,,,,,,,,,,,,,,,,,,,,,,,,,,,,,,,,,,,,,,,,,,,,,,,,,,,,,,,,,,,,,,,,
,,,,378572,001,2023-08-02_07h13.54.845,fluency,2022.2.4,Win32,143.9263097,,,,,,,,,,,,,,,,,,,,,,,9,5,img/B05_09.jpg,CONTROL,Press K as soon as you see a face, ,KJ,,,,,,,,,,,,,,,,,,,,,,,,,,,,,,,,,,,,,,,,,,,,,,328.9789,0,42,42,53,1,109,0,0,0,0,1,98,,,,,,,,,,,,,,,,,,,,,,,,,,,,,,,,,,,,,,,,,,,,,,,,,,,,,,,,,,,,,,,,,,,,,,,,,,
,,,,378572,001,2023-08-02_07h13.54.845,fluency,2022.2.4,Win32,143.9263097,,,,,,,,,,,,,,,,,,,,,,,,,,,,,,,,,,,,,,,,,,,,,,,,,,,,,,,,,,,,,,,,,,,,,,,,,,,,,,,,,,0,0,0,0,1,,"[""k""]",[0.32110000002381867],0,"[""k""]",[0.32110000002381867],,,,,,,,,,,,,,,,,,,,,,,,,,,,,,,,,,,,,,,,,,,,,,,,,,,,,,,,,,,,,,,,,,,,,
,,,,378572,001,2023-08-02_07h13.54.845,fluency,2022.2.4,Win32,143.9263097,,,,,,,,,,,,,,,,,,,,,,,9,5,img/B05_09.jpg,CONTROL,Press K as soon as you see a face, ,KJ,,,,,,,,,,,,,,,,,,,,,,,,,,,,,,,,3,0.2373,,,,,,,,,,,,,,0,42,42,53,1,,,,,,,,,,,,,space,0.0893,,,,,,,,,,,,,,,,,,,,,,,,,,,,,,,,,,,,,,,,,,,,,,,,,,,,,,,,,,,,,,,,,,,
,,,,378572,001,2023-08-02_07h13.54.845,fluency,2022.2.4,Win32,143.9263097,,,,,,,,,,,,,,,,,,,,,,,7,3,img/B03_07.jpg,CONTROL,Press K as soon as you see a face, ,KJ,,,,,,,,,,,,,,,,,,,,,,,,,,,,,,,,,,,,,,,,,,,,,,333.3427,0,43,43,29,1,109,0,0,0,0,1,98,,,,,,,,,,,,,,,,,,,,,,,,,,,,,,,,,,,,,,,,,,,,,,,,,,,,,,,,,,,,,,,,,,,,,,,,,,
,,,,378572,001,2023-08-02_07h13.54.845,fluency,2022.2.4,Win32,143.9263097,,,,,,,,,,,,,,,,,,,,,,,,,,,,,,,,,,,,,,,,,,,,,,,,,,,,,,,,,,,,,,,,,,,,,,,,,,,,,,,,,,0,0,0,0,1,,"[""k""]",[0.3524000000358001],0,"[""k""]",[0.35230000001195094],,,,,,,,,,,,,,,,,,,,,,,,,,,,,,,,,,,,,,,,,,,,,,,,,,,,,,,,,,,,,,,,,,,,,
,,,,378572,001,2023-08-02_07h13.54.845,fluency,2022.2.4,Win32,143.9263097,,,,,,,,,,,,,,,,,,,,,,,7,3,img/B03_07.jpg,CONTROL,Press K as soon as you see a face, ,KJ,,,,,,,,,,,,,,,,,,,,,,,,,,,,,,,,7,0.2779,,,,,,,,,,,,,,0,43,43,29,1,,,,,,,,,,,,,space,0.4246,,,,,,,,,,,,,,,,,,,,,,,,,,,,,,,,,,,,,,,,,,,,,,,,,,,,,,,,,,,,,,,,,,,
,,,,378572,001,2023-08-02_07h13.54.845,fluency,2022.2.4,Win32,143.9263097,,,,,,,,,,,,,,,,,,,,,,,4,9,img/B09_04.jpg,CONTROL,Press K as soon as you see a face, ,KJ,,,,,,,,,,,,,,,,,,,,,,,,,,,,,,,,,,,,,,,,,,,,,,338.0678,0,44,44,92,1,109,0,0,0,0,1,98,,,,,,,,,,,,,,,,,,,,,,,,,,,,,,,,,,,,,,,,,,,,,,,,,,,,,,,,,,,,,,,,,,,,,,,,,,
,,,,378572,001,2023-08-02_07h13.54.845,fluency,2022.2.4,Win32,143.9263097,,,,,,,,,,,,,,,,,,,,,,,,,,,,,,,,,,,,,,,,,,,,,,,,,,,,,,,,,,,,,,,,,,,,,,,,,,,,,,,,,,0,0,0,0,1,,"[""k""]",[0.18819999998811454],0,"[""k""]",[0.1881000000238373],,,,,,,,,,,,,,,,,,,,,,,,,,,,,,,,,,,,,,,,,,,,,,,,,,,,,,,,,,,,,,,,,,,,,
,,,,378572,001,2023-08-02_07h13.54.845,fluency,2022.2.4,Win32,143.9263097,,,,,,,,,,,,,,,,,,,,,,,4,9,img/B09_04.jpg,CONTROL,Press K as soon as you see a face, ,KJ,,,,,,,,,,,,,,,,,,,,,,,,,,,,,,,,4,0.582,,,,,,,,,,,,,,0,44,44,92,1,,,,,,,,,,,,,space,0.1388,,,,,,,,,,,,,,,,,,,,,,,,,,,,,,,,,,,,,,,,,,,,,,,,,,,,,,,,,,,,,,,,,,,
,,,,378572,001,2023-08-02_07h13.54.845,fluency,2022.2.4,Win32,143.9263097,,,,,,,,,,,,,,,,,,,,,,,0,4,img/B04_00.jpg,CONTROL,Press K as soon as you see a face, ,KJ,,,,,,,,,,,,,,,,,,,,,,,,,,,,,,,,,,,,,,,,,,,,,,343.8284,0,45,45,33,1,109,0,0,0,0,1,98,,,,,,,,,,,,,,,,,,,,,,,,,,,,,,,,,,,,,,,,,,,,,,,,,,,,,,,,,,,,,,,,,,,,,,,,,,
,,,,378572,001,2023-08-02_07h13.54.845,fluency,2022.2.4,Win32,143.9263097,,,,,,,,,,,,,,,,,,,,,,,,,,,,,,,,,,,,,,,,,,,,,,,,,,,,,,,,,,,,,,,,,,,,,,,,,,,,,,,,,,0,0,0,0,1,,"[""k""]",[0.17569999998806907],0,"[""k""]",[0.17549999999999955],,,,,,,,,,,,,,,,,,,,,,,,,,,,,,,,,,,,,,,,,,,,,,,,,,,,,,,,,,,,,,,,,,,,,
,,,,378572,001,2023-08-02_07h13.54.845,fluency,2022.2.4,Win32,143.9263097,,,,,,,,,,,,,,,,,,,,,,,0,4,img/B04_00.jpg,CONTROL,Press K as soon as you see a face, ,KJ,,,,,,,,,,,,,,,,,,,,,,,,,,,,,,,,3,0.5222,,,,,,,,,,,,,,0,45,45,33,1,,,,,,,,,,,,,space,0.2591,,,,,,,,,,,,,,,,,,,,,,,,,,,,,,,,,,,,,,,,,,,,,,,,,,,,,,,,,,,,,,,,,,,
,,,,378572,001,2023-08-02_07h13.54.845,fluency,2022.2.4,Win32,143.9263097,,,,,,,,,,,,,,,,,,,,,,,4,5,img/B05_04.jpg,CONTROL,Press K as soon as you see a face, ,KJ,,,,,,,,,,,,,,,,,,,,,,,,,,,,,,,,,,,,,,,,,,,,,,349.6588,0,46,46,48,1,109,0,0,0,0,1,98,,,,,,,,,,,,,,,,,,,,,,,,,,,,,,,,,,,,,,,,,,,,,,,,,,,,,,,,,,,,,,,,,,,,,,,,,,
,,,,378572,001,2023-08-02_07h13.54.845,fluency,2022.2.4,Win32,143.9263097,,,,,,,,,,,,,,,,,,,,,,,,,,,,,,,,,,,,,,,,,,,,,,,,,,,,,,,,,,,,,,,,,,,,,,,,,,,,,,,,,,0,0,0,0,1,,"[""k""]",[0.25260000002384686],0,"[""k""]",[0.2524999999999977],,,,,,,,,,,,,,,,,,,,,,,,,,,,,,,,,,,,,,,,,,,,,,,,,,,,,,,,,,,,,,,,,,,,,
,,,,378572,001,2023-08-02_07h13.54.845,fluency,2022.2.4,Win32,143.9263097,,,,,,,,,,,,,,,,,,,,,,,4,5,img/B05_04.jpg,CONTROL,Press K as soon as you see a face, ,KJ,,,,,,,,,,,,,,,,,,,,,,,,,,,,,,,,3,0.2916,,,,,,,,,,,,,,0,46,46,48,1,,,,,,,,,,,,,space,0.1352,,,,,,,,,,,,,,,,,,,,,,,,,,,,,,,,,,,,,,,,,,,,,,,,,,,,,,,,,,,,,,,,,,,
,,,,378572,001,2023-08-02_07h13.54.845,fluency,2022.2.4,Win32,143.9263097,,,,,,,,,,,,,,,,,,,,,,,7,5,img/B05_07.jpg,CONTROL,Press K as soon as you see a face, ,KJ,,,,,,,,,,,,,,,,,,,,,,,,,,,,,,,,,,,,,,,,,,,,,,355.1137,0,47,47,51,1,109,0,0,0,0,1,98,,,,,,,,,,,,,,,,,,,,,,,,,,,,,,,,,,,,,,,,,,,,,,,,,,,,,,,,,,,,,,,,,,,,,,,,,,
,,,,378572,001,2023-08-02_07h13.54.845,fluency,2022.2.4,Win32,143.9263097,,,,,,,,,,,,,,,,,,,,,,,,,,,,,,,,,,,,,,,,,,,,,,,,,,,,,,,,,,,,,,,,,,,,,,,,,,,,,,,,,,0,0,0,0,1,,"[""k""]",[0.6197000000476578],0,"[""k""]",[0.6197000000476578],,,,,,,,,,,,,,,,,,,,,,,,,,,,,,,,,,,,,,,,,,,,,,,,,,,,,,,,,,,,,,,,,,,,,
,,,,378572,001,2023-08-02_07h13.54.845,fluency,2022.2.4,Win32,143.9263097,,,,,,,,,,,,,,,,,,,,,,,7,5,img/B05_07.jpg,CONTROL,Press K as soon as you see a face, ,KJ,,,,,,,,,,,,,,,,,,,,,,,,,,,,,,,,3,0.3024,,,,,,,,,,,,,,0,47,47,51,1,,,,,,,,,,,,,space,0.1147,,,,,,,,,,,,,,,,,,,,,,,,,,,,,,,,,,,,,,,,,,,,,,,,,,,,,,,,,,,,,,,,,,,
,,,,378572,001,2023-08-02_07h13.54.845,fluency,2022.2.4,Win32,143.9263097,,,,,,,,,,,,,,,,,,,,,,,5,8,img/B08_05.jpg,CONTROL,Press K as soon as you see a face, ,KJ,,,,,,,,,,,,,,,,,,,,,,,,,,,,,,,,,,,,,,,,,,,,,,359.5608,0,48,48,82,1,109,0,0,0,0,1,98,,,,,,,,,,,,,,,,,,,,,,,,,,,,,,,,,,,,,,,,,,,,,,,,,,,,,,,,,,,,,,,,,,,,,,,,,,
,,,,378572,001,2023-08-02_07h13.54.845,fluency,2022.2.4,Win32,143.9263097,,,,,,,,,,,,,,,,,,,,,,,,,,,,,,,,,,,,,,,,,,,,,,,,,,,,,,,,,,,,,,,,,,,,,,,,,,,,,,,,,,0,0,0,0,1,,"[""k""]",[0.4865999999642554],0,"[""k""]",[0.48669999998810454],,,,,,,,,,,,,,,,,,,,,,,,,,,,,,,,,,,,,,,,,,,,,,,,,,,,,,,,,,,,,,,,,,,,,
,,,,378572,001,2023-08-02_07h13.54.845,fluency,2022.2.4,Win32,143.9263097,,,,,,,,,,,,,,,,,,,,,,,5,8,img/B08_05.jpg,CONTROL,Press K as soon as you see a face, ,KJ,,,,,,,,,,,,,,,,,,,,,,,,,,,,,,,,2,0.285,,,,,,,,,,,,,,0,48,48,82,1,,,,,,,,,,,,,space,0.1283,,,,,,,,,,,,,,,,,,,,,,,,,,,,,,,,,,,,,,,,,,,,,,,,,,,,,,,,,,,,,,,,,,,
,,,,378572,001,2023-08-02_07h13.54.845,fluency,2022.2.4,Win32,143.9263097,,,,,,,,,,,,,,,,,,,,,,,8,4,img/B04_08.jpg,CONTROL,Press K as soon as you see a face, ,KJ,,,,,,,,,,,,,,,,,,,,,,,,,,,,,,,,,,,,,,,,,,,,,,364.0006,0,49,49,41,1,109,0,0,0,0,1,98,,,,,,,,,,,,,,,,,,,,,,,,,,,,,,,,,,,,,,,,,,,,,,,,,,,,,,,,,,,,,,,,,,,,,,,,,,
,,,,378572,001,2023-08-02_07h13.54.845,fluency,2022.2.4,Win32,143.9263097,,,,,,,,,,,,,,,,,,,,,,,,,,,,,,,,,,,,,,,,,,,,,,,,,,,,,,,,,,,,,,,,,,,,,,,,,,,,,,,,,,0,0,0,0,1,,"[""k""]",[0.8193000000119355],0,"[""k""]",[0.8193000000119355],,,,,,,,,,,,,,,,,,,,,,,,,,,,,,,,,,,,,,,,,,,,,,,,,,,,,,,,,,,,,,,,,,,,,
,,,,378572,001,2023-08-02_07h13.54.845,fluency,2022.2.4,Win32,143.9263097,,,,,,,,,,,,,,,,,,,,,,,8,4,img/B04_08.jpg,CONTROL,Press K as soon as you see a face, ,KJ,,,,,,,,,,,,,,,,,,,,,,,,,,,,,,,,2,0.3021,,,,,,,,,,,,,,0,49,49,41,1,,,,,,,,,,,,,space,0.6525,,,,,,,,,,,,,,,,,,,,,,,,,,,,,,,,,,,,,,,,,,,,,,,,,,,,,,,,,,,,,,,,,,,
,,,,378572,001,2023-08-02_07h13.54.845,fluency,2022.2.4,Win32,143.9263097,,,,,,,,,,,,,,,,,,,,,,,1,2,img/B02_01.jpg,CONTROL,Press K as soon as you see a face, ,KJ,,,,,,,,,,,,,,,,,,,,,,,,,,,,,,,,,,,,,,,,,,,,,,370.0044,0,50,50,12,1,109,0,0,0,0,1,98,,,,,,,,,,,,,,,,,,,,,,,,,,,,,,,,,,,,,,,,,,,,,,,,,,,,,,,,,,,,,,,,,,,,,,,,,,
,,,,378572,001,2023-08-02_07h13.54.845,fluency,2022.2.4,Win32,143.9263097,,,,,,,,,,,,,,,,,,,,,,,,,,,,,,,,,,,,,,,,,,,,,,,,,,,,,,,,,,,,,,,,,,,,,,,,,,,,,,,,,,0,0,0,0,1,,"[""k""]",[0.6557000000476592],0,"[""k""]",[0.6557000000476592],,,,,,,,,,,,,,,,,,,,,,,,,,,,,,,,,,,,,,,,,,,,,,,,,,,,,,,,,,,,,,,,,,,,,
,,,,378572,001,2023-08-02_07h13.54.845,fluency,2022.2.4,Win32,143.9263097,,,,,,,,,,,,,,,,,,,,,,,1,2,img/B02_01.jpg,CONTROL,Press K as soon as you see a face, ,KJ,,,,,,,,,,,,,,,,,,,,,,,,,,,,,,,,2,0.2418,,,,,,,,,,,,,,0,50,50,12,1,,,,,,,,,,,,,space,0.0771,,,,,,,,,,,,,,,,,,,,,,,,,,,,,,,,,,,,,,,,,,,,,,,,,,,,,,,,,,,,,,,,,,,
,,,,378572,001,2023-08-02_07h13.54.845,fluency,2022.2.4,Win32,143.9263097,,,,,,,,,,,,,,,,,,,,,,,6,5,img/B05_06.jpg,CONTROL,Press K as soon as you see a face, ,KJ,,,,,,,,,,,,,,,,,,,,,,,,,,,,,,,,,,,,,,,,,,,,,,374.3477,0,51,51,50,1,109,0,0,0,0,1,98,,,,,,,,,,,,,,,,,,,,,,,,,,,,,,,,,,,,,,,,,,,,,,,,,,,,,,,,,,,,,,,,,,,,,,,,,,
,,,,378572,001,2023-08-02_07h13.54.845,fluency,2022.2.4,Win32,143.9263097,,,,,,,,,,,,,,,,,,,,,,,,,,,,,,,,,,,,,,,,,,,,,,,,,,,,,,,,,,,,,,,,,,,,,,,,,,,,,,,,,,0,0,0,0,1,,"[""k""]",[0.29989999997616223],0,"[""k""]",[0.2996999999880927],,,,,,,,,,,,,,,,,,,,,,,,,,,,,,,,,,,,,,,,,,,,,,,,,,,,,,,,,,,,,,,,,,,,,
,,,,378572,001,2023-08-02_07h13.54.845,fluency,2022.2.4,Win32,143.9263097,,,,,,,,,,,,,,,,,,,,,,,6,5,img/B05_06.jpg,CONTROL,Press K as soon as you see a face, ,KJ,,,,,,,,,,,,,,,,,,,,,,,,,,,,,,,,4,0.383,,,,,,,,,,,,,,0,51,51,50,1,,,,,,,,,,,,,space,0.1106,,,,,,,,,,,,,,,,,,,,,,,,,,,,,,,,,,,,,,,,,,,,,,,,,,,,,,,,,,,,,,,,,,,
,,,,378572,001,2023-08-02_07h13.54.845,fluency,2022.2.4,Win32,143.9263097,,,,,,,,,,,,,,,,,,,,,,,6,3,img/B03_06.jpg,CONTROL,Press K as soon as you see a face, ,KJ,,,,,,,,,,,,,,,,,,,,,,,,,,,,,,,,,,,,,,,,,,,,,,379.8787,0,52,52,28,1,109,0,0,0,0,1,98,,,,,,,,,,,,,,,,,,,,,,,,,,,,,,,,,,,,,,,,,,,,,,,,,,,,,,,,,,,,,,,,,,,,,,,,,,
,,,,378572,001,2023-08-02_07h13.54.845,fluency,2022.2.4,Win32,143.9263097,,,,,,,,,,,,,,,,,,,,,,,,,,,,,,,,,,,,,,,,,,,,,,,,,,,,,,,,,,,,,,,,,,,,,,,,,,,,,,,,,,0,0,0,0,1,,"[""k""]",[0.4053999999761686],0,"[""k""]",[0.4053999999761686],,,,,,,,,,,,,,,,,,,,,,,,,,,,,,,,,,,,,,,,,,,,,,,,,,,,,,,,,,,,,,,,,,,,,
,,,,378572,001,2023-08-02_07h13.54.845,fluency,2022.2.4,Win32,143.9263097,,,,,,,,,,,,,,,,,,,,,,,6,3,img/B03_06.jpg,CONTROL,Press K as soon as you see a face, ,KJ,,,,,,,,,,,,,,,,,,,,,,,,,,,,,,,,5,0.8958,,,,,,,,,,,,,,0,52,52,28,1,,,,,,,,,,,,,space,0.2712,,,,,,,,,,,,,,,,,,,,,,,,,,,,,,,,,,,,,,,,,,,,,,,,,,,,,,,,,,,,,,,,,,,
,,,,378572,001,2023-08-02_07h13.54.845,fluency,2022.2.4,Win32,143.9263097,,,,,,,,,,,,,,,,,,,,,,,4,8,img/B08_04.jpg,CONTROL,Press K as soon as you see a face, ,KJ,,,,,,,,,,,,,,,,,,,,,,,,,,,,,,,,,,,,,,,,,,,,,,385.0832,0,53,53,81,1,109,0,0,0,0,1,98,,,,,,,,,,,,,,,,,,,,,,,,,,,,,,,,,,,,,,,,,,,,,,,,,,,,,,,,,,,,,,,,,,,,,,,,,,
,,,,378572,001,2023-08-02_07h13.54.845,fluency,2022.2.4,Win32,143.9263097,,,,,,,,,,,,,,,,,,,,,,,,,,,,,,,,,,,,,,,,,,,,,,,,,,,,,,,,,,,,,,,,,,,,,,,,,,,,,,,,,,0,0,0,0,1,,"[""k""]",[0.45710000002384277],0,"[""k""]",[0.45710000002384277],,,,,,,,,,,,,,,,,,,,,,,,,,,,,,,,,,,,,,,,,,,,,,,,,,,,,,,,,,,,,,,,,,,,,
,,,,378572,001,2023-08-02_07h13.54.845,fluency,2022.2.4,Win32,143.9263097,,,,,,,,,,,,,,,,,,,,,,,4,8,img/B08_04.jpg,CONTROL,Press K as soon as you see a face, ,KJ,,,,,,,,,,,,,,,,,,,,,,,,,,,,,,,,2,0.7356,,,,,,,,,,,,,,0,53,53,81,1,,,,,,,,,,,,,space,0.0828,,,,,,,,,,,,,,,,,,,,,,,,,,,,,,,,,,,,,,,,,,,,,,,,,,,,,,,,,,,,,,,,,,,
,,,,378572,001,2023-08-02_07h13.54.845,fluency,2022.2.4,Win32,143.9263097,,,,,,,,,,,,,,,,,,,,,,,7,9,img/B09_07.jpg,CONTROL,Press K as soon as you see a face, ,KJ,,,,,,,,,,,,,,,,,,,,,,,,,,,,,,,,,,,,,,,,,,,,,,389.9334,0,54,54,95,1,109,0,0,0,0,1,98,,,,,,,,,,,,,,,,,,,,,,,,,,,,,,,,,,,,,,,,,,,,,,,,,,,,,,,,,,,,,,,,,,,,,,,,,,
,,,,378572,001,2023-08-02_07h13.54.845,fluency,2022.2.4,Win32,143.9263097,,,,,,,,,,,,,,,,,,,,,,,,,,,,,,,,,,,,,,,,,,,,,,,,,,,,,,,,,,,,,,,,,,,,,,,,,,,,,,,,,,0,0,0,0,1,,"[""k""]",[1.0625],0,"[""k""]",[1.0625],,,,,,,,,,,,,,,,,,,,,,,,,,,,,,,,,,,,,,,,,,,,,,,,,,,,,,,,,,,,,,,,,,,,,
,,,,378572,001,2023-08-02_07h13.54.845,fluency,2022.2.4,Win32,143.9263097,,,,,,,,,,,,,,,,,,,,,,,7,9,img/B09_07.jpg,CONTROL,Press K as soon as you see a face, ,KJ,,,,,,,,,,,,,,,,,,,,,,,,,,,,,,,,4,1.4045,,,,,,,,,,,,,,0,54,54,95,1,,,,,,,,,,,,,space,0.0769,,,,,,,,,,,,,,,,,,,,,,,,,,,,,,,,,,,,,,,,,,,,,,,,,,,,,,,,,,,,,,,,,,,
,,,,378572,001,2023-08-02_07h13.54.845,fluency,2022.2.4,Win32,143.9263097,,,,,,,,,,,,,,,,,,,,,,,0,5,img/B05_00.jpg,CONTROL,Press K as soon as you see a face, ,KJ,,,,,,,,,,,,,,,,,,,,,,,,,,,,,,,,,,,,,,,,,,,,,,395.4441,0,55,55,44,1,109,0,0,0,0,1,98,,,,,,,,,,,,,,,,,,,,,,,,,,,,,,,,,,,,,,,,,,,,,,,,,,,,,,,,,,,,,,,,,,,,,,,,,,
,,,,378572,001,2023-08-02_07h13.54.845,fluency,2022.2.4,Win32,143.9263097,,,,,,,,,,,,,,,,,,,,,,,,,,,,,,,,,,,,,,,,,,,,,,,,,,,,,,,,,,,,,,,,,,,,,,,,,,,,,,,,,,0,0,0,0,1,,"[""k""]",[0.6598000000118986],0,"[""k""]",[0.6597000000476783],,,,,,,,,,,,,,,,,,,,,,,,,,,,,,,,,,,,,,,,,,,,,,,,,,,,,,,,,,,,,,,,,,,,,
,,,,378572,001,2023-08-02_07h13.54.845,fluency,2022.2.4,Win32,143.9263097,,,,,,,,,,,,,,,,,,,,,,,0,5,img/B05_00.jpg,CONTROL,Press K as soon as you see a face, ,KJ,,,,,,,,,,,,,,,,,,,,,,,,,,,,,,,,2,0.2645,,,,,,,,,,,,,,0,55,55,44,1,,,,,,,,,,,,,space,0.0835,,,,,,,,,,,,,,,,,,,,,,,,,,,,,,,,,,,,,,,,,,,,,,,,,,,,,,,,,,,,,,,,,,,
,,,,378572,001,2023-08-02_07h13.54.845,fluency,2022.2.4,Win32,143.9263097,,,,,,,,,,,,,,,,,,,,,,,0,1,img/B01_00.jpg,CONTROL,Press K as soon as you see a face, ,KJ,,,,,,,,,,,,,,,,,,,,,,,,,,,,,,,,,,,,,,,,,,,,,,400.8221,0,56,56,0,1,109,0,0,0,0,1,98,,,,,,,,,,,,,,,,,,,,,,,,,,,,,,,,,,,,,,,,,,,,,,,,,,,,,,,,,,,,,,,,,,,,,,,,,,
,,,,378572,001,2023-08-02_07h13.54.845,fluency,2022.2.4,Win32,143.9263097,,,,,,,,,,,,,,,,,,,,,,,,,,,,,,,,,,,,,,,,,,,,,,,,,,,,,,,,,,,,,,,,,,,,,,,,,,,,,,,,,,0,0,0,0,1,,"[""k""]",[2.095299999952317],0,"[""4"",""k""]","[1.5507999999523463,2.095299999952317]",,,,,,,,,,,,,,,,,,,,,,,,,,,,,,,,,,,,,,,,,,,,,,,,,,,,,,,,,,,,,,,,,,,,,
,,,,378572,001,2023-08-02_07h13.54.845,fluency,2022.2.4,Win32,143.9263097,,,,,,,,,,,,,,,,,,,,,,,0,1,img/B01_00.jpg,CONTROL,Press K as soon as you see a face, ,KJ,,,,,,,,,,,,,,,,,,,,,,,,,,,,,,,,4,0.3511,,,,,,,,,,,,,,0,56,56,0,1,,,,,,,,,,,,,space,0.0006,,,,,,,,,,,,,,,,,,,,,,,,,,,,,,,,,,,,,,,,,,,,,,,,,,,,,,,,,,,,,,,,,,,
,,,,378572,001,2023-08-02_07h13.54.845,fluency,2022.2.4,Win32,143.9263097,,,,,,,,,,,,,,,,,,,,,,,5,1,img/B01_05.jpg,CONTROL,Press K as soon as you see a face, ,KJ,,,,,,,,,,,,,,,,,,,,,,,,,,,,,,,,,,,,,,,,,,,,,,406.2005,0,57,57,5,1,109,0,0,0,0,1,98,,,,,,,,,,,,,,,,,,,,,,,,,,,,,,,,,,,,,,,,,,,,,,,,,,,,,,,,,,,,,,,,,,,,,,,,,,
,,,,378572,001,2023-08-02_07h13.54.845,fluency,2022.2.4,Win32,143.9263097,,,,,,,,,,,,,,,,,,,,,,,,,,,,,,,,,,,,,,,,,,,,,,,,,,,,,,,,,,,,,,,,,,,,,,,,,,,,,,,,,,0,0,0,0,1,,"[""k""]",[2.272199999988061],0,"[""2"",""k""]","[1.404300000011915,2.272199999988061]",,,,,,,,,,,,,,,,,,,,,,,,,,,,,,,,,,,,,,,,,,,,,,,,,,,,,,,,,,,,,,,,,,,,,
,,,,378572,001,2023-08-02_07h13.54.845,fluency,2022.2.4,Win32,143.9263097,,,,,,,,,,,,,,,,,,,,,,,5,1,img/B01_05.jpg,CONTROL,Press K as soon as you see a face, ,KJ,,,,,,,,,,,,,,,,,,,,,,,,,,,,,,,,3,0.3455,,,,,,,,,,,,,,0,57,57,5,1,,,,,,,,,,,,,space,0.1403,,,,,,,,,,,,,,,,,,,,,,,,,,,,,,,,,,,,,,,,,,,,,,,,,,,,,,,,,,,,,,,,,,,
,,,,378572,001,2023-08-02_07h13.54.845,fluency,2022.2.4,Win32,143.9263097,,,,,,,,,,,,,,,,,,,,,,,1,10,img/B10_01.jpg,CONTROL,Press K as soon as you see a face, ,KJ,,,,,,,,,,,,,,,,,,,,,,,,,,,,,,,,,,,,,,,,,,,,,,411.726,0,58,58,100,1,109,0,0,0,0,1,98,,,,,,,,,,,,,,,,,,,,,,,,,,,,,,,,,,,,,,,,,,,,,,,,,,,,,,,,,,,,,,,,,,,,,,,,,,
,,,,378572,001,2023-08-02_07h13.54.845,fluency,2022.2.4,Win32,143.9263097,,,,,,,,,,,,,,,,,,,,,,,,,,,,,,,,,,,,,,,,,,,,,,,,,,,,,,,,,,,,,,,,,,,,,,,,,,,,,,,,,,0,0,0,0,1,,"[""k""]",[1.8555999999642268],0,"[""4"",""k""]","[1.3765000000000214,1.8555000000000064]",,,,,,,,,,,,,,,,,,,,,,,,,,,,,,,,,,,,,,,,,,,,,,,,,,,,,,,,,,,,,,,,,,,,,
,,,,378572,001,2023-08-02_07h13.54.845,fluency,2022.2.4,Win32,143.9263097,,,,,,,,,,,,,,,,,,,,,,,1,10,img/B10_01.jpg,CONTROL,Press K as soon as you see a face, ,KJ,,,,,,,,,,,,,,,,,,,,,,,,,,,,,,,,4,0.2845,,,,,,,,,,,,,,0,58,58,100,1,,,,,,,,,,,,,space,0.0992,,,,,,,,,,,,,,,,,,,,,,,,,,,,,,,,,,,,,,,,,,,,,,,,,,,,,,,,,,,,,,,,,,,
,,,,378572,001,2023-08-02_07h13.54.845,fluency,2022.2.4,Win32,143.9263097,,,,,,,,,,,,,,,,,,,,,,,1,3,img/B03_01.jpg,CONTROL,Press K as soon as you see a face, ,KJ,,,,,,,,,,,,,,,,,,,,,,,,,,,,,,,,,,,,,,,,,,,,,,417.1378,0,59,59,23,1,109,0,0,0,0,1,98,,,,,,,,,,,,,,,,,,,,,,,,,,,,,,,,,,,,,,,,,,,,,,,,,,,,,,,,,,,,,,,,,,,,,,,,,,
,,,,378572,001,2023-08-02_07h13.54.845,fluency,2022.2.4,Win32,143.9263097,,,,,,,,,,,,,,,,,,,,,,,,,,,,,,,,,,,,,,,,,,,,,,,,,,,,,,,,,,,,,,,,,,,,,,,,,,,,,,,,,,0,0,0,0,1,,"[""k"",""k""]","[0.24219999998808817,2.2754999999999654]",0,"[""k"",""k""]","[0.24210000002386778,2.275400000035745]",,,,,,,,,,,,,,,,,,,,,,,,,,,,,,,,,,,,,,,,,,,,,,,,,,,,,,,,,,,,,,,,,,,,,
,,,,378572,001,2023-08-02_07h13.54.845,fluency,2022.2.4,Win32,143.9263097,,,,,,,,,,,,,,,,,,,,,,,1,3,img/B03_01.jpg,CONTROL,Press K as soon as you see a face, ,KJ,,,,,,,,,,,,,,,,,,,,,,,,,,,,,,,,7,0.4623,,,,,,,,,,,,,,0,59,59,23,1,,,,,,,,,,,,,space,1.4333,,,,,,,,,,,,,,,,,,,,,,,,,,,,,,,,,,,,,,,,,,,,,,,,,,,,,,,,,,,,,,,,,,,
,,,,378572,001,2023-08-02_07h13.54.845,fluency,2022.2.4,Win32,143.9263097,,,,,,,,,,,,,,,,,,,,,,,6,6,img/B06_06.jpg,CONTROL,Press K as soon as you see a face, ,KJ,,,,,,,,,,,,,,,,,,,,,,,,,,,,,,,,,,,,,,,,,,,,,,424.0591,0,60,60,61,1,109,0,0,0,0,1,98,,,,,,,,,,,,,,,,,,,,,,,,,,,,,,,,,,,,,,,,,,,,,,,,,,,,,,,,,,,,,,,,,,,,,,,,,,
,,,,378572,001,2023-08-02_07h13.54.845,fluency,2022.2.4,Win32,143.9263097,,,,,,,,,,,,,,,,,,,,,,,,,,,,,,,,,,,,,,,,,,,,,,,,,,,,,,,,,,,,,,,,,,,,,,,,,,,,,,,,,,0,0,0,0,1,,"[""k""]",[0.3745000000000118],0,"[""k""]",[0.3745000000000118],,,,,,,,,,,,,,,,,,,,,,,,,,,,,,,,,,,,,,,,,,,,,,,,,,,,,,,,,,,,,,,,,,,,,
,,,,378572,001,2023-08-02_07h13.54.845,fluency,2022.2.4,Win32,143.9263097,,,,,,,,,,,,,,,,,,,,,,,6,6,img/B06_06.jpg,CONTROL,Press K as soon as you see a face, ,KJ,,,,,,,,,,,,,,,,,,,,,,,,,,,,,,,,3,0.4514,,,,,,,,,,,,,,0,60,60,61,1,,,,,,,,,,,,,space,0.8269,,,,,,,,,,,,,,,,,,,,,,,,,,,,,,,,,,,,,,,,,,,,,,,,,,,,,,,,,,,,,,,,,,,
,,,,378572,001,2023-08-02_07h13.54.845,fluency,2022.2.4,Win32,143.9263097,,,,,,,,,,,,,,,,,,,,,,,2,1,img/B01_02.jpg,CONTROL,Press K as soon as you see a face, ,KJ,,,,,,,,,,,,,,,,,,,,,,,,,,,,,,,,,,,,,,,,,,,,,,429.3888,0,61,61,2,1,109,0,0,0,0,1,98,,,,,,,,,,,,,,,,,,,,,,,,,,,,,,,,,,,,,,,,,,,,,,,,,,,,,,,,,,,,,,,,,,,,,,,,,,
,,,,378572,001,2023-08-02_07h13.54.845,fluency,2022.2.4,Win32,143.9263097,,,,,,,,,,,,,,,,,,,,,,,,,,,,,,,,,,,,,,,,,,,,,,,,,,,,,,,,,,,,,,,,,,,,,,,,,,,,,,,,,,0,0,0,0,1,,"[""k""]",[0.8707999999523395],0,"[""k""]",[0.8706999999880622],,,,,,,,,,,,,,,,,,,,,,,,,,,,,,,,,,,,,,,,,,,,,,,,,,,,,,,,,,,,,,,,,,,,,
,,,,378572,001,2023-08-02_07h13.54.845,fluency,2022.2.4,Win32,143.9263097,,,,,,,,,,,,,,,,,,,,,,,2,1,img/B01_02.jpg,CONTROL,Press K as soon as you see a face, ,KJ,,,,,,,,,,,,,,,,,,,,,,,,,,,,,,,,4,0.906,,,,,,,,,,,,,,0,61,61,2,1,,,,,,,,,,,,,space,0.3925,,,,,,,,,,,,,,,,,,,,,,,,,,,,,,,,,,,,,,,,,,,,,,,,,,,,,,,,,,,,,,,,,,,
,,,,378572,001,2023-08-02_07h13.54.845,fluency,2022.2.4,Win32,143.9263097,,,,,,,,,,,,,,,,,,,,,,,8,9,img/B09_08.jpg,CONTROL,Press K as soon as you see a face, ,KJ,,,,,,,,,,,,,,,,,,,,,,,,,,,,,,,,,,,,,,,,,,,,,,434.7048,0,62,62,96,1,109,0,0,0,0,1,98,,,,,,,,,,,,,,,,,,,,,,,,,,,,,,,,,,,,,,,,,,,,,,,,,,,,,,,,,,,,,,,,,,,,,,,,,,
,,,,378572,001,2023-08-02_07h13.54.845,fluency,2022.2.4,Win32,143.9263097,,,,,,,,,,,,,,,,,,,,,,,,,,,,,,,,,,,,,,,,,,,,,,,,,,,,,,,,,,,,,,,,,,,,,,,,,,,,,,,,,,0,0,0,0,1,,"[""k""]",[0.41919999998805224],0,"[""k""]",[0.41910000002383185],,,,,,,,,,,,,,,,,,,,,,,,,,,,,,,,,,,,,,,,,,,,,,,,,,,,,,,,,,,,,,,,,,,,,
,,,,378572,001,2023-08-02_07h13.54.845,fluency,2022.2.4,Win32,143.9263097,,,,,,,,,,,,,,,,,,,,,,,8,9,img/B09_08.jpg,CONTROL,Press K as soon as you see a face, ,KJ,,,,,,,,,,,,,,,,,,,,,,,,,,,,,,,,4,0.3702,,,,,,,,,,,,,,0,62,62,96,1,,,,,,,,,,,,,space,0.2286,,,,,,,,,,,,,,,,,,,,,,,,,,,,,,,,,,,,,,,,,,,,,,,,,,,,,,,,,,,,,,,,,,,
,,,,378572,001,2023-08-02_07h13.54.845,fluency,2022.2.4,Win32,143.9263097,,,,,,,,,,,,,,,,,,,,,,,4,1,img/B01_04.jpg,CONTROL,Press K as soon as you see a face, ,KJ,,,,,,,,,,,,,,,,,,,,,,,,,,,,,,,,,,,,,,,,,,,,,,439.3322,0,63,63,4,1,109,0,0,0,0,1,98,,,,,,,,,,,,,,,,,,,,,,,,,,,,,,,,,,,,,,,,,,,,,,,,,,,,,,,,,,,,,,,,,,,,,,,,,,
,,,,378572,001,2023-08-02_07h13.54.845,fluency,2022.2.4,Win32,143.9263097,,,,,,,,,,,,,,,,,,,,,,,,,,,,,,,,,,,,,,,,,,,,,,,,,,,,,,,,,,,,,,,,,,,,,,,,,,,,,,,,,,0,0,0,0,1,,"[""k""]",[0.2644000000357778],0,"[""k""]",[0.2644000000357778],,,,,,,,,,,,,,,,,,,,,,,,,,,,,,,,,,,,,,,,,,,,,,,,,,,,,,,,,,,,,,,,,,,,,
,,,,378572,001,2023-08-02_07h13.54.845,fluency,2022.2.4,Win32,143.9263097,,,,,,,,,,,,,,,,,,,,,,,4,1,img/B01_04.jpg,CONTROL,Press K as soon as you see a face, ,KJ,,,,,,,,,,,,,,,,,,,,,,,,,,,,,,,,2,0.3422,,,,,,,,,,,,,,0,63,63,4,1,,,,,,,,,,,,,space,0.174,,,,,,,,,,,,,,,,,,,,,,,,,,,,,,,,,,,,,,,,,,,,,,,,,,,,,,,,,,,,,,,,,,,
,,,,378572,001,2023-08-02_07h13.54.845,fluency,2022.2.4,Win32,143.9263097,,,,,,,,,,,,,,,,,,,,,,,2,4,img/B04_02.jpg,CONTROL,Press K as soon as you see a face, ,KJ,,,,,,,,,,,,,,,,,,,,,,,,,,,,,,,,,,,,,,,,,,,,,,443.877,0,64,64,35,1,109,0,0,0,0,1,98,,,,,,,,,,,,,,,,,,,,,,,,,,,,,,,,,,,,,,,,,,,,,,,,,,,,,,,,,,,,,,,,,,,,,,,,,,
,,,,378572,001,2023-08-02_07h13.54.845,fluency,2022.2.4,Win32,143.9263097,,,,,,,,,,,,,,,,,,,,,,,,,,,,,,,,,,,,,,,,,,,,,,,,,,,,,,,,,,,,,,,,,,,,,,,,,,,,,,,,,,0,0,0,0,1,,"[""k""]",[0.24379999995232993],0,"[""k""]",[0.24379999995232993],,,,,,,,,,,,,,,,,,,,,,,,,,,,,,,,,,,,,,,,,,,,,,,,,,,,,,,,,,,,,,,,,,,,,
,,,,378572,001,2023-08-02_07h13.54.845,fluency,2022.2.4,Win32,143.9263097,,,,,,,,,,,,,,,,,,,,,,,2,4,img/B04_02.jpg,CONTROL,Press K as soon as you see a face, ,KJ,,,,,,,,,,,,,,,,,,,,,,,,,,,,,,,,3,0.2732,,,,,,,,,,,,,,0,64,64,35,1,,,,,,,,,,,,,space,0.1618,,,,,,,,,,,,,,,,,,,,,,,,,,,,,,,,,,,,,,,,,,,,,,,,,,,,,,,,,,,,,,,,,,,
,,,,378572,001,2023-08-02_07h13.54.845,fluency,2022.2.4,Win32,143.9263097,,,,,,,,,,,,,,,,,,,,,,,5,9,img/B09_05.jpg,CONTROL,Press K as soon as you see a face, ,KJ,,,,,,,,,,,,,,,,,,,,,,,,,,,,,,,,,,,,,,,,,,,,,,448.3381,0,65,65,93,1,109,0,0,0,0,1,98,,,,,,,,,,,,,,,,,,,,,,,,,,,,,,,,,,,,,,,,,,,,,,,,,,,,,,,,,,,,,,,,,,,,,,,,,,
,,,,378572,001,2023-08-02_07h13.54.845,fluency,2022.2.4,Win32,143.9263097,,,,,,,,,,,,,,,,,,,,,,,,,,,,,,,,,,,,,,,,,,,,,,,,,,,,,,,,,,,,,,,,,,,,,,,,,,,,,,,,,,0,0,0,0,1,,"[""k""]",[0.48680000001195367],0,"[""k""]",[0.48680000001195367],,,,,,,,,,,,,,,,,,,,,,,,,,,,,,,,,,,,,,,,,,,,,,,,,,,,,,,,,,,,,,,,,,,,,
,,,,378572,001,2023-08-02_07h13.54.845,fluency,2022.2.4,Win32,143.9263097,,,,,,,,,,,,,,,,,,,,,,,5,9,img/B09_05.jpg,CONTROL,Press K as soon as you see a face, ,KJ,,,,,,,,,,,,,,,,,,,,,,,,,,,,,,,,4,0.2629,,,,,,,,,,,,,,0,65,65,93,1,,,,,,,,,,,,,space,0.099,,,,,,,,,,,,,,,,,,,,,,,,,,,,,,,,,,,,,,,,,,,,,,,,,,,,,,,,,,,,,,,,,,,
,,,,378572,001,2023-08-02_07h13.54.845,fluency,2022.2.4,Win32,143.9263097,,,,,,,,,,,,,,,,,,,,,,,10,9,img/B09_10.jpg,CONTROL,Press K as soon as you see a face, ,KJ,,,,,,,,,,,,,,,,,,,,,,,,,,,,,,,,,,,,,,,,,,,,,,452.7297,0,66,66,98,1,109,0,0,0,0,1,98,,,,,,,,,,,,,,,,,,,,,,,,,,,,,,,,,,,,,,,,,,,,,,,,,,,,,,,,,,,,,,,,,,,,,,,,,,
,,,,378572,001,2023-08-02_07h13.54.845,fluency,2022.2.4,Win32,143.9263097,,,,,,,,,,,,,,,,,,,,,,,,,,,,,,,,,,,,,,,,,,,,,,,,,,,,,,,,,,,,,,,,,,,,,,,,,,,,,,,,,,0,0,0,0,1,,"[""k""]",[0.23110000002384368],0,"[""k""]",[0.23099999999999454],,,,,,,,,,,,,,,,,,,,,,,,,,,,,,,,,,,,,,,,,,,,,,,,,,,,,,,,,,,,,,,,,,,,,
,,,,378572,001,2023-08-02_07h13.54.845,fluency,2022.2.4,Win32,143.9263097,,,,,,,,,,,,,,,,,,,,,,,10,9,img/B09_10.jpg,CONTROL,Press K as soon as you see a face, ,KJ,,,,,,,,,,,,,,,,,,,,,,,,,,,,,,,,3,0.3133,,,,,,,,,,,,,,0,66,66,98,1,,,,,,,,,,,,,space,0.1067,,,,,,,,,,,,,,,,,,,,,,,,,,,,,,,,,,,,,,,,,,,,,,,,,,,,,,,,,,,,,,,,,,,
,,,,378572,001,2023-08-02_07h13.54.845,fluency,2022.2.4,Win32,143.9263097,,,,,,,,,,,,,,,,,,,,,,,3,3,img/B03_03.jpg,CONTROL,Press K as soon as you see a face, ,KJ,,,,,,,,,,,,,,,,,,,,,,,,,,,,,,,,,,,,,,,,,,,,,,458.1776,0,67,67,25,1,109,0,0,0,0,1,98,,,,,,,,,,,,,,,,,,,,,,,,,,,,,,,,,,,,,,,,,,,,,,,,,,,,,,,,,,,,,,,,,,,,,,,,,,
,,,,378572,001,2023-08-02_07h13.54.845,fluency,2022.2.4,Win32,143.9263097,,,,,,,,,,,,,,,,,,,,,,,,,,,,,,,,,,,,,,,,,,,,,,,,,,,,,,,,,,,,,,,,,,,,,,,,,,,,,,,,,,0,0,0,0,1,,"[""k""]",[0.25240000003577734],0,"[""k""]",[0.25240000003577734],,,,,,,,,,,,,,,,,,,,,,,,,,,,,,,,,,,,,,,,,,,,,,,,,,,,,,,,,,,,,,,,,,,,,
,,,,378572,001,2023-08-02_07h13.54.845,fluency,2022.2.4,Win32,143.9263097,,,,,,,,,,,,,,,,,,,,,,,3,3,img/B03_03.jpg,CONTROL,Press K as soon as you see a face, ,KJ,,,,,,,,,,,,,,,,,,,,,,,,,,,,,,,,5,0.41,,,,,,,,,,,,,,0,67,67,25,1,,,,,,,,,,,,,space,0.1343,,,,,,,,,,,,,,,,,,,,,,,,,,,,,,,,,,,,,,,,,,,,,,,,,,,,,,,,,,,,,,,,,,,
,,,,378572,001,2023-08-02_07h13.54.845,fluency,2022.2.4,Win32,143.9263097,,,,,,,,,,,,,,,,,,,,,,,5,5,img/B05_05.jpg,CONTROL,Press K as soon as you see a face, ,KJ,,,,,,,,,,,,,,,,,,,,,,,,,,,,,,,,,,,,,,,,,,,,,,463.778,0,68,68,49,1,109,0,0,0,0,1,98,,,,,,,,,,,,,,,,,,,,,,,,,,,,,,,,,,,,,,,,,,,,,,,,,,,,,,,,,,,,,,,,,,,,,,,,,,
,,,,378572,001,2023-08-02_07h13.54.845,fluency,2022.2.4,Win32,143.9263097,,,,,,,,,,,,,,,,,,,,,,,,,,,,,,,,,,,,,,,,,,,,,,,,,,,,,,,,,,,,,,,,,,,,,,,,,,,,,,,,,,0,0,0,0,1,,"[""k""]",[0.23639999997612904],0,"[""k""]",[0.23639999997612904],,,,,,,,,,,,,,,,,,,,,,,,,,,,,,,,,,,,,,,,,,,,,,,,,,,,,,,,,,,,,,,,,,,,,
,,,,378572,001,2023-08-02_07h13.54.845,fluency,2022.2.4,Win32,143.9263097,,,,,,,,,,,,,,,,,,,,,,,5,5,img/B05_05.jpg,CONTROL,Press K as soon as you see a face, ,KJ,,,,,,,,,,,,,,,,,,,,,,,,,,,,,,,,5,0.4171,,,,,,,,,,,,,,0,68,68,49,1,,,,,,,,,,,,,space,1.6206,,,,,,,,,,,,,,,,,,,,,,,,,,,,,,,,,,,,,,,,,,,,,,,,,,,,,,,,,,,,,,,,,,,
,,,,378572,001,2023-08-02_07h13.54.845,fluency,2022.2.4,Win32,143.9263097,,,,,,,,,,,,,,,,,,,,,,,1,8,img/B08_01.jpg,CONTROL,Press K as soon as you see a face, ,KJ,,,,,,,,,,,,,,,,,,,,,,,,,,,,,,,,,,,,,,,,,,,,,,469.8583,0,69,69,78,1,109,0,0,0,0,1,98,,,,,,,,,,,,,,,,,,,,,,,,,,,,,,,,,,,,,,,,,,,,,,,,,,,,,,,,,,,,,,,,,,,,,,,,,,
,,,,378572,001,2023-08-02_07h13.54.845,fluency,2022.2.4,Win32,143.9263097,,,,,,,,,,,,,,,,,,,,,,,,,,,,,,,,,,,,,,,,,,,,,,,,,,,,,,,,,,,,,,,,,,,,,,,,,,,,,,,,,,0,0,0,0,1,,"[""k""]",[0.4921000000239246],0,"[""k""]",[0.49220000004777376],,,,,,,,,,,,,,,,,,,,,,,,,,,,,,,,,,,,,,,,,,,,,,,,,,,,,,,,,,,,,,,,,,,,,
,,,,378572,001,2023-08-02_07h13.54.845,fluency,2022.2.4,Win32,143.9263097,,,,,,,,,,,,,,,,,,,,,,,1,8,img/B08_01.jpg,CONTROL,Press K as soon as you see a face, ,KJ,,,,,,,,,,,,,,,,,,,,,,,,,,,,,,,,2,0.2458,,,,,,,,,,,,,,0,69,69,78,1,,,,,,,,,,,,,space,0.7286,,,,,,,,,,,,,,,,,,,,,,,,,,,,,,,,,,,,,,,,,,,,,,,,,,,,,,,,,,,,,,,,,,,
,,,,378572,001,2023-08-02_07h13.54.845,fluency,2022.2.4,Win32,143.9263097,,,,,,,,,,,,,,,,,,,,,,,6,4,img/B04_06.jpg,CONTROL,Press K as soon as you see a face, ,KJ,,,,,,,,,,,,,,,,,,,,,,,,,,,,,,,,,,,,,,,,,,,,,,475.8623,0,70,70,39,1,109,0,0,0,0,1,98,,,,,,,,,,,,,,,,,,,,,,,,,,,,,,,,,,,,,,,,,,,,,,,,,,,,,,,,,,,,,,,,,,,,,,,,,,
,,,,378572,001,2023-08-02_07h13.54.845,fluency,2022.2.4,Win32,143.9263097,,,,,,,,,,,,,,,,,,,,,,,,,,,,,,,,,,,,,,,,,,,,,,,,,,,,,,,,,,,,,,,,,,,,,,,,,,,,,,,,,,0,0,0,0,1,,"[""k""]",[0.3248000000119191],0,"[""k""]",[0.32469999998807],,,,,,,,,,,,,,,,,,,,,,,,,,,,,,,,,,,,,,,,,,,,,,,,,,,,,,,,,,,,,,,,,,,,,
,,,,378572,001,2023-08-02_07h13.54.845,fluency,2022.2.4,Win32,143.9263097,,,,,,,,,,,,,,,,,,,,,,,6,4,img/B04_06.jpg,CONTROL,Press K as soon as you see a face, ,KJ,,,,,,,,,,,,,,,,,,,,,,,,,,,,,,,,2,0.2972,,,,,,,,,,,,,,0,70,70,39,1,,,,,,,,,,,,,space,0.1099,,,,,,,,,,,,,,,,,,,,,,,,,,,,,,,,,,,,,,,,,,,,,,,,,,,,,,,,,,,,,,,,,,,
,,,,378572,001,2023-08-02_07h13.54.845,fluency,2022.2.4,Win32,143.9263097,,,,,,,,,,,,,,,,,,,,,,,6,8,img/B08_06.jpg,CONTROL,Press K as soon as you see a face, ,KJ,,,,,,,,,,,,,,,,,,,,,,,,,,,,,,,,,,,,,,,,,,,,,,480.3024,0,71,71,83,1,109,0,0,0,0,1,98,,,,,,,,,,,,,,,,,,,,,,,,,,,,,,,,,,,,,,,,,,,,,,,,,,,,,,,,,,,,,,,,,,,,,,,,,,
,,,,378572,001,2023-08-02_07h13.54.845,fluency,2022.2.4,Win32,143.9263097,,,,,,,,,,,,,,,,,,,,,,,,,,,,,,,,,,,,,,,,,,,,,,,,,,,,,,,,,,,,,,,,,,,,,,,,,,,,,,,,,,0,0,0,0,1,,"[""k""]",[1.3741999999880363],0,"[""2"",""space"",""k"",""2""]","[0.8196000000237973,0.9556999999880418,1.3741999999880363,1.651600000023791]",,,,,,,,,,,,,,,,,,,,,,,,,,,,,,,,,,,,,,,,,,,,,,,,,,,,,,,,,,,,,,,,,,,,,
,,,,378572,001,2023-08-02_07h13.54.845,fluency,2022.2.4,Win32,143.9263097,,,,,,,,,,,,,,,,,,,,,,,6,8,img/B08_06.jpg,CONTROL,Press K as soon as you see a face, ,KJ,,,,,,,,,,,,,,,,,,,,,,,,,,,,,,,,2,0.2426,,,,,,,,,,,,,,0,71,71,83,1,,,,,,,,,,,,,space,0.1138,,,,,,,,,,,,,,,,,,,,,,,,,,,,,,,,,,,,,,,,,,,,,,,,,,,,,,,,,,,,,,,,,,,
,,,,378572,001,2023-08-02_07h13.54.845,fluency,2022.2.4,Win32,143.9263097,,,,,,,,,,,,,,,,,,,,,,,9,9,img/B09_09.jpg,CONTROL,Press K as soon as you see a face, ,KJ,,,,,,,,,,,,,,,,,,,,,,,,,,,,,,,,,,,,,,,,,,,,,,484.7288,0,72,72,97,1,109,0,0,0,0,1,98,,,,,,,,,,,,,,,,,,,,,,,,,,,,,,,,,,,,,,,,,,,,,,,,,,,,,,,,,,,,,,,,,,,,,,,,,,
,,,,378572,001,2023-08-02_07h13.54.845,fluency,2022.2.4,Win32,143.9263097,,,,,,,,,,,,,,,,,,,,,,,,,,,,,,,,,,,,,,,,,,,,,,,,,,,,,,,,,,,,,,,,,,,,,,,,,,,,,,,,,,0,0,0,0,1,,"[""k""]",[0.5666999999880318],0,"[""k""]",[0.5666999999880318],,,,,,,,,,,,,,,,,,,,,,,,,,,,,,,,,,,,,,,,,,,,,,,,,,,,,,,,,,,,,,,,,,,,,
,,,,378572,001,2023-08-02_07h13.54.845,fluency,2022.2.4,Win32,143.9263097,,,,,,,,,,,,,,,,,,,,,,,9,9,img/B09_09.jpg,CONTROL,Press K as soon as you see a face, ,KJ,,,,,,,,,,,,,,,,,,,,,,,,,,,,,,,,3,0.2314,,,,,,,,,,,,,,0,72,72,97,1,,,,,,,,,,,,,space,0.1276,,,,,,,,,,,,,,,,,,,,,,,,,,,,,,,,,,,,,,,,,,,,,,,,,,,,,,,,,,,,,,,,,,,
,,,,378572,001,2023-08-02_07h13.54.845,fluency,2022.2.4,Win32,143.9263097,,,,,,,,,,,,,,,,,,,,,,,3,5,img/B05_03.jpg,CONTROL,Press K as soon as you see a face, ,KJ,,,,,,,,,,,,,,,,,,,,,,,,,,,,,,,,,,,,,,,,,,,,,,489.1134,0,73,73,47,1,109,0,0,0,0,1,98,,,,,,,,,,,,,,,,,,,,,,,,,,,,,,,,,,,,,,,,,,,,,,,,,,,,,,,,,,,,,,,,,,,,,,,,,,
,,,,378572,001,2023-08-02_07h13.54.845,fluency,2022.2.4,Win32,143.9263097,,,,,,,,,,,,,,,,,,,,,,,,,,,,,,,,,,,,,,,,,,,,,,,,,,,,,,,,,,,,,,,,,,,,,,,,,,,,,,,,,,0,0,0,0,1,,"[""k""]",[0.2668000000119264],0,"[""k""]",[0.2668000000119264],,,,,,,,,,,,,,,,,,,,,,,,,,,,,,,,,,,,,,,,,,,,,,,,,,,,,,,,,,,,,,,,,,,,,
,,,,378572,001,2023-08-02_07h13.54.845,fluency,2022.2.4,Win32,143.9263097,,,,,,,,,,,,,,,,,,,,,,,3,5,img/B05_03.jpg,CONTROL,Press K as soon as you see a face, ,KJ,,,,,,,,,,,,,,,,,,,,,,,,,,,,,,,,3,0.3053,,,,,,,,,,,,,,0,73,73,47,1,,,,,,,,,,,,,space,0.1137,,,,,,,,,,,,,,,,,,,,,,,,,,,,,,,,,,,,,,,,,,,,,,,,,,,,,,,,,,,,,,,,,,,
,,,,378572,001,2023-08-02_07h13.54.845,fluency,2022.2.4,Win32,143.9263097,,,,,,,,,,,,,,,,,,,,,,,1,7,img/B07_01.jpg,CONTROL,Press K as soon as you see a face, ,KJ,,,,,,,,,,,,,,,,,,,,,,,,,,,,,,,,,,,,,,,,,,,,,,493.5604,0,74,74,67,1,109,0,0,0,0,1,98,,,,,,,,,,,,,,,,,,,,,,,,,,,,,,,,,,,,,,,,,,,,,,,,,,,,,,,,,,,,,,,,,,,,,,,,,,
,,,,378572,001,2023-08-02_07h13.54.845,fluency,2022.2.4,Win32,143.9263097,,,,,,,,,,,,,,,,,,,,,,,,,,,,,,,,,,,,,,,,,,,,,,,,,,,,,,,,,,,,,,,,,,,,,,,,,,,,,,,,,,0,0,0,0,1,,"[""k""]",[0.21409999996421902],0,"[""k""]",[0.21359999996423085],,,,,,,,,,,,,,,,,,,,,,,,,,,,,,,,,,,,,,,,,,,,,,,,,,,,,,,,,,,,,,,,,,,,,
,,,,378572,001,2023-08-02_07h13.54.845,fluency,2022.2.4,Win32,143.9263097,,,,,,,,,,,,,,,,,,,,,,,1,7,img/B07_01.jpg,CONTROL,Press K as soon as you see a face, ,KJ,,,,,,,,,,,,,,,,,,,,,,,,,,,,,,,,6,0.5081,,,,,,,,,,,,,,0,74,74,67,1,,,,,,,,,,,,,space,0.3956,,,,,,,,,,,,,,,,,,,,,,,,,,,,,,,,,,,,,,,,,,,,,,,,,,,,,,,,,,,,,,,,,,,
,,,,378572,001,2023-08-02_07h13.54.845,fluency,2022.2.4,Win32,143.9263097,,,,,,,,,,,,,,,,,,,,,,,0,6,img/B06_00.jpg,CONTROL,Press K as soon as you see a face, ,KJ,,,,,,,,,,,,,,,,,,,,,,,,,,,,,,,,,,,,,,,,,,,,,,499.4948,0,75,75,55,1,109,0,0,0,0,1,98,,,,,,,,,,,,,,,,,,,,,,,,,,,,,,,,,,,,,,,,,,,,,,,,,,,,,,,,,,,,,,,,,,,,,,,,,,
,,,,378572,001,2023-08-02_07h13.54.845,fluency,2022.2.4,Win32,143.9263097,,,,,,,,,,,,,,,,,,,,,,,,,,,,,,,,,,,,,,,,,,,,,,,,,,,,,,,,,,,,,,,,,,,,,,,,,,,,,,,,,,0,0,0,0,1,,"[""k""]",[0.2728999999761754],0,"[""k""]",[0.27300000000002456],,,,,,,,,,,,,,,,,,,,,,,,,,,,,,,,,,,,,,,,,,,,,,,,,,,,,,,,,,,,,,,,,,,,,
,,,,378572,001,2023-08-02_07h13.54.845,fluency,2022.2.4,Win32,143.9263097,,,,,,,,,,,,,,,,,,,,,,,0,6,img/B06_00.jpg,CONTROL,Press K as soon as you see a face, ,KJ,,,,,,,,,,,,,,,,,,,,,,,,,,,,,,,,4,0.2517,,,,,,,,,,,,,,0,75,75,55,1,,,,,,,,,,,,,space,0.1255,,,,,,,,,,,,,,,,,,,,,,,,,,,,,,,,,,,,,,,,,,,,,,,,,,,,,,,,,,,,,,,,,,,
,,,,378572,001,2023-08-02_07h13.54.845,fluency,2022.2.4,Win32,143.9263097,,,,,,,,,,,,,,,,,,,,,,,1,6,img/B06_01.jpg,CONTROL,Press K as soon as you see a face, ,KJ,,,,,,,,,,,,,,,,,,,,,,,,,,,,,,,,,,,,,,,,,,,,,,503.9077,0,76,76,56,1,109,0,0,0,0,1,98,,,,,,,,,,,,,,,,,,,,,,,,,,,,,,,,,,,,,,,,,,,,,,,,,,,,,,,,,,,,,,,,,,,,,,,,,,
,,,,378572,001,2023-08-02_07h13.54.845,fluency,2022.2.4,Win32,143.9263097,,,,,,,,,,,,,,,,,,,,,,,,,,,,,,,,,,,,,,,,,,,,,,,,,,,,,,,,,,,,,,,,,,,,,,,,,,,,,,,,,,0,0,0,0,1,,"[""k""]",[1.009999999999991],0,"[""k"",""4""]","[1.0099000000358274,1.13819999998816]",,,,,,,,,,,,,,,,,,,,,,,,,,,,,,,,,,,,,,,,,,,,,,,,,,,,,,,,,,,,,,,,,,,,,
,,,,378572,001,2023-08-02_07h13.54.845,fluency,2022.2.4,Win32,143.9263097,,,,,,,,,,,,,,,,,,,,,,,1,6,img/B06_01.jpg,CONTROL,Press K as soon as you see a face, ,KJ,,,,,,,,,,,,,,,,,,,,,,,,,,,,,,,,4,0.2699,,,,,,,,,,,,,,0,76,76,56,1,,,,,,,,,,,,,space,0.0758,,,,,,,,,,,,,,,,,,,,,,,,,,,,,,,,,,,,,,,,,,,,,,,,,,,,,,,,,,,,,,,,,,,
,,,,378572,001,2023-08-02_07h13.54.845,fluency,2022.2.4,Win32,143.9263097,,,,,,,,,,,,,,,,,,,,,,,9,1,img/B01_09.jpg,CONTROL,Press K as soon as you see a face, ,KJ,,,,,,,,,,,,,,,,,,,,,,,,,,,,,,,,,,,,,,,,,,,,,,508.2854,0,77,77,9,1,109,0,0,0,0,1,98,,,,,,,,,,,,,,,,,,,,,,,,,,,,,,,,,,,,,,,,,,,,,,,,,,,,,,,,,,,,,,,,,,,,,,,,,,
,,,,378572,001,2023-08-02_07h13.54.845,fluency,2022.2.4,Win32,143.9263097,,,,,,,,,,,,,,,,,,,,,,,,,,,,,,,,,,,,,,,,,,,,,,,,,,,,,,,,,,,,,,,,,,,,,,,,,,,,,,,,,,0,0,0,0,1,,"[""k""]",[0.6723999999761645],0,"[""k""]",[0.6723999999761645],,,,,,,,,,,,,,,,,,,,,,,,,,,,,,,,,,,,,,,,,,,,,,,,,,,,,,,,,,,,,,,,,,,,,
,,,,378572,001,2023-08-02_07h13.54.845,fluency,2022.2.4,Win32,143.9263097,,,,,,,,,,,,,,,,,,,,,,,9,1,img/B01_09.jpg,CONTROL,Press K as soon as you see a face, ,KJ,,,,,,,,,,,,,,,,,,,,,,,,,,,,,,,,2,0.2889,,,,,,,,,,,,,,0,77,77,9,1,,,,,,,,,,,,,space,0.0234,,,,,,,,,,,,,,,,,,,,,,,,,,,,,,,,,,,,,,,,,,,,,,,,,,,,,,,,,,,,,,,,,,,
,,,,378572,001,2023-08-02_07h13.54.845,fluency,2022.2.4,Win32,143.9263097,,,,,,,,,,,,,,,,,,,,,,,3,10,img/B10_03.jpg,CONTROL,Press K as soon as you see a face, ,KJ,,,,,,,,,,,,,,,,,,,,,,,,,,,,,,,,,,,,,,,,,,,,,,513.6493,0,78,78,102,1,109,0,0,0,0,1,98,,,,,,,,,,,,,,,,,,,,,,,,,,,,,,,,,,,,,,,,,,,,,,,,,,,,,,,,,,,,,,,,,,,,,,,,,,
,,,,378572,001,2023-08-02_07h13.54.845,fluency,2022.2.4,Win32,143.9263097,,,,,,,,,,,,,,,,,,,,,,,,,,,,,,,,,,,,,,,,,,,,,,,,,,,,,,,,,,,,,,,,,,,,,,,,,,,,,,,,,,0,0,0,0,1,,"[""k""]",[0.4111999999880709],0,"[""k""]",[0.4111999999880709],,,,,,,,,,,,,,,,,,,,,,,,,,,,,,,,,,,,,,,,,,,,,,,,,,,,,,,,,,,,,,,,,,,,,
,,,,378572,001,2023-08-02_07h13.54.845,fluency,2022.2.4,Win32,143.9263097,,,,,,,,,,,,,,,,,,,,,,,3,10,img/B10_03.jpg,CONTROL,Press K as soon as you see a face, ,KJ,,,,,,,,,,,,,,,,,,,,,,,,,,,,,,,,4,0.1938,,,,,,,,,,,,,,0,78,78,102,1,,,,,,,,,,,,,space,0.0411,,,,,,,,,,,,,,,,,,,,,,,,,,,,,,,,,,,,,,,,,,,,,,,,,,,,,,,,,,,,,,,,,,,
,,,,378572,001,2023-08-02_07h13.54.845,fluency,2022.2.4,Win32,143.9263097,,,,,,,,,,,,,,,,,,,,,,,6,10,img/B10_06.jpg,CONTROL,Press K as soon as you see a face, ,KJ,,,,,,,,,,,,,,,,,,,,,,,,,,,,,,,,,,,,,,,,,,,,,,517.916,0,79,79,105,1,109,0,0,0,0,1,98,,,,,,,,,,,,,,,,,,,,,,,,,,,,,,,,,,,,,,,,,,,,,,,,,,,,,,,,,,,,,,,,,,,,,,,,,,
,,,,378572,001,2023-08-02_07h13.54.845,fluency,2022.2.4,Win32,143.9263097,,,,,,,,,,,,,,,,,,,,,,,,,,,,,,,,,,,,,,,,,,,,,,,,,,,,,,,,,,,,,,,,,,,,,,,,,,,,,,,,,,0,0,0,0,1,,"[""k""]",[0.5124999999999318],0,"[""k""]",[0.512599999964209],,,,,,,,,,,,,,,,,,,,,,,,,,,,,,,,,,,,,,,,,,,,,,,,,,,,,,,,,,,,,,,,,,,,,
,,,,378572,001,2023-08-02_07h13.54.845,fluency,2022.2.4,Win32,143.9263097,,,,,,,,,,,,,,,,,,,,,,,6,10,img/B10_06.jpg,CONTROL,Press K as soon as you see a face, ,KJ,,,,,,,,,,,,,,,,,,,,,,,,,,,,,,,,2,0.2471,,,,,,,,,,,,,,0,79,79,105,1,,,,,,,,,,,,,space,0.055,,,,,,,,,,,,,,,,,,,,,,,,,,,,,,,,,,,,,,,,,,,,,,,,,,,,,,,,,,,,,,,,,,,
,,,,378572,001,2023-08-02_07h13.54.845,fluency,2022.2.4,Win32,143.9263097,,,,,,,,,,,,,,,,,,,,,,,9,7,img/B07_09.jpg,CONTROL,Press K as soon as you see a face, ,KJ,,,,,,,,,,,,,,,,,,,,,,,,,,,,,,,,,,,,,,,,,,,,,,523.2526,0,80,80,75,1,109,0,0,0,0,1,98,,,,,,,,,,,,,,,,,,,,,,,,,,,,,,,,,,,,,,,,,,,,,,,,,,,,,,,,,,,,,,,,,,,,,,,,,,
,,,,378572,001,2023-08-02_07h13.54.845,fluency,2022.2.4,Win32,143.9263097,,,,,,,,,,,,,,,,,,,,,,,,,,,,,,,,,,,,,,,,,,,,,,,,,,,,,,,,,,,,,,,,,,,,,,,,,,,,,,,,,,0,0,0,0,1,,"[""k""]",[0.26359999996429906],0,"[""k""]",[0.26359999996429906],,,,,,,,,,,,,,,,,,,,,,,,,,,,,,,,,,,,,,,,,,,,,,,,,,,,,,,,,,,,,,,,,,,,,
,,,,378572,001,2023-08-02_07h13.54.845,fluency,2022.2.4,Win32,143.9263097,,,,,,,,,,,,,,,,,,,,,,,9,7,img/B07_09.jpg,CONTROL,Press K as soon as you see a face, ,KJ,,,,,,,,,,,,,,,,,,,,,,,,,,,,,,,,6,0.2702,,,,,,,,,,,,,,0,80,80,75,1,,,,,,,,,,,,,space,0.0652,,,,,,,,,,,,,,,,,,,,,,,,,,,,,,,,,,,,,,,,,,,,,,,,,,,,,,,,,,,,,,,,,,,
,,,,378572,001,2023-08-02_07h13.54.845,fluency,2022.2.4,Win32,143.9263097,,,,,,,,,,,,,,,,,,,,,,,8,5,img/B05_08.jpg,CONTROL,Press K as soon as you see a face, ,KJ,,,,,,,,,,,,,,,,,,,,,,,,,,,,,,,,,,,,,,,,,,,,,,528.6168,0,81,81,52,1,109,0,0,0,0,1,98,,,,,,,,,,,,,,,,,,,,,,,,,,,,,,,,,,,,,,,,,,,,,,,,,,,,,,,,,,,,,,,,,,,,,,,,,,
,,,,378572,001,2023-08-02_07h13.54.845,fluency,2022.2.4,Win32,143.9263097,,,,,,,,,,,,,,,,,,,,,,,,,,,,,,,,,,,,,,,,,,,,,,,,,,,,,,,,,,,,,,,,,,,,,,,,,,,,,,,,,,0,0,0,0,1,,"[""k""]",[0.5795999999642163],0,"[""k""]",[0.5795000000000528],,,,,,,,,,,,,,,,,,,,,,,,,,,,,,,,,,,,,,,,,,,,,,,,,,,,,,,,,,,,,,,,,,,,,
,,,,378572,001,2023-08-02_07h13.54.845,fluency,2022.2.4,Win32,143.9263097,,,,,,,,,,,,,,,,,,,,,,,8,5,img/B05_08.jpg,CONTROL,Press K as soon as you see a face, ,KJ,,,,,,,,,,,,,,,,,,,,,,,,,,,,,,,,4,0.2634,,,,,,,,,,,,,,0,81,81,52,1,,,,,,,,,,,,,space,0.0433,,,,,,,,,,,,,,,,,,,,,,,,,,,,,,,,,,,,,,,,,,,,,,,,,,,,,,,,,,,,,,,,,,,
,,,,378572,001,2023-08-02_07h13.54.845,fluency,2022.2.4,Win32,143.9263097,,,,,,,,,,,,,,,,,,,,,,,8,1,img/B01_08.jpg,CONTROL,Press K as soon as you see a face, ,KJ,,,,,,,,,,,,,,,,,,,,,,,,,,,,,,,,,,,,,,,,,,,,,,533.9467,0,82,82,8,1,109,0,0,0,0,1,98,,,,,,,,,,,,,,,,,,,,,,,,,,,,,,,,,,,,,,,,,,,,,,,,,,,,,,,,,,,,,,,,,,,,,,,,,,
,,,,378572,001,2023-08-02_07h13.54.845,fluency,2022.2.4,Win32,143.9263097,,,,,,,,,,,,,,,,,,,,,,,,,,,,,,,,,,,,,,,,,,,,,,,,,,,,,,,,,,,,,,,,,,,,,,,,,,,,,,,,,,0,0,0,0,1,,"[""k""]",[0.33999999999991815],0,"[""k""]",[0.33999999999991815],,,,,,,,,,,,,,,,,,,,,,,,,,,,,,,,,,,,,,,,,,,,,,,,,,,,,,,,,,,,,,,,,,,,,
,,,,378572,001,2023-08-02_07h13.54.845,fluency,2022.2.4,Win32,143.9263097,,,,,,,,,,,,,,,,,,,,,,,8,1,img/B01_08.jpg,CONTROL,Press K as soon as you see a face, ,KJ,,,,,,,,,,,,,,,,,,,,,,,,,,,,,,,,2,0.2496,,,,,,,,,,,,,,0,82,82,8,1,,,,,,,,,,,,,space,1.0509,,,,,,,,,,,,,,,,,,,,,,,,,,,,,,,,,,,,,,,,,,,,,,,,,,,,,,,,,,,,,,,,,,,
,,,,378572,001,2023-08-02_07h13.54.845,fluency,2022.2.4,Win32,143.9263097,,,,,,,,,,,,,,,,,,,,,,,4,2,img/B02_04.jpg,CONTROL,Press K as soon as you see a face, ,KJ,,,,,,,,,,,,,,,,,,,,,,,,,,,,,,,,,,,,,,,,,,,,,,539.2972,0,83,83,15,1,109,0,0,0,0,1,98,,,,,,,,,,,,,,,,,,,,,,,,,,,,,,,,,,,,,,,,,,,,,,,,,,,,,,,,,,,,,,,,,,,,,,,,,,
,,,,378572,001,2023-08-02_07h13.54.845,fluency,2022.2.4,Win32,143.9263097,,,,,,,,,,,,,,,,,,,,,,,,,,,,,,,,,,,,,,,,,,,,,,,,,,,,,,,,,,,,,,,,,,,,,,,,,,,,,,,,,,0,0,0,0,1,,"[""k""]",[0.2583000000119],0,"[""k""]",[0.2582000000476228],,,,,,,,,,,,,,,,,,,,,,,,,,,,,,,,,,,,,,,,,,,,,,,,,,,,,,,,,,,,,,,,,,,,,
,,,,378572,001,2023-08-02_07h13.54.845,fluency,2022.2.4,Win32,143.9263097,,,,,,,,,,,,,,,,,,,,,,,4,2,img/B02_04.jpg,CONTROL,Press K as soon as you see a face, ,KJ,,,,,,,,,,,,,,,,,,,,,,,,,,,,,,,,2,0.2376,,,,,,,,,,,,,,0,83,83,15,1,,,,,,,,,,,,,space,0.1287,,,,,,,,,,,,,,,,,,,,,,,,,,,,,,,,,,,,,,,,,,,,,,,,,,,,,,,,,,,,,,,,,,,
,,,,378572,001,2023-08-02_07h13.54.845,fluency,2022.2.4,Win32,143.9263097,,,,,,,,,,,,,,,,,,,,,,,1,1,img/B01_01.jpg,CONTROL,Press K as soon as you see a face, ,KJ,,,,,,,,,,,,,,,,,,,,,,,,,,,,,,,,,,,,,,,,,,,,,,543.696,0,84,84,1,1,109,0,0,0,0,1,98,,,,,,,,,,,,,,,,,,,,,,,,,,,,,,,,,,,,,,,,,,,,,,,,,,,,,,,,,,,,,,,,,,,,,,,,,,
,,,,378572,001,2023-08-02_07h13.54.845,fluency,2022.2.4,Win32,143.9263097,,,,,,,,,,,,,,,,,,,,,,,,,,,,,,,,,,,,,,,,,,,,,,,,,,,,,,,,,,,,,,,,,,,,,,,,,,,,,,,,,,0,0,0,0,1,,"[""k""]",[0.44879999995237085],0,"[""k""]",[0.44879999995237085],,,,,,,,,,,,,,,,,,,,,,,,,,,,,,,,,,,,,,,,,,,,,,,,,,,,,,,,,,,,,,,,,,,,,
,,,,378572,001,2023-08-02_07h13.54.845,fluency,2022.2.4,Win32,143.9263097,,,,,,,,,,,,,,,,,,,,,,,1,1,img/B01_01.jpg,CONTROL,Press K as soon as you see a face, ,KJ,,,,,,,,,,,,,,,,,,,,,,,,,,,,,,,,4,0.2453,,,,,,,,,,,,,,0,84,84,1,1,,,,,,,,,,,,,space,0.1133,,,,,,,,,,,,,,,,,,,,,,,,,,,,,,,,,,,,,,,,,,,,,,,,,,,,,,,,,,,,,,,,,,,
,,,,378572,001,2023-08-02_07h13.54.845,fluency,2022.2.4,Win32,143.9263097,,,,,,,,,,,,,,,,,,,,,,,10,2,img/B02_10.jpg,CONTROL,Press K as soon as you see a face, ,KJ,,,,,,,,,,,,,,,,,,,,,,,,,,,,,,,,,,,,,,,,,,,,,,549.0743,0,85,85,21,1,109,0,0,0,0,1,98,,,,,,,,,,,,,,,,,,,,,,,,,,,,,,,,,,,,,,,,,,,,,,,,,,,,,,,,,,,,,,,,,,,,,,,,,,
,,,,378572,001,2023-08-02_07h13.54.845,fluency,2022.2.4,Win32,143.9263097,,,,,,,,,,,,,,,,,,,,,,,,,,,,,,,,,,,,,,,,,,,,,,,,,,,,,,,,,,,,,,,,,,,,,,,,,,,,,,,,,,,,,,,,,,1,"[""5""]",[2.673099999964279],,,space,1.4642,0,0,0,0,1,,,,,,,,,,,,,,,,,,,,,,,,,,,,,,,,,,,,,,,,,,,,,,,,,,,,,,,,,,,,
,,,,378572,001,2023-08-02_07h13.54.845,fluency,2022.2.4,Win32,143.9263097,,,,,,,,,,,,,,,,,,,,,,,,,,,,,,,,,,,,,,,,,,,,,,,,,,,,,,,,,,,,,,,,,,,,,,,,,,,,,,,,,,0,0,0,0,1,,,,,,,,,,,,,,,,,,,,,,,,,,,,,,,,,,,,,,,,,,,,,,,,,,,,,,,,,,,,,,,,,,,,,,,,,,,
,,,,378572,001,2023-08-02_07h13.54.845,fluency,2022.2.4,Win32,143.9263097,,,,,,,,,,,,,,,,,,,,,,,10,2,img/B02_10.jpg,CONTROL,Press K as soon as you see a face, ,KJ,,,,,,,,,,,,,,,,,,,,,,,,,,,,,,,,,,,,,,,,,,,,,,554.5569,0,85,85,21,1,109,1,0,1,0,1,98,,,,,,,,,,,,,,,,,,,,,,,,,,,,,,,,,,,,,,,,,,,,,,,,,,,,,,,,,,,,,,,,,,,,,,,,,,
,,,,378572,001,2023-08-02_07h13.54.845,fluency,2022.2.4,Win32,143.9263097,,,,,,,,,,,,,,,,,,,,,,,,,,,,,,,,,,,,,,,,,,,,,,,,,,,,,,,,,,,,,,,,,,,,,,,,,,,,,,,,,,1,0,1,0,1,,"[""k""]",[0.4108999999762091],1,"[""k""]",[0.41080000001193184],,,,,,,,,,,,,,,,,,,,,,,,,,,,,,,,,,,,,,,,,,,,,,,,,,,,,,,,,,,,,,,,,,,,,
,,,,378572,001,2023-08-02_07h13.54.845,fluency,2022.2.4,Win32,143.9263097,,,,,,,,,,,,,,,,,,,,,,,10,2,img/B02_10.jpg,CONTROL,Press K as soon as you see a face, ,KJ,,,,,,,,,,,,,,,,,,,,,,,,,,,,,,,,5,0.2389,,,,,,,,,,,,,,0,85,85,21,1,,,,,,,,,,,,,space,0.1179,,,,,,,,,,,,,,,,,,,,,,,,,,,,,,,,,,,,,,,,,,,,,,,,,,,,,,,,,,,,,,,,,,,
,,,,378572,001,2023-08-02_07h13.54.845,fluency,2022.2.4,Win32,143.9263097,,,,,,,,,,,,,,,,,,,,,,,8,8,img/B08_08.jpg,CONTROL,Press K as soon as you see a face, ,KJ,,,,,,,,,,,,,,,,,,,,,,,,,,,,,,,,,,,,,,,,,,,,,,558.9482,0,86,86,85,1,109,0,0,0,0,1,98,,,,,,,,,,,,,,,,,,,,,,,,,,,,,,,,,,,,,,,,,,,,,,,,,,,,,,,,,,,,,,,,,,,,,,,,,,
,,,,378572,001,2023-08-02_07h13.54.845,fluency,2022.2.4,Win32,143.9263097,,,,,,,,,,,,,,,,,,,,,,,,,,,,,,,,,,,,,,,,,,,,,,,,,,,,,,,,,,,,,,,,,,,,,,,,,,,,,,,,,,0,0,0,0,1,,"[""k""]",[0.2793999999762491],1,"[""k""]",[0.2793999999762491],,,,,,,,,,,,,,,,,,,,,,,,,,,,,,,,,,,,,,,,,,,,,,,,,,,,,,,,,,,,,,,,,,,,,
,,,,378572,001,2023-08-02_07h13.54.845,fluency,2022.2.4,Win32,143.9263097,,,,,,,,,,,,,,,,,,,,,,,8,8,img/B08_08.jpg,CONTROL,Press K as soon as you see a face, ,KJ,,,,,,,,,,,,,,,,,,,,,,,,,,,,,,,,4,0.2853,,,,,,,,,,,,,,0,86,86,85,1,,,,,,,,,,,,,space,0.1321,,,,,,,,,,,,,,,,,,,,,,,,,,,,,,,,,,,,,,,,,,,,,,,,,,,,,,,,,,,,,,,,,,,
,,,,378572,001,2023-08-02_07h13.54.845,fluency,2022.2.4,Win32,143.9263097,,,,,,,,,,,,,,,,,,,,,,,5,2,img/B02_05.jpg,CONTROL,Press K as soon as you see a face, ,KJ,,,,,,,,,,,,,,,,,,,,,,,,,,,,,,,,,,,,,,,,,,,,,,563.3956,0,87,87,16,1,109,0,0,0,0,1,98,,,,,,,,,,,,,,,,,,,,,,,,,,,,,,,,,,,,,,,,,,,,,,,,,,,,,,,,,,,,,,,,,,,,,,,,,,
,,,,378572,001,2023-08-02_07h13.54.845,fluency,2022.2.4,Win32,143.9263097,,,,,,,,,,,,,,,,,,,,,,,,,,,,,,,,,,,,,,,,,,,,,,,,,,,,,,,,,,,,,,,,,,,,,,,,,,,,,,,,,,0,0,0,0,1,,"[""k""]",[0.2703000000118436],1,"[""k""]",[0.2703000000118436],,,,,,,,,,,,,,,,,,,,,,,,,,,,,,,,,,,,,,,,,,,,,,,,,,,,,,,,,,,,,,,,,,,,,
,,,,378572,001,2023-08-02_07h13.54.845,fluency,2022.2.4,Win32,143.9263097,,,,,,,,,,,,,,,,,,,,,,,5,2,img/B02_05.jpg,CONTROL,Press K as soon as you see a face, ,KJ,,,,,,,,,,,,,,,,,,,,,,,,,,,,,,,,2,0.2346,,,,,,,,,,,,,,0,87,87,16,1,,,,,,,,,,,,,space,0.0212,,,,,,,,,,,,,,,,,,,,,,,,,,,,,,,,,,,,,,,,,,,,,,,,,,,,,,,,,,,,,,,,,,,
,,,,378572,001,2023-08-02_07h13.54.845,fluency,2022.2.4,Win32,143.9263097,,,,,,,,,,,,,,,,,,,,,,,9,10,img/B10_09.jpg,CONTROL,Press K as soon as you see a face, ,KJ,,,,,,,,,,,,,,,,,,,,,,,,,,,,,,,,,,,,,,,,,,,,,,568.6698,0,88,88,108,1,109,0,0,0,0,1,98,,,,,,,,,,,,,,,,,,,,,,,,,,,,,,,,,,,,,,,,,,,,,,,,,,,,,,,,,,,,,,,,,,,,,,,,,,
,,,,378572,001,2023-08-02_07h13.54.845,fluency,2022.2.4,Win32,143.9263097,,,,,,,,,,,,,,,,,,,,,,,,,,,,,,,,,,,,,,,,,,,,,,,,,,,,,,,,,,,,,,,,,,,,,,,,,,,,,,,,,,0,0,0,0,1,,"[""k""]",[0.2599999999999909],1,"[""k""]",[0.2599999999999909],,,,,,,,,,,,,,,,,,,,,,,,,,,,,,,,,,,,,,,,,,,,,,,,,,,,,,,,,,,,,,,,,,,,,
,,,,378572,001,2023-08-02_07h13.54.845,fluency,2022.2.4,Win32,143.9263097,,,,,,,,,,,,,,,,,,,,,,,9,10,img/B10_09.jpg,CONTROL,Press K as soon as you see a face, ,KJ,,,,,,,,,,,,,,,,,,,,,,,,,,,,,,,,4,0.3362,,,,,,,,,,,,,,0,88,88,108,1,,,,,,,,,,,,,space,0.0626,,,,,,,,,,,,,,,,,,,,,,,,,,,,,,,,,,,,,,,,,,,,,,,,,,,,,,,,,,,,,,,,,,,
,,,,378572,001,2023-08-02_07h13.54.845,fluency,2022.2.4,Win32,143.9263097,,,,,,,,,,,,,,,,,,,,,,,2,9,img/B09_02.jpg,CONTROL,Press K as soon as you see a face, ,KJ,,,,,,,,,,,,,,,,,,,,,,,,,,,,,,,,,,,,,,,,,,,,,,574.1243,0,89,89,90,1,109,0,0,0,0,1,98,,,,,,,,,,,,,,,,,,,,,,,,,,,,,,,,,,,,,,,,,,,,,,,,,,,,,,,,,,,,,,,,,,,,,,,,,,
,,,,378572,001,2023-08-02_07h13.54.845,fluency,2022.2.4,Win32,143.9263097,,,,,,,,,,,,,,,,,,,,,,,,,,,,,,,,,,,,,,,,,,,,,,,,,,,,,,,,,,,,,,,,,,,,,,,,,,,,,,,,,,0,0,0,0,1,,"[""k""]",[0.27130000001193366],1,"[""k""]",[0.27130000001193366],,,,,,,,,,,,,,,,,,,,,,,,,,,,,,,,,,,,,,,,,,,,,,,,,,,,,,,,,,,,,,,,,,,,,
,,,,378572,001,2023-08-02_07h13.54.845,fluency,2022.2.4,Win32,143.9263097,,,,,,,,,,,,,,,,,,,,,,,2,9,img/B09_02.jpg,CONTROL,Press K as soon as you see a face, ,KJ,,,,,,,,,,,,,,,,,,,,,,,,,,,,,,,,4,0.2615,,,,,,,,,,,,,,0,89,89,90,1,,,,,,,,,,,,,space,0.0642,,,,,,,,,,,,,,,,,,,,,,,,,,,,,,,,,,,,,,,,,,,,,,,,,,,,,,,,,,,,,,,,,,,
,,,,378572,001,2023-08-02_07h13.54.845,fluency,2022.2.4,Win32,143.9263097,,,,,,,,,,,,,,,,,,,,,,,2,6,img/B06_02.jpg,CONTROL,Press K as soon as you see a face, ,KJ,,,,,,,,,,,,,,,,,,,,,,,,,,,,,,,,,,,,,,,,,,,,,,578.4815,0,90,90,57,1,109,0,0,0,0,1,98,,,,,,,,,,,,,,,,,,,,,,,,,,,,,,,,,,,,,,,,,,,,,,,,,,,,,,,,,,,,,,,,,,,,,,,,,,
,,,,378572,001,2023-08-02_07h13.54.845,fluency,2022.2.4,Win32,143.9263097,,,,,,,,,,,,,,,,,,,,,,,,,,,,,,,,,,,,,,,,,,,,,,,,,,,,,,,,,,,,,,,,,,,,,,,,,,,,,,,,,,0,0,0,0,1,,"[""k""]",[0.26179999995235903],1,"[""k""]",[0.26179999995235903],,,,,,,,,,,,,,,,,,,,,,,,,,,,,,,,,,,,,,,,,,,,,,,,,,,,,,,,,,,,,,,,,,,,,
,,,,378572,001,2023-08-02_07h13.54.845,fluency,2022.2.4,Win32,143.9263097,,,,,,,,,,,,,,,,,,,,,,,2,6,img/B06_02.jpg,CONTROL,Press K as soon as you see a face, ,KJ,,,,,,,,,,,,,,,,,,,,,,,,,,,,,,,,4,0.2817,,,,,,,,,,,,,,0,90,90,57,1,,,,,,,,,,,,,space,0.5207,,,,,,,,,,,,,,,,,,,,,,,,,,,,,,,,,,,,,,,,,,,,,,,,,,,,,,,,,,,,,,,,,,,
,,,,378572,001,2023-08-02_07h13.54.845,fluency,2022.2.4,Win32,143.9263097,,,,,,,,,,,,,,,,,,,,,,,10,1,img/B01_10.jpg,CONTROL,Press K as soon as you see a face, ,KJ,,,,,,,,,,,,,,,,,,,,,,,,,,,,,,,,,,,,,,,,,,,,,,584.3183,0,91,91,10,1,109,0,0,0,0,1,98,,,,,,,,,,,,,,,,,,,,,,,,,,,,,,,,,,,,,,,,,,,,,,,,,,,,,,,,,,,,,,,,,,,,,,,,,,
,,,,378572,001,2023-08-02_07h13.54.845,fluency,2022.2.4,Win32,143.9263097,,,,,,,,,,,,,,,,,,,,,,,,,,,,,,,,,,,,,,,,,,,,,,,,,,,,,,,,,,,,,,,,,,,,,,,,,,,,,,,,,,0,0,0,0,1,,"[""k""]",[0.2772000000477419],1,"[""k""]",[0.27719999998805633],,,,,,,,,,,,,,,,,,,,,,,,,,,,,,,,,,,,,,,,,,,,,,,,,,,,,,,,,,,,,,,,,,,,,
,,,,378572,001,2023-08-02_07h13.54.845,fluency,2022.2.4,Win32,143.9263097,,,,,,,,,,,,,,,,,,,,,,,10,1,img/B01_10.jpg,CONTROL,Press K as soon as you see a face, ,KJ,,,,,,,,,,,,,,,,,,,,,,,,,,,,,,,,2,0.2294,,,,,,,,,,,,,,0,91,91,10,1,,,,,,,,,,,,,space,0.1247,,,,,,,,,,,,,,,,,,,,,,,,,,,,,,,,,,,,,,,,,,,,,,,,,,,,,,,,,,,,,,,,,,,
,,,,378572,001,2023-08-02_07h13.54.845,fluency,2022.2.4,Win32,143.9263097,,,,,,,,,,,,,,,,,,,,,,,4,10,img/B10_04.jpg,CONTROL,Press K as soon as you see a face, ,KJ,,,,,,,,,,,,,,,,,,,,,,,,,,,,,,,,,,,,,,,,,,,,,,588.7171,0,92,92,103,1,109,0,0,0,0,1,98,,,,,,,,,,,,,,,,,,,,,,,,,,,,,,,,,,,,,,,,,,,,,,,,,,,,,,,,,,,,,,,,,,,,,,,,,,
,,,,378572,001,2023-08-02_07h13.54.845,fluency,2022.2.4,Win32,143.9263097,,,,,,,,,,,,,,,,,,,,,,,,,,,,,,,,,,,,,,,,,,,,,,,,,,,,,,,,,,,,,,,,,,,,,,,,,,,,,,,,,,0,0,0,0,1,,"[""k""]",[1.4279999999999973],1,"[""4"",""k"",""4"",""space""]","[1.21189999997614,1.4278999999761481,1.6439999999998918,1.8288999999761018]",,,,,,,,,,,,,,,,,,,,,,,,,,,,,,,,,,,,,,,,,,,,,,,,,,,,,,,,,,,,,,,,,,,,,
,,,,378572,001,2023-08-02_07h13.54.845,fluency,2022.2.4,Win32,143.9263097,,,,,,,,,,,,,,,,,,,,,,,4,10,img/B10_04.jpg,CONTROL,Press K as soon as you see a face, ,KJ,,,,,,,,,,,,,,,,,,,,,,,,,,,,,,,,4,0.2497,,,,,,,,,,,,,,0,92,92,103,1,,,,,,,,,,,,,space,0.0069,,,,,,,,,,,,,,,,,,,,,,,,,,,,,,,,,,,,,,,,,,,,,,,,,,,,,,,,,,,,,,,,,,,
,,,,378572,001,2023-08-02_07h13.54.845,fluency,2022.2.4,Win32,143.9263097,,,,,,,,,,,,,,,,,,,,,,,6,2,img/B02_06.jpg,CONTROL,Press K as soon as you see a face, ,KJ,,,,,,,,,,,,,,,,,,,,,,,,,,,,,,,,,,,,,,,,,,,,,,593.0112,0,93,93,17,1,109,0,0,0,0,1,98,,,,,,,,,,,,,,,,,,,,,,,,,,,,,,,,,,,,,,,,,,,,,,,,,,,,,,,,,,,,,,,,,,,,,,,,,,
,,,,378572,001,2023-08-02_07h13.54.845,fluency,2022.2.4,Win32,143.9263097,,,,,,,,,,,,,,,,,,,,,,,,,,,,,,,,,,,,,,,,,,,,,,,,,,,,,,,,,,,,,,,,,,,,,,,,,,,,,,,,,,0,0,0,0,1,,"[""k""]",[0.27240000003575915],1,"[""k""]",[0.27230000001191],,,,,,,,,,,,,,,,,,,,,,,,,,,,,,,,,,,,,,,,,,,,,,,,,,,,,,,,,,,,,,,,,,,,,
,,,,378572,001,2023-08-02_07h13.54.845,fluency,2022.2.4,Win32,143.9263097,,,,,,,,,,,,,,,,,,,,,,,6,2,img/B02_06.jpg,CONTROL,Press K as soon as you see a face, ,KJ,,,,,,,,,,,,,,,,,,,,,,,,,,,,,,,,2,0.2008,,,,,,,,,,,,,,0,93,93,17,1,,,,,,,,,,,,,space,0.0899,,,,,,,,,,,,,,,,,,,,,,,,,,,,,,,,,,,,,,,,,,,,,,,,,,,,,,,,,,,,,,,,,,,
,,,,378572,001,2023-08-02_07h13.54.845,fluency,2022.2.4,Win32,143.9263097,,,,,,,,,,,,,,,,,,,,,,,3,1,img/B01_03.jpg,CONTROL,Press K as soon as you see a face, ,KJ,,,,,,,,,,,,,,,,,,,,,,,,,,,,,,,,,,,,,,,,,,,,,,597.3333,0,94,94,3,1,109,0,0,0,0,1,98,,,,,,,,,,,,,,,,,,,,,,,,,,,,,,,,,,,,,,,,,,,,,,,,,,,,,,,,,,,,,,,,,,,,,,,,,,
,,,,378572,001,2023-08-02_07h13.54.845,fluency,2022.2.4,Win32,143.9263097,,,,,,,,,,,,,,,,,,,,,,,,,,,,,,,,,,,,,,,,,,,,,,,,,,,,,,,,,,,,,,,,,,,,,,,,,,,,,,,,,,0,0,0,0,1,,"[""k""]",[0.5191999999880181],1,"[""k""]",[0.5191999999880181],,,,,,,,,,,,,,,,,,,,,,,,,,,,,,,,,,,,,,,,,,,,,,,,,,,,,,,,,,,,,,,,,,,,,
,,,,378572,001,2023-08-02_07h13.54.845,fluency,2022.2.4,Win32,143.9263097,,,,,,,,,,,,,,,,,,,,,,,3,1,img/B01_03.jpg,CONTROL,Press K as soon as you see a face, ,KJ,,,,,,,,,,,,,,,,,,,,,,,,,,,,,,,,4,0.2453,,,,,,,,,,,,,,0,94,94,3,1,,,,,,,,,,,,,space,0.0002,,,,,,,,,,,,,,,,,,,,,,,,,,,,,,,,,,,,,,,,,,,,,,,,,,,,,,,,,,,,,,,,,,,
,,,,378572,001,2023-08-02_07h13.54.845,fluency,2022.2.4,Win32,143.9263097,,,,,,,,,,,,,,,,,,,,,,,0,9,img/B09_00.jpg,CONTROL,Press K as soon as you see a face, ,KJ,,,,,,,,,,,,,,,,,,,,,,,,,,,,,,,,,,,,,,,,,,,,,,601.5997,0,95,95,88,1,109,0,0,0,0,1,98,,,,,,,,,,,,,,,,,,,,,,,,,,,,,,,,,,,,,,,,,,,,,,,,,,,,,,,,,,,,,,,,,,,,,,,,,,
,,,,378572,001,2023-08-02_07h13.54.845,fluency,2022.2.4,Win32,143.9263097,,,,,,,,,,,,,,,,,,,,,,,,,,,,,,,,,,,,,,,,,,,,,,,,,,,,,,,,,,,,,,,,,,,,,,,,,,,,,,,,,,0,0,0,0,1,,"[""k""]",[0.22100000000000364],1,"[""k""]",[0.22100000000000364],,,,,,,,,,,,,,,,,,,,,,,,,,,,,,,,,,,,,,,,,,,,,,,,,,,,,,,,,,,,,,,,,,,,,
,,,,378572,001,2023-08-02_07h13.54.845,fluency,2022.2.4,Win32,143.9263097,,,,,,,,,,,,,,,,,,,,,,,0,9,img/B09_00.jpg,CONTROL,Press K as soon as you see a face, ,KJ,,,,,,,,,,,,,,,,,,,,,,,,,,,,,,,,4,0.2432,,,,,,,,,,,,,,0,95,95,88,1,,,,,,,,,,,,,space,0.0023,,,,,,,,,,,,,,,,,,,,,,,,,,,,,,,,,,,,,,,,,,,,,,,,,,,,,,,,,,,,,,,,,,,
,,,,378572,001,2023-08-02_07h13.54.845,fluency,2022.2.4,Win32,143.9263097,,,,,,,,,,,,,,,,,,,,,,,8,6,img/B06_08.jpg,CONTROL,Press K as soon as you see a face, ,KJ,,,,,,,,,,,,,,,,,,,,,,,,,,,,,,,,,,,,,,,,,,,,,,606.8743,0,96,96,63,1,109,0,0,0,0,1,98,,,,,,,,,,,,,,,,,,,,,,,,,,,,,,,,,,,,,,,,,,,,,,,,,,,,,,,,,,,,,,,,,,,,,,,,,,
,,,,378572,001,2023-08-02_07h13.54.845,fluency,2022.2.4,Win32,143.9263097,,,,,,,,,,,,,,,,,,,,,,,,,,,,,,,,,,,,,,,,,,,,,,,,,,,,,,,,,,,,,,,,,,,,,,,,,,,,,,,,,,0,0,0,0,1,,"[""k""]",[0.25130000001195185],1,"[""k""]",[0.2512000000476746],,,,,,,,,,,,,,,,,,,,,,,,,,,,,,,,,,,,,,,,,,,,,,,,,,,,,,,,,,,,,,,,,,,,,
,,,,378572,001,2023-08-02_07h13.54.845,fluency,2022.2.4,Win32,143.9263097,,,,,,,,,,,,,,,,,,,,,,,8,6,img/B06_08.jpg,CONTROL,Press K as soon as you see a face, ,KJ,,,,,,,,,,,,,,,,,,,,,,,,,,,,,,,,4,0.292,,,,,,,,,,,,,,0,96,96,63,1,,,,,,,,,,,,,space,0.0827,,,,,,,,,,,,,,,,,,,,,,,,,,,,,,,,,,,,,,,,,,,,,,,,,,,,,,,,,,,,,,,,,,,
,,,,378572,001,2023-08-02_07h13.54.845,fluency,2022.2.4,Win32,143.9263097,,,,,,,,,,,,,,,,,,,,,,,0,8,img/B08_00.jpg,CONTROL,Press K as soon as you see a face, ,KJ,,,,,,,,,,,,,,,,,,,,,,,,,,,,,,,,,,,,,,,,,,,,,,611.2942,0,97,97,77,1,109,0,0,0,0,1,98,,,,,,,,,,,,,,,,,,,,,,,,,,,,,,,,,,,,,,,,,,,,,,,,,,,,,,,,,,,,,,,,,,,,,,,,,,
,,,,378572,001,2023-08-02_07h13.54.845,fluency,2022.2.4,Win32,143.9263097,,,,,,,,,,,,,,,,,,,,,,,,,,,,,,,,,,,,,,,,,,,,,,,,,,,,,,,,,,,,,,,,,,,,,,,,,,,,,,,,,,0,0,0,0,1,,"[""k""]",[0.28899999999998727],1,"[""k""]",[0.28889999997613813],,,,,,,,,,,,,,,,,,,,,,,,,,,,,,,,,,,,,,,,,,,,,,,,,,,,,,,,,,,,,,,,,,,,,
,,,,378572,001,2023-08-02_07h13.54.845,fluency,2022.2.4,Win32,143.9263097,,,,,,,,,,,,,,,,,,,,,,,0,8,img/B08_00.jpg,CONTROL,Press K as soon as you see a face, ,KJ,,,,,,,,,,,,,,,,,,,,,,,,,,,,,,,,2,0.2072,,,,,,,,,,,,,,0,97,97,77,1,,,,,,,,,,,,,space,0.0977,,,,,,,,,,,,,,,,,,,,,,,,,,,,,,,,,,,,,,,,,,,,,,,,,,,,,,,,,,,,,,,,,,,
,,,,378572,001,2023-08-02_07h13.54.845,fluency,2022.2.4,Win32,143.9263097,,,,,,,,,,,,,,,,,,,,,,,3,6,img/B06_03.jpg,CONTROL,Press K as soon as you see a face, ,KJ,,,,,,,,,,,,,,,,,,,,,,,,,,,,,,,,,,,,,,,,,,,,,,616.6231,0,98,98,58,1,109,0,0,0,0,1,98,,,,,,,,,,,,,,,,,,,,,,,,,,,,,,,,,,,,,,,,,,,,,,,,,,,,,,,,,,,,,,,,,,,,,,,,,,
