idTextbox.text,welcomeDone.numClicks,welcomeDone.timesOn,welcomeDone.timesOff,participant,session,date,expName,psychopyVersion,OS,frameRate,consent_advance.keys,consent_advance.rt,consent_advance_2.keys,consent_advance_2.rt,consentClick.x,consentClick.y,consentClick.leftButton,consentClick.midButton,consentClick.rightButton,consentClick.time,consentClick.clicked_name,instr_advance_3.keys,instr_advance_3.rt,spec_instr_adv.keys,spec_instr_adv.rt,spec_instr_adv2.keys,spec_instr_adv2.rt,instrLoop.thisRepN,instrLoop.thisTrialN,instrLoop.thisN,instrLoop.thisIndex,instrLoop.ran,steps,fams,face_file,cond,instr,term,key_map,attnKeyResp1.keys,attnKeyResp1.rt,q1.thisRepN,q1.thisTrialN,q1.thisN,q1.thisIndex,q1.ran,attnKeyResp2.keys,attnKeyResp2.rt,q2.thisRepN,q2.thisTrialN,q2.thisN,q2.thisIndex,q2.ran,attnKeyResp3.keys,attnKeyResp3.rt,q3.thisRepN,q3.thisTrialN,q3.thisN,q3.thisIndex,q3.ran,practiceStart.keys,practiceStart.rt,practiceResp.keys,practiceResp.rt,timesRedone,practiceRepeat.thisRepN,practiceRepeat.thisTrialN,practiceRepeat.thisN,practiceRepeat.thisIndex,practiceRepeat.ran,attrRating.keys,attrRating.rt,practiceTrial.thisRepN,practiceTrial.thisTrialN,practiceTrial.thisN,practiceTrial.thisIndex,practiceTrial.ran,key_resp_3.keys,key_resp_3.rt,attnChecker.thisRepN,attnChecker.thisTrialN,attnChecker.thisN,attnChecker.thisIndex,attnChecker.ran,faceOnsetTime,trials.thisRepN,trials.thisTrialN,trials.thisN,trials.thisIndex,trials.ran,trials.order,repeat_loop.thisRepN,repeat_loop.thisTrialN,repeat_loop.thisN,repeat_loop.thisIndex,repeat_loop.ran,repeat_loop.order,catResp.keys,catResp.rt,globalTimesRedone,catAllKeys.keys,catAllKeys.rt,contResp.keys,contResp.rt,redo_keypress.keys,redo_keypress.rt,redo_feedback_loop.thisRepN,redo_feedback_loop.thisTrialN,redo_feedback_loop.thisN,redo_feedback_loop.thisIndex,redo_feedback_loop.ran,redo_feedback_loop.order
61257cc7d68c59c876dad72b,1,[100.90309999990464],[100.90309999990464],483661,001,2023-08-02_24h09.00.905,fluency,2022.2.4,Win32,60.3682463,,,,,,,,,,,,,,,,,,,,,,,,,,,,,,,,,,,,,,,,,,,,,,,,,,,,,,,,,,,,,,,,,,,,,,,,,,,,,,,,,,,,,,,,,,,,,,,,,,,,,,
,,,,483661,001,2023-08-02_24h09.00.905,fluency,2022.2.4,Win32,60.3682463,space,1.3583,,,,,,,,,,,,,,,,,,,,,,,,,,,,,,,,,,,,,,,,,,,,,,,,,,,,,,,,,,,,,,,,,,,,,,,,,,,,,,,,,,,,,,,,,,,,,,,,,,,,
,,,,483661,001,2023-08-02_24h09.00.905,fluency,2022.2.4,Win32,60.3682463,,,space,1.2181,,,,,,,,,,,,,,,,,,,,,,,,,,,,,,,,,,,,,,,,,,,,,,,,,,,,,,,,,,,,,,,,,,,,,,,,,,,,,,,,,,,,,,,,,,,,,,,,,,
,,,,483661,001,2023-08-02_24h09.00.905,fluency,2022.2.4,Win32,60.3682463,,,,,0.2734375,-0.319010417,1,0,0,2.4942,iAgree,,,,,,,,,,,,,,,,,,,,,,,,,,,,,,,,,,,,,,,,,,,,,,,,,,,,,,,,,,,,,,,,,,,,,,,,,,,,,,,,,,,,,,,,,,,
,,,,483661,001,2023-08-02_24h09.00.905,fluency,2022.2.4,Win32,60.3682463,,,,,,,,,,,,space,4.7504,,,,,,,,,,,,,,,,,,,,,,,,,,,,,,,,,,,,,,,,,,,,,,,,,,,,,,,,,,,,,,,,,,,,,,,,,,,,,,,,,,,,,,,,,
,,,,483661,001,2023-08-02_24h09.00.905,fluency,2022.2.4,Win32,60.3682463,,,,,,,,,,,,,,space,5.9659,space,1.6016,0,0,0,73,1,7,7,img/B07_07.jpg,MF,Press J if the face is FEMALE and K if the face is MALE, ,KJ,,,,,,,,,,,,,,,,,,,,,,,,,,,,,,,,,,,,,,,,,,,,,,,,,,,,,,,,,,,,,,,,,,,,,,,,,
,,,,483661,001,2023-08-02_24h09.00.905,fluency,2022.2.4,Win32,60.3682463,,,,,,,,,,,,,,,,,,,,,,,,,,,,,,c,2.9132,0,0,0,0,1,,,,,,,,,,,,,,,,,,,,,,,,,,,,,,,,,,,,,,,,,,,,,,,,,,,,,,,,,,,,,,,,,,
,,,,483661,001,2023-08-02_24h09.00.905,fluency,2022.2.4,Win32,60.3682463,,,,,,,,,,,,,,,,,,,,,,,,,,,,,,,,,,,,,a,2.6096,0,0,0,0,1,,,,,,,,,,,,,,,,,,,,,,,,,,,,,,,,,,,,,,,,,,,,,,,,,,,,,,,,,,,
,,,,483661,001,2023-08-02_24h09.00.905,fluency,2022.2.4,Win32,60.3682463,,,,,,,,,,,,,,,,,,,,,,,,,,,,,,,,,,,,,,,,,,,,c,4.8202,0,0,0,0,1,,,,,,,,,,,,,,,,,,,,,,,,,,,,,,,,,,,,,,,,,,,,,,,,,,,,
,,,,483661,001,2023-08-02_24h09.00.905,fluency,2022.2.4,Win32,60.3682463,,,,,,,,,,,,,,,,,,,,,,,,,,,,,,,,,,,,,,,,,,,,,,,,,,,space,1.3122,k,1.4649,0,0,0,0,0,1,,,,,,,,,,,,,,,,,,,,,,,,,,,,,,,,,,,,,,,,,,
,,,,483661,001,2023-08-02_24h09.00.905,fluency,2022.2.4,Win32,60.3682463,,,,,,,,,,,,,,,,,,,,,,,,,,,,,,,,,,,,,,,,,,,,,,,,,,,,,,,,,,,,,5,1.345,0,0,0,0,1,,,,,,,,,,,,,,,,,,,,,,,,,,,,,,,,,,,
,,,,483661,001,2023-08-02_24h09.00.905,fluency,2022.2.4,Win32,60.3682463,,,,,,,,,,,,,,,,,,,,,,,,,,,,,,,,,,,,,,,,,,,,,,,,,,,,,,,,,,,,,,,,,,,,space,1.01,0,0,0,0,1,,,,,,,,,,,,,,,,,,,,,,,,,,,,
,,,,483661,001,2023-08-02_24h09.00.905,fluency,2022.2.4,Win32,60.3682463,,,,,,,,,,,,,,,,,,,,,,,10,5,img/B05_10.jpg,MF,Press J if the face is FEMALE and K if the face is MALE, ,KJ,,,,,,,,,,,,,,,,,,,,,,,,,,,,,,,,,,,,,,,,,,,,,,157.105,0,0,0,54,1,109,0,0,0,0,1,98,,,,,,,,,,,,,,,
,,,,483661,001,2023-08-02_24h09.00.905,fluency,2022.2.4,Win32,60.3682463,,,,,,,,,,,,,,,,,,,,,,,,,,,,,,,,,,,,,,,,,,,,,,,,,,,,,,,,,,,,,,,,,,,,,,,,,,,,,,,,,,0,0,0,0,1,,"[""j""]",[0.7901000001430418],0,"[""j""]",[0.789900000095372],,,,,,,,,,
,,,,483661,001,2023-08-02_24h09.00.905,fluency,2022.2.4,Win32,60.3682463,,,,,,,,,,,,,,,,,,,,,,,10,5,img/B05_10.jpg,MF,Press J if the face is FEMALE and K if the face is MALE, ,KJ,,,,,,,,,,,,,,,,,,,,,,,,,,,,,,,,5,1.0316,,,,,,,,,,,,,,0,0,0,54,1,,,,,,,,,,,,,space,1.7294,,,,,,,,
,,,,483661,001,2023-08-02_24h09.00.905,fluency,2022.2.4,Win32,60.3682463,,,,,,,,,,,,,,,,,,,,,,,0,2,img/B02_00.jpg,MF,Press J if the face is FEMALE and K if the face is MALE, ,KJ,,,,,,,,,,,,,,,,,,,,,,,,,,,,,,,,,,,,,,,,,,,,,,163.9557,0,1,1,11,1,109,0,0,0,0,1,98,,,,,,,,,,,,,,,
,,,,483661,001,2023-08-02_24h09.00.905,fluency,2022.2.4,Win32,60.3682463,,,,,,,,,,,,,,,,,,,,,,,,,,,,,,,,,,,,,,,,,,,,,,,,,,,,,,,,,,,,,,,,,,,,,,,,,,,,,,,,,,0,0,0,0,1,,"[""k""]",[1.2943000001907308],0,"[""k""]",[1.2944000000953508],,,,,,,,,,
,,,,483661,001,2023-08-02_24h09.00.905,fluency,2022.2.4,Win32,60.3682463,,,,,,,,,,,,,,,,,,,,,,,0,2,img/B02_00.jpg,MF,Press J if the face is FEMALE and K if the face is MALE, ,KJ,,,,,,,,,,,,,,,,,,,,,,,,,,,,,,,,5,1.8658,,,,,,,,,,,,,,0,1,1,11,1,,,,,,,,,,,,,space,0.9512,,,,,,,,
,,,,483661,001,2023-08-02_24h09.00.905,fluency,2022.2.4,Win32,60.3682463,,,,,,,,,,,,,,,,,,,,,,,8,2,img/B02_08.jpg,MF,Press J if the face is FEMALE and K if the face is MALE, ,KJ,,,,,,,,,,,,,,,,,,,,,,,,,,,,,,,,,,,,,,,,,,,,,,170.8653,0,2,2,19,1,109,0,0,0,0,1,98,,,,,,,,,,,,,,,
,,,,483661,001,2023-08-02_24h09.00.905,fluency,2022.2.4,Win32,60.3682463,,,,,,,,,,,,,,,,,,,,,,,,,,,,,,,,,,,,,,,,,,,,,,,,,,,,,,,,,,,,,,,,,,,,,,,,,,,,,,,,,,0,0,0,0,1,,"[""j""]",[1.194799999952295],0,"[""j""]",[1.1944999999999766],,,,,,,,,,
,,,,483661,001,2023-08-02_24h09.00.905,fluency,2022.2.4,Win32,60.3682463,,,,,,,,,,,,,,,,,,,,,,,8,2,img/B02_08.jpg,MF,Press J if the face is FEMALE and K if the face is MALE, ,KJ,,,,,,,,,,,,,,,,,,,,,,,,,,,,,,,,5,1.0825,,,,,,,,,,,,,,0,2,2,19,1,,,,,,,,,,,,,space,1.0528,,,,,,,,
,,,,483661,001,2023-08-02_24h09.00.905,fluency,2022.2.4,Win32,60.3682463,,,,,,,,,,,,,,,,,,,,,,,10,2,img/B02_10.jpg,MF,Press J if the face is FEMALE and K if the face is MALE, ,KJ,,,,,,,,,,,,,,,,,,,,,,,,,,,,,,,,,,,,,,,,,,,,,,178.0724,0,3,3,21,1,109,0,0,0,0,1,98,,,,,,,,,,,,,,,
,,,,483661,001,2023-08-02_24h09.00.905,fluency,2022.2.4,Win32,60.3682463,,,,,,,,,,,,,,,,,,,,,,,,,,,,,,,,,,,,,,,,,,,,,,,,,,,,,,,,,,,,,,,,,,,,,,,,,,,,,,,,,,0,0,0,0,1,,"[""j""]",[1.3348999998569866],0,"[""j"",""space""]","[1.334900000095388,2.16729999995232]",,,,,,,,,,
,,,,483661,001,2023-08-02_24h09.00.905,fluency,2022.2.4,Win32,60.3682463,,,,,,,,,,,,,,,,,,,,,,,10,2,img/B02_10.jpg,MF,Press J if the face is FEMALE and K if the face is MALE, ,KJ,,,,,,,,,,,,,,,,,,,,,,,,,,,,,,,,5,1.3625,,,,,,,,,,,,,,0,3,3,21,1,,,,,,,,,,,,,space,2.55,,,,,,,,
,,,,483661,001,2023-08-02_24h09.00.905,fluency,2022.2.4,Win32,60.3682463,,,,,,,,,,,,,,,,,,,,,,,9,8,img/B08_09.jpg,MF,Press J if the face is FEMALE and K if the face is MALE, ,KJ,,,,,,,,,,,,,,,,,,,,,,,,,,,,,,,,,,,,,,,,,,,,,,187.0719,0,4,4,86,1,109,0,0,0,0,1,98,,,,,,,,,,,,,,,
,,,,483661,001,2023-08-02_24h09.00.905,fluency,2022.2.4,Win32,60.3682463,,,,,,,,,,,,,,,,,,,,,,,,,,,,,,,,,,,,,,,,,,,,,,,,,,,,,,,,,,,,,,,,,,,,,,,,,,,,,,,,,,0,0,0,0,1,,"[""k""]",[0.9495000000000005],0,"[""k""]",[0.9495000000000005],,,,,,,,,,
,,,,483661,001,2023-08-02_24h09.00.905,fluency,2022.2.4,Win32,60.3682463,,,,,,,,,,,,,,,,,,,,,,,9,8,img/B08_09.jpg,MF,Press J if the face is FEMALE and K if the face is MALE, ,KJ,,,,,,,,,,,,,,,,,,,,,,,,,,,,,,,,6,1.172,,,,,,,,,,,,,,0,4,4,86,1,,,,,,,,,,,,,space,0.7707,,,,,,,,
,,,,483661,001,2023-08-02_24h09.00.905,fluency,2022.2.4,Win32,60.3682463,,,,,,,,,,,,,,,,,,,,,,,7,5,img/B05_07.jpg,MF,Press J if the face is FEMALE and K if the face is MALE, ,KJ,,,,,,,,,,,,,,,,,,,,,,,,,,,,,,,,,,,,,,,,,,,,,,194.0876,0,5,5,51,1,109,0,0,0,0,1,98,,,,,,,,,,,,,,,
,,,,483661,001,2023-08-02_24h09.00.905,fluency,2022.2.4,Win32,60.3682463,,,,,,,,,,,,,,,,,,,,,,,,,,,,,,,,,,,,,,,,,,,,,,,,,,,,,,,,,,,,,,,,,,,,,,,,,,,,,,,,,,0,0,0,0,1,,"[""j""]",[1.1116999998092751],0,"[""j""]",[1.111500000000035],,,,,,,,,,
,,,,483661,001,2023-08-02_24h09.00.905,fluency,2022.2.4,Win32,60.3682463,,,,,,,,,,,,,,,,,,,,,,,7,5,img/B05_07.jpg,MF,Press J if the face is FEMALE and K if the face is MALE, ,KJ,,,,,,,,,,,,,,,,,,,,,,,,,,,,,,,,6,1.4485,,,,,,,,,,,,,,0,5,5,51,1,,,,,,,,,,,,,space,1.9397,,,,,,,,
,,,,483661,001,2023-08-02_24h09.00.905,fluency,2022.2.4,Win32,60.3682463,,,,,,,,,,,,,,,,,,,,,,,4,5,img/B05_04.jpg,MF,Press J if the face is FEMALE and K if the face is MALE, ,KJ,,,,,,,,,,,,,,,,,,,,,,,,,,,,,,,,,,,,,,,,,,,,,,201.5807,0,6,6,48,1,109,0,0,0,0,1,98,,,,,,,,,,,,,,,
,,,,483661,001,2023-08-02_24h09.00.905,fluency,2022.2.4,Win32,60.3682463,,,,,,,,,,,,,,,,,,,,,,,,,,,,,,,,,,,,,,,,,,,,,,,,,,,,,,,,,,,,,,,,,,,,,,,,,,,,,,,,,,0,0,0,0,1,,"[""j""]",[0.9667000000476946],0,"[""j"",""space""]","[0.9667000000476946,2.445100000143043]",,,,,,,,,,
,,,,483661,001,2023-08-02_24h09.00.905,fluency,2022.2.4,Win32,60.3682463,,,,,,,,,,,,,,,,,,,,,,,4,5,img/B05_04.jpg,MF,Press J if the face is FEMALE and K if the face is MALE, ,KJ,,,,,,,,,,,,,,,,,,,,,,,,,,,,,,,,6,0.6989,,,,,,,,,,,,,,0,6,6,48,1,,,,,,,,,,,,,space,1.0669,,,,,,,,
,,,,483661,001,2023-08-02_24h09.00.905,fluency,2022.2.4,Win32,60.3682463,,,,,,,,,,,,,,,,,,,,,,,7,7,img/B07_07.jpg,MF,Press J if the face is FEMALE and K if the face is MALE, ,KJ,,,,,,,,,,,,,,,,,,,,,,,,,,,,,,,,,,,,,,,,,,,,,,207.4037,0,7,7,73,1,109,0,0,0,0,1,98,,,,,,,,,,,,,,,
,,,,483661,001,2023-08-02_24h09.00.905,fluency,2022.2.4,Win32,60.3682463,,,,,,,,,,,,,,,,,,,,,,,,,,,,,,,,,,,,,,,,,,,,,,,,,,,,,,,,,,,,,,,,,,,,,,,,,,,,,,,,,,0,0,0,0,1,,"[""j""]",[0.9449000000953447],0,"[""j"",""space""]","[0.9447000000476464,1.9519999999999982]",,,,,,,,,,
,,,,483661,001,2023-08-02_24h09.00.905,fluency,2022.2.4,Win32,60.3682463,,,,,,,,,,,,,,,,,,,,,,,7,7,img/B07_07.jpg,MF,Press J if the face is FEMALE and K if the face is MALE, ,KJ,,,,,,,,,,,,,,,,,,,,,,,,,,,,,,,,6,0.3704,,,,,,,,,,,,,,0,7,7,73,1,,,,,,,,,,,,,space,1.6545,,,,,,,,
,,,,483661,001,2023-08-02_24h09.00.905,fluency,2022.2.4,Win32,60.3682463,,,,,,,,,,,,,,,,,,,,,,,7,8,img/B08_07.jpg,MF,Press J if the face is FEMALE and K if the face is MALE, ,KJ,,,,,,,,,,,,,,,,,,,,,,,,,,,,,,,,,,,,,,,,,,,,,,213.5128,0,8,8,84,1,109,0,0,0,0,1,98,,,,,,,,,,,,,,,
,,,,483661,001,2023-08-02_24h09.00.905,fluency,2022.2.4,Win32,60.3682463,,,,,,,,,,,,,,,,,,,,,,,,,,,,,,,,,,,,,,,,,,,,,,,,,,,,,,,,,,,,,,,,,,,,,,,,,,,,,,,,,,0,0,0,0,1,,"[""k""]",[0.850200000047721],0,"[""k"",""space""]","[0.8503000001907708,2.0093000001907626]",,,,,,,,,,
,,,,483661,001,2023-08-02_24h09.00.905,fluency,2022.2.4,Win32,60.3682463,,,,,,,,,,,,,,,,,,,,,,,7,8,img/B08_07.jpg,MF,Press J if the face is FEMALE and K if the face is MALE, ,KJ,,,,,,,,,,,,,,,,,,,,,,,,,,,,,,,,6,1.1452,,,,,,,,,,,,,,0,8,8,84,1,,,,,,,,,,,,,space,1.04,,,,,,,,
,,,,483661,001,2023-08-02_24h09.00.905,fluency,2022.2.4,Win32,60.3682463,,,,,,,,,,,,,,,,,,,,,,,7,9,img/B09_07.jpg,MF,Press J if the face is FEMALE and K if the face is MALE, ,KJ,,,,,,,,,,,,,,,,,,,,,,,,,,,,,,,,,,,,,,,,,,,,,,220.7637,0,9,9,95,1,109,0,0,0,0,1,98,,,,,,,,,,,,,,,
,,,,483661,001,2023-08-02_24h09.00.905,fluency,2022.2.4,Win32,60.3682463,,,,,,,,,,,,,,,,,,,,,,,,,,,,,,,,,,,,,,,,,,,,,,,,,,,,,,,,,,,,,,,,,,,,,,,,,,,,,,,,,,0,0,0,0,1,,"[""j""]",[0.9285000000000423],0,"[""j"",""space""]","[0.928299999952344,1.9632999999523122]",,,,,,,,,,
,,,,483661,001,2023-08-02_24h09.00.905,fluency,2022.2.4,Win32,60.3682463,,,,,,,,,,,,,,,,,,,,,,,7,9,img/B09_07.jpg,MF,Press J if the face is FEMALE and K if the face is MALE, ,KJ,,,,,,,,,,,,,,,,,,,,,,,,,,,,,,,,5,1.1063,,,,,,,,,,,,,,0,9,9,95,1,,,,,,,,,,,,,space,0.8182,,,,,,,,
,,,,483661,001,2023-08-02_24h09.00.905,fluency,2022.2.4,Win32,60.3682463,,,,,,,,,,,,,,,,,,,,,,,9,7,img/B07_09.jpg,MF,Press J if the face is FEMALE and K if the face is MALE, ,KJ,,,,,,,,,,,,,,,,,,,,,,,,,,,,,,,,,,,,,,,,,,,,,,226.7342,0,10,10,75,1,109,0,0,0,0,1,98,,,,,,,,,,,,,,,
,,,,483661,001,2023-08-02_24h09.00.905,fluency,2022.2.4,Win32,60.3682463,,,,,,,,,,,,,,,,,,,,,,,,,,,,,,,,,,,,,,,,,,,,,,,,,,,,,,,,,,,,,,,,,,,,,,,,,,,,,,,,,,0,0,0,0,1,,"[""j""]",[1.0271000001430934],0,"[""j"",""space""]","[1.0271000001430934,1.6309000000953802]",,,,,,,,,,
,,,,483661,001,2023-08-02_24h09.00.905,fluency,2022.2.4,Win32,60.3682463,,,,,,,,,,,,,,,,,,,,,,,9,7,img/B07_09.jpg,MF,Press J if the face is FEMALE and K if the face is MALE, ,KJ,,,,,,,,,,,,,,,,,,,,,,,,,,,,,,,,5,1.4397,,,,,,,,,,,,,,0,10,10,75,1,,,,,,,,,,,,,space,1.2186,,,,,,,,
,,,,483661,001,2023-08-02_24h09.00.905,fluency,2022.2.4,Win32,60.3682463,,,,,,,,,,,,,,,,,,,,,,,9,6,img/B06_09.jpg,MF,Press J if the face is FEMALE and K if the face is MALE, ,KJ,,,,,,,,,,,,,,,,,,,,,,,,,,,,,,,,,,,,,,,,,,,,,,234.4359,0,11,11,64,1,109,0,0,0,0,1,98,,,,,,,,,,,,,,,
,,,,483661,001,2023-08-02_24h09.00.905,fluency,2022.2.4,Win32,60.3682463,,,,,,,,,,,,,,,,,,,,,,,,,,,,,,,,,,,,,,,,,,,,,,,,,,,,,,,,,,,,,,,,,,,,,,,,,,,,,,,,,,0,0,0,0,1,,"[""j""]",[1.264799999952288],0,"[""j"",""space""]","[1.2645999999046467,2.097699999809265]",,,,,,,,,,
,,,,483661,001,2023-08-02_24h09.00.905,fluency,2022.2.4,Win32,60.3682463,,,,,,,,,,,,,,,,,,,,,,,9,6,img/B06_09.jpg,MF,Press J if the face is FEMALE and K if the face is MALE, ,KJ,,,,,,,,,,,,,,,,,,,,,,,,,,,,,,,,6,1.2612,,,,,,,,,,,,,,0,11,11,64,1,,,,,,,,,,,,,space,0.7171,,,,,,,,
,,,,483661,001,2023-08-02_24h09.00.905,fluency,2022.2.4,Win32,60.3682463,,,,,,,,,,,,,,,,,,,,,,,3,6,img/B06_03.jpg,MF,Press J if the face is FEMALE and K if the face is MALE, ,KJ,,,,,,,,,,,,,,,,,,,,,,,,,,,,,,,,,,,,,,,,,,,,,,241.4839,0,12,12,58,1,109,0,0,0,0,1,98,,,,,,,,,,,,,,,
,,,,483661,001,2023-08-02_24h09.00.905,fluency,2022.2.4,Win32,60.3682463,,,,,,,,,,,,,,,,,,,,,,,,,,,,,,,,,,,,,,,,,,,,,,,,,,,,,,,,,,,,,,,,,,,,,,,,,,,,,,,,,,0,0,0,0,1,,"[""k""]",[1.0594000000953656],0,"[""k"",""space""]","[1.0593999998569643,2.859099999904629]",,,,,,,,,,
,,,,483661,001,2023-08-02_24h09.00.905,fluency,2022.2.4,Win32,60.3682463,,,,,,,,,,,,,,,,,,,,,,,3,6,img/B06_03.jpg,MF,Press J if the face is FEMALE and K if the face is MALE, ,KJ,,,,,,,,,,,,,,,,,,,,,,,,,,,,,,,,6,1.8042,,,,,,,,,,,,,,0,12,12,58,1,,,,,,,,,,,,,space,0.7355,,,,,,,,
,,,,483661,001,2023-08-02_24h09.00.905,fluency,2022.2.4,Win32,60.3682463,,,,,,,,,,,,,,,,,,,,,,,4,9,img/B09_04.jpg,MF,Press J if the face is FEMALE and K if the face is MALE, ,KJ,,,,,,,,,,,,,,,,,,,,,,,,,,,,,,,,,,,,,,,,,,,,,,248.1016,0,13,13,92,1,109,0,0,0,0,1,98,,,,,,,,,,,,,,,
,,,,483661,001,2023-08-02_24h09.00.905,fluency,2022.2.4,Win32,60.3682463,,,,,,,,,,,,,,,,,,,,,,,,,,,,,,,,,,,,,,,,,,,,,,,,,,,,,,,,,,,,,,,,,,,,,,,,,,,,,,,,,,0,0,0,0,1,,"[""j""]",[1.4453999998569316],0,"[""j"",""space""]","[1.44529999995234,2.1785000000000423]",,,,,,,,,,
,,,,483661,001,2023-08-02_24h09.00.905,fluency,2022.2.4,Win32,60.3682463,,,,,,,,,,,,,,,,,,,,,,,4,9,img/B09_04.jpg,MF,Press J if the face is FEMALE and K if the face is MALE, ,KJ,,,,,,,,,,,,,,,,,,,,,,,,,,,,,,,,6,1.7981,,,,,,,,,,,,,,0,13,13,92,1,,,,,,,,,,,,,space,0.6845,,,,,,,,
,,,,483661,001,2023-08-02_24h09.00.905,fluency,2022.2.4,Win32,60.3682463,,,,,,,,,,,,,,,,,,,,,,,5,9,img/B09_05.jpg,MF,Press J if the face is FEMALE and K if the face is MALE, ,KJ,,,,,,,,,,,,,,,,,,,,,,,,,,,,,,,,,,,,,,,,,,,,,,254.6437,0,14,14,93,1,109,0,0,0,0,1,98,,,,,,,,,,,,,,,
,,,,483661,001,2023-08-02_24h09.00.905,fluency,2022.2.4,Win32,60.3682463,,,,,,,,,,,,,,,,,,,,,,,,,,,,,,,,,,,,,,,,,,,,,,,,,,,,,,,,,,,,,,,,,,,,,,,,,,,,,,,,,,0,0,0,0,1,,"[""j""]",[0.9957999999523395],0,"[""j"",""space""]","[0.995700000047691,1.497299999952304]",,,,,,,,,,
,,,,483661,001,2023-08-02_24h09.00.905,fluency,2022.2.4,Win32,60.3682463,,,,,,,,,,,,,,,,,,,,,,,5,9,img/B09_05.jpg,MF,Press J if the face is FEMALE and K if the face is MALE, ,KJ,,,,,,,,,,,,,,,,,,,,,,,,,,,,,,,,6,1.3667,,,,,,,,,,,,,,0,14,14,93,1,,,,,,,,,,,,,space,0.7511,,,,,,,,
,,,,483661,001,2023-08-02_24h09.00.905,fluency,2022.2.4,Win32,60.3682463,,,,,,,,,,,,,,,,,,,,,,,7,2,img/B02_07.jpg,MF,Press J if the face is FEMALE and K if the face is MALE, ,KJ,,,,,,,,,,,,,,,,,,,,,,,,,,,,,,,,,,,,,,,,,,,,,,260.8164,0,15,15,18,1,109,0,0,0,0,1,98,,,,,,,,,,,,,,,
,,,,483661,001,2023-08-02_24h09.00.905,fluency,2022.2.4,Win32,60.3682463,,,,,,,,,,,,,,,,,,,,,,,,,,,,,,,,,,,,,,,,,,,,,,,,,,,,,,,,,,,,,,,,,,,,,,,,,,,,,,,,,,,,,,,,,,1,"[""5"",""space""]","[1.3238999998569625,2.006500000000017]",,,space,3.3427,0,0,0,0,1,
,,,,483661,001,2023-08-02_24h09.00.905,fluency,2022.2.4,Win32,60.3682463,,,,,,,,,,,,,,,,,,,,,,,,,,,,,,,,,,,,,,,,,,,,,,,,,,,,,,,,,,,,,,,,,,,,,,,,,,,,,,,,,,0,0,0,0,1,,,,,,,,,,,,,,,,
,,,,483661,001,2023-08-02_24h09.00.905,fluency,2022.2.4,Win32,60.3682463,,,,,,,,,,,,,,,,,,,,,,,7,2,img/B02_07.jpg,MF,Press J if the face is FEMALE and K if the face is MALE, ,KJ,,,,,,,,,,,,,,,,,,,,,,,,,,,,,,,,,,,,,,,,,,,,,,268.2276,0,15,15,18,1,109,1,0,1,0,1,98,,,,,,,,,,,,,,,
,,,,483661,001,2023-08-02_24h09.00.905,fluency,2022.2.4,Win32,60.3682463,,,,,,,,,,,,,,,,,,,,,,,,,,,,,,,,,,,,,,,,,,,,,,,,,,,,,,,,,,,,,,,,,,,,,,,,,,,,,,,,,,1,0,1,0,1,,"[""j""]",[0.9366999998092638],1,"[""j""]",[0.9367000000477219],,,,,,,,,,
,,,,483661,001,2023-08-02_24h09.00.905,fluency,2022.2.4,Win32,60.3682463,,,,,,,,,,,,,,,,,,,,,,,7,2,img/B02_07.jpg,MF,Press J if the face is FEMALE and K if the face is MALE, ,KJ,,,,,,,,,,,,,,,,,,,,,,,,,,,,,,,,6,2.7989,,,,,,,,,,,,,,0,15,15,18,1,,,,,,,,,,,,,space,7.8862,,,,,,,,
,,,,483661,001,2023-08-02_24h09.00.905,fluency,2022.2.4,Win32,60.3682463,,,,,,,,,,,,,,,,,,,,,,,6,9,img/B09_06.jpg,MF,Press J if the face is FEMALE and K if the face is MALE, ,KJ,,,,,,,,,,,,,,,,,,,,,,,,,,,,,,,,,,,,,,,,,,,,,,282.9931,0,16,16,94,1,109,0,0,0,0,1,98,,,,,,,,,,,,,,,
,,,,483661,001,2023-08-02_24h09.00.905,fluency,2022.2.4,Win32,60.3682463,,,,,,,,,,,,,,,,,,,,,,,,,,,,,,,,,,,,,,,,,,,,,,,,,,,,,,,,,,,,,,,,,,,,,,,,,,,,,,,,,,0,0,0,0,1,,"[""j""]",[0.9470000000000027],1,"[""j"",""space""]","[0.946899999856953,2.07809999990468]",,,,,,,,,,
,,,,483661,001,2023-08-02_24h09.00.905,fluency,2022.2.4,Win32,60.3682463,,,,,,,,,,,,,,,,,,,,,,,6,9,img/B09_06.jpg,MF,Press J if the face is FEMALE and K if the face is MALE, ,KJ,,,,,,,,,,,,,,,,,,,,,,,,,,,,,,,,7,1.3949,,,,,,,,,,,,,,0,16,16,94,1,,,,,,,,,,,,,space,0.6365,,,,,,,,
,,,,483661,001,2023-08-02_24h09.00.905,fluency,2022.2.4,Win32,60.3682463,,,,,,,,,,,,,,,,,,,,,,,0,7,img/B07_00.jpg,MF,Press J if the face is FEMALE and K if the face is MALE, ,KJ,,,,,,,,,,,,,,,,,,,,,,,,,,,,,,,,,,,,,,,,,,,,,,290.0843,0,17,17,66,1,109,0,0,0,0,1,98,,,,,,,,,,,,,,,
,,,,483661,001,2023-08-02_24h09.00.905,fluency,2022.2.4,Win32,60.3682463,,,,,,,,,,,,,,,,,,,,,,,,,,,,,,,,,,,,,,,,,,,,,,,,,,,,,,,,,,,,,,,,,,,,,,,,,,,,,,,,,,0,0,0,0,1,,"[""k""]",[1.0943999998569325],1,"[""k""]",[1.094500000000039],,,,,,,,,,
,,,,483661,001,2023-08-02_24h09.00.905,fluency,2022.2.4,Win32,60.3682463,,,,,,,,,,,,,,,,,,,,,,,0,7,img/B07_00.jpg,MF,Press J if the face is FEMALE and K if the face is MALE, ,KJ,,,,,,,,,,,,,,,,,,,,,,,,,,,,,,,,4,1.215,,,,,,,,,,,,,,0,17,17,66,1,,,,,,,,,,,,,space,1.236,,,,,,,,
,,,,483661,001,2023-08-02_24h09.00.905,fluency,2022.2.4,Win32,60.3682463,,,,,,,,,,,,,,,,,,,,,,,3,10,img/B10_03.jpg,MF,Press J if the face is FEMALE and K if the face is MALE, ,KJ,,,,,,,,,,,,,,,,,,,,,,,,,,,,,,,,,,,,,,,,,,,,,,296.6146,0,18,18,102,1,109,0,0,0,0,1,98,,,,,,,,,,,,,,,
,,,,483661,001,2023-08-02_24h09.00.905,fluency,2022.2.4,Win32,60.3682463,,,,,,,,,,,,,,,,,,,,,,,,,,,,,,,,,,,,,,,,,,,,,,,,,,,,,,,,,,,,,,,,,,,,,,,,,,,,,,,,,,0,0,0,0,1,,"[""k""]",[1.0725999999046394],1,"[""k"",""space""]","[1.072499999999991,2.039900000095315]",,,,,,,,,,
,,,,483661,001,2023-08-02_24h09.00.905,fluency,2022.2.4,Win32,60.3682463,,,,,,,,,,,,,,,,,,,,,,,3,10,img/B10_03.jpg,MF,Press J if the face is FEMALE and K if the face is MALE, ,KJ,,,,,,,,,,,,,,,,,,,,,,,,,,,,,,,,6,1.1247,,,,,,,,,,,,,,0,18,18,102,1,,,,,,,,,,,,,space,0.3344,,,,,,,,
,,,,483661,001,2023-08-02_24h09.00.905,fluency,2022.2.4,Win32,60.3682463,,,,,,,,,,,,,,,,,,,,,,,5,7,img/B07_05.jpg,MF,Press J if the face is FEMALE and K if the face is MALE, ,KJ,,,,,,,,,,,,,,,,,,,,,,,,,,,,,,,,,,,,,,,,,,,,,,303.1309,0,19,19,71,1,109,0,0,0,0,1,98,,,,,,,,,,,,,,,
,,,,483661,001,2023-08-02_24h09.00.905,fluency,2022.2.4,Win32,60.3682463,,,,,,,,,,,,,,,,,,,,,,,,,,,,,,,,,,,,,,,,,,,,,,,,,,,,,,,,,,,,,,,,,,,,,,,,,,,,,,,,,,0,0,0,0,1,,"[""j""]",[0.8423000001907326],1,"[""j""]",[0.8423000001907326],,,,,,,,,,
,,,,483661,001,2023-08-02_24h09.00.905,fluency,2022.2.4,Win32,60.3682463,,,,,,,,,,,,,,,,,,,,,,,5,7,img/B07_05.jpg,MF,Press J if the face is FEMALE and K if the face is MALE, ,KJ,,,,,,,,,,,,,,,,,,,,,,,,,,,,,,,,6,1.2458,,,,,,,,,,,,,,0,19,19,71,1,,,,,,,,,,,,,space,0.4017,,,,,,,,
,,,,483661,001,2023-08-02_24h09.00.905,fluency,2022.2.4,Win32,60.3682463,,,,,,,,,,,,,,,,,,,,,,,6,6,img/B06_06.jpg,MF,Press J if the face is FEMALE and K if the face is MALE, ,KJ,,,,,,,,,,,,,,,,,,,,,,,,,,,,,,,,,,,,,,,,,,,,,,309.8473,0,20,20,61,1,109,0,0,0,0,1,98,,,,,,,,,,,,,,,
,,,,483661,001,2023-08-02_24h09.00.905,fluency,2022.2.4,Win32,60.3682463,,,,,,,,,,,,,,,,,,,,,,,,,,,,,,,,,,,,,,,,,,,,,,,,,,,,,,,,,,,,,,,,,,,,,,,,,,,,,,,,,,0,0,0,0,1,,"[""j""]",[1.0216000001429961],1,"[""j""]",[1.0214999999999463],,,,,,,,,,
,,,,483661,001,2023-08-02_24h09.00.905,fluency,2022.2.4,Win32,60.3682463,,,,,,,,,,,,,,,,,,,,,,,6,6,img/B06_06.jpg,MF,Press J if the face is FEMALE and K if the face is MALE, ,KJ,,,,,,,,,,,,,,,,,,,,,,,,,,,,,,,,7,1.2349,,,,,,,,,,,,,,0,20,20,61,1,,,,,,,,,,,,,space,0.5513,,,,,,,,
,,,,483661,001,2023-08-02_24h09.00.905,fluency,2022.2.4,Win32,60.3682463,,,,,,,,,,,,,,,,,,,,,,,7,4,img/B04_07.jpg,MF,Press J if the face is FEMALE and K if the face is MALE, ,KJ,,,,,,,,,,,,,,,,,,,,,,,,,,,,,,,,,,,,,,,,,,,,,,315.6913,0,21,21,40,1,109,0,0,0,0,1,98,,,,,,,,,,,,,,,
,,,,483661,001,2023-08-02_24h09.00.905,fluency,2022.2.4,Win32,60.3682463,,,,,,,,,,,,,,,,,,,,,,,,,,,,,,,,,,,,,,,,,,,,,,,,,,,,,,,,,,,,,,,,,,,,,,,,,,,,,,,,,,0,0,0,0,1,,"[""j""]",[1.1954999999999814],1,"[""j"",""space""]","[1.1954999999999814,1.6299999999999955]",,,,,,,,,,
,,,,483661,001,2023-08-02_24h09.00.905,fluency,2022.2.4,Win32,60.3682463,,,,,,,,,,,,,,,,,,,,,,,7,4,img/B04_07.jpg,MF,Press J if the face is FEMALE and K if the face is MALE, ,KJ,,,,,,,,,,,,,,,,,,,,,,,,,,,,,,,,6,0.4255,,,,,,,,,,,,,,0,21,21,40,1,,,,,,,,,,,,,space,0.5025,,,,,,,,
,,,,483661,001,2023-08-02_24h09.00.905,fluency,2022.2.4,Win32,60.3682463,,,,,,,,,,,,,,,,,,,,,,,4,1,img/B01_04.jpg,MF,Press J if the face is FEMALE and K if the face is MALE, ,KJ,,,,,,,,,,,,,,,,,,,,,,,,,,,,,,,,,,,,,,,,,,,,,,320.6797,0,22,22,4,1,109,0,0,0,0,1,98,,,,,,,,,,,,,,,
,,,,483661,001,2023-08-02_24h09.00.905,fluency,2022.2.4,Win32,60.3682463,,,,,,,,,,,,,,,,,,,,,,,,,,,,,,,,,,,,,,,,,,,,,,,,,,,,,,,,,,,,,,,,,,,,,,,,,,,,,,,,,,0,0,0,0,1,,"[""k""]",[1.508400000095378],1,"[""k"",""space""]","[1.5080999999046298,2.2937999999522845]",,,,,,,,,,
,,,,483661,001,2023-08-02_24h09.00.905,fluency,2022.2.4,Win32,60.3682463,,,,,,,,,,,,,,,,,,,,,,,4,1,img/B01_04.jpg,MF,Press J if the face is FEMALE and K if the face is MALE, ,KJ,,,,,,,,,,,,,,,,,,,,,,,,,,,,,,,,6,1.1494,,,,,,,,,,,,,,0,22,22,4,1,,,,,,,,,,,,,space,0.3687,,,,,,,,
,,,,483661,001,2023-08-02_24h09.00.905,fluency,2022.2.4,Win32,60.3682463,,,,,,,,,,,,,,,,,,,,,,,8,4,img/B04_08.jpg,MF,Press J if the face is FEMALE and K if the face is MALE, ,KJ,,,,,,,,,,,,,,,,,,,,,,,,,,,,,,,,,,,,,,,,,,,,,,326.2577,0,23,23,41,1,109,0,0,0,0,1,98,,,,,,,,,,,,,,,
,,,,483661,001,2023-08-02_24h09.00.905,fluency,2022.2.4,Win32,60.3682463,,,,,,,,,,,,,,,,,,,,,,,,,,,,,,,,,,,,,,,,,,,,,,,,,,,,,,,,,,,,,,,,,,,,,,,,,,,,,,,,,,0,0,0,0,1,,"[""j""]",[1.3111999998092188],1,"[""j"",""space"",""5""]","[1.3112999999522685,1.6439999999999486,2.160799999952303]",,,,,,,,,,
,,,,483661,001,2023-08-02_24h09.00.905,fluency,2022.2.4,Win32,60.3682463,,,,,,,,,,,,,,,,,,,,,,,8,4,img/B04_08.jpg,MF,Press J if the face is FEMALE and K if the face is MALE, ,KJ,,,,,,,,,,,,,,,,,,,,,,,,,,,,,,,,6,0.9658,,,,,,,,,,,,,,0,23,23,41,1,,,,,,,,,,,,,space,1.9843,,,,,,,,
,,,,483661,001,2023-08-02_24h09.00.905,fluency,2022.2.4,Win32,60.3682463,,,,,,,,,,,,,,,,,,,,,,,5,5,img/B05_05.jpg,MF,Press J if the face is FEMALE and K if the face is MALE, ,KJ,,,,,,,,,,,,,,,,,,,,,,,,,,,,,,,,,,,,,,,,,,,,,,333.2631,0,24,24,49,1,109,0,0,0,0,1,98,,,,,,,,,,,,,,,
,,,,483661,001,2023-08-02_24h09.00.905,fluency,2022.2.4,Win32,60.3682463,,,,,,,,,,,,,,,,,,,,,,,,,,,,,,,,,,,,,,,,,,,,,,,,,,,,,,,,,,,,,,,,,,,,,,,,,,,,,,,,,,0,0,0,0,1,,"[""j""]",[1.1396999998092383],1,"[""j"",""space""]","[1.1395999999046467,1.8905000000000314]",,,,,,,,,,
,,,,483661,001,2023-08-02_24h09.00.905,fluency,2022.2.4,Win32,60.3682463,,,,,,,,,,,,,,,,,,,,,,,5,5,img/B05_05.jpg,MF,Press J if the face is FEMALE and K if the face is MALE, ,KJ,,,,,,,,,,,,,,,,,,,,,,,,,,,,,,,,6,1.2212,,,,,,,,,,,,,,0,24,24,49,1,,,,,,,,,,,,,space,0.3341,,,,,,,,
,,,,483661,001,2023-08-02_24h09.00.905,fluency,2022.2.4,Win32,60.3682463,,,,,,,,,,,,,,,,,,,,,,,2,10,img/B10_02.jpg,MF,Press J if the face is FEMALE and K if the face is MALE, ,KJ,,,,,,,,,,,,,,,,,,,,,,,,,,,,,,,,,,,,,,,,,,,,,,338.8793,0,25,25,101,1,109,0,0,0,0,1,98,,,,,,,,,,,,,,,
,,,,483661,001,2023-08-02_24h09.00.905,fluency,2022.2.4,Win32,60.3682463,,,,,,,,,,,,,,,,,,,,,,,,,,,,,,,,,,,,,,,,,,,,,,,,,,,,,,,,,,,,,,,,,,,,,,,,,,,,,,,,,,0,0,0,0,1,,"[""k""]",[1.4606000001430743],1,"[""k"",""space""]","[1.460599999904673,1.8610000000000468]",,,,,,,,,,
,,,,483661,001,2023-08-02_24h09.00.905,fluency,2022.2.4,Win32,60.3682463,,,,,,,,,,,,,,,,,,,,,,,2,10,img/B10_02.jpg,MF,Press J if the face is FEMALE and K if the face is MALE, ,KJ,,,,,,,,,,,,,,,,,,,,,,,,,,,,,,,,5,1.2266,,,,,,,,,,,,,,0,25,25,101,1,,,,,,,,,,,,,space,1.0841,,,,,,,,
,,,,483661,001,2023-08-02_24h09.00.905,fluency,2022.2.4,Win32,60.3682463,,,,,,,,,,,,,,,,,,,,,,,2,5,img/B05_02.jpg,MF,Press J if the face is FEMALE and K if the face is MALE, ,KJ,,,,,,,,,,,,,,,,,,,,,,,,,,,,,,,,,,,,,,,,,,,,,,345.236,0,26,26,46,1,109,0,0,0,0,1,98,,,,,,,,,,,,,,,
,,,,483661,001,2023-08-02_24h09.00.905,fluency,2022.2.4,Win32,60.3682463,,,,,,,,,,,,,,,,,,,,,,,,,,,,,,,,,,,,,,,,,,,,,,,,,,,,,,,,,,,,,,,,,,,,,,,,,,,,,,,,,,0,0,0,0,1,,"[""k""]",[1.1465999999046517],1,"[""k"",""space""]","[1.1465000000000032,1.6444000000953451]",,,,,,,,,,
,,,,483661,001,2023-08-02_24h09.00.905,fluency,2022.2.4,Win32,60.3682463,,,,,,,,,,,,,,,,,,,,,,,2,5,img/B05_02.jpg,MF,Press J if the face is FEMALE and K if the face is MALE, ,KJ,,,,,,,,,,,,,,,,,,,,,,,,,,,,,,,,6,1.1178,,,,,,,,,,,,,,0,26,26,46,1,,,,,,,,,,,,,space,1.2513,,,,,,,,
,,,,483661,001,2023-08-02_24h09.00.905,fluency,2022.2.4,Win32,60.3682463,,,,,,,,,,,,,,,,,,,,,,,6,3,img/B03_06.jpg,MF,Press J if the face is FEMALE and K if the face is MALE, ,KJ,,,,,,,,,,,,,,,,,,,,,,,,,,,,,,,,,,,,,,,,,,,,,,351.6719,0,27,27,28,1,109,0,0,0,0,1,98,,,,,,,,,,,,,,,
,,,,483661,001,2023-08-02_24h09.00.905,fluency,2022.2.4,Win32,60.3682463,,,,,,,,,,,,,,,,,,,,,,,,,,,,,,,,,,,,,,,,,,,,,,,,,,,,,,,,,,,,,,,,,,,,,,,,,,,,,,,,,,0,0,0,0,1,,"[""k""]",[1.2133999998569607],1,"[""k"",""space""]","[1.2133999998569607,1.5630999999046367]",,,,,,,,,,
,,,,483661,001,2023-08-02_24h09.00.905,fluency,2022.2.4,Win32,60.3682463,,,,,,,,,,,,,,,,,,,,,,,6,3,img/B03_06.jpg,MF,Press J if the face is FEMALE and K if the face is MALE, ,KJ,,,,,,,,,,,,,,,,,,,,,,,,,,,,,,,,5,0.8615,,,,,,,,,,,,,,0,27,27,28,1,,,,,,,,,,,,,space,1.2696,,,,,,,,
,,,,483661,001,2023-08-02_24h09.00.905,fluency,2022.2.4,Win32,60.3682463,,,,,,,,,,,,,,,,,,,,,,,1,9,img/B09_01.jpg,MF,Press J if the face is FEMALE and K if the face is MALE, ,KJ,,,,,,,,,,,,,,,,,,,,,,,,,,,,,,,,,,,,,,,,,,,,,,358.8618,0,28,28,89,1,109,0,0,0,0,1,98,,,,,,,,,,,,,,,
,,,,483661,001,2023-08-02_24h09.00.905,fluency,2022.2.4,Win32,60.3682463,,,,,,,,,,,,,,,,,,,,,,,,,,,,,,,,,,,,,,,,,,,,,,,,,,,,,,,,,,,,,,,,,,,,,,,,,,,,,,,,,,0,0,0,0,1,,"[""k""]",[1.3900999999046348],1,"[""k""]",[1.3898999998569934],,,,,,,,,,
,,,,483661,001,2023-08-02_24h09.00.905,fluency,2022.2.4,Win32,60.3682463,,,,,,,,,,,,,,,,,,,,,,,1,9,img/B09_01.jpg,MF,Press J if the face is FEMALE and K if the face is MALE, ,KJ,,,,,,,,,,,,,,,,,,,,,,,,,,,,,,,,7,1.1709,,,,,,,,,,,,,,0,28,28,89,1,,,,,,,,,,,,,space,0.3032,,,,,,,,
,,,,483661,001,2023-08-02_24h09.00.905,fluency,2022.2.4,Win32,60.3682463,,,,,,,,,,,,,,,,,,,,,,,0,6,img/B06_00.jpg,MF,Press J if the face is FEMALE and K if the face is MALE, ,KJ,,,,,,,,,,,,,,,,,,,,,,,,,,,,,,,,,,,,,,,,,,,,,,364.4114,0,29,29,55,1,109,0,0,0,0,1,98,,,,,,,,,,,,,,,
,,,,483661,001,2023-08-02_24h09.00.905,fluency,2022.2.4,Win32,60.3682463,,,,,,,,,,,,,,,,,,,,,,,,,,,,,,,,,,,,,,,,,,,,,,,,,,,,,,,,,,,,,,,,,,,,,,,,,,,,,,,,,,0,0,0,0,1,,"[""k""]",[1.0911999998092483],1,"[""k""]",[1.0911999998092483],,,,,,,,,,
,,,,483661,001,2023-08-02_24h09.00.905,fluency,2022.2.4,Win32,60.3682463,,,,,,,,,,,,,,,,,,,,,,,0,6,img/B06_00.jpg,MF,Press J if the face is FEMALE and K if the face is MALE, ,KJ,,,,,,,,,,,,,,,,,,,,,,,,,,,,,,,,6,1.2269,,,,,,,,,,,,,,0,29,29,55,1,,,,,,,,,,,,,space,0.3324,,,,,,,,
,,,,483661,001,2023-08-02_24h09.00.905,fluency,2022.2.4,Win32,60.3682463,,,,,,,,,,,,,,,,,,,,,,,0,5,img/B05_00.jpg,MF,Press J if the face is FEMALE and K if the face is MALE, ,KJ,,,,,,,,,,,,,,,,,,,,,,,,,,,,,,,,,,,,,,,,,,,,,,371.0382,0,30,30,44,1,109,0,0,0,0,1,98,,,,,,,,,,,,,,,
,,,,483661,001,2023-08-02_24h09.00.905,fluency,2022.2.4,Win32,60.3682463,,,,,,,,,,,,,,,,,,,,,,,,,,,,,,,,,,,,,,,,,,,,,,,,,,,,,,,,,,,,,,,,,,,,,,,,,,,,,,,,,,0,0,0,0,1,,"[""k""]",[0.9132999999523008],1,"[""k""]",[0.9132000000477092],,,,,,,,,,
,,,,483661,001,2023-08-02_24h09.00.905,fluency,2022.2.4,Win32,60.3682463,,,,,,,,,,,,,,,,,,,,,,,0,5,img/B05_00.jpg,MF,Press J if the face is FEMALE and K if the face is MALE, ,KJ,,,,,,,,,,,,,,,,,,,,,,,,,,,,,,,,6,1.2996,,,,,,,,,,,,,,0,30,30,44,1,,,,,,,,,,,,,space,0.4019,,,,,,,,
,,,,483661,001,2023-08-02_24h09.00.905,fluency,2022.2.4,Win32,60.3682463,,,,,,,,,,,,,,,,,,,,,,,7,10,img/B10_07.jpg,MF,Press J if the face is FEMALE and K if the face is MALE, ,KJ,,,,,,,,,,,,,,,,,,,,,,,,,,,,,,,,,,,,,,,,,,,,,,376.7883,0,31,31,106,1,109,0,0,0,0,1,98,,,,,,,,,,,,,,,
,,,,483661,001,2023-08-02_24h09.00.905,fluency,2022.2.4,Win32,60.3682463,,,,,,,,,,,,,,,,,,,,,,,,,,,,,,,,,,,,,,,,,,,,,,,,,,,,,,,,,,,,,,,,,,,,,,,,,,,,,,,,,,,,,,,,,,2,"[""6""]",[2.326999999999998],,,space,8.5382,0,0,0,0,1,
,,,,483661,001,2023-08-02_24h09.00.905,fluency,2022.2.4,Win32,60.3682463,,,,,,,,,,,,,,,,,,,,,,,,,,,,,,,,,,,,,,,,,,,,,,,,,,,,,,,,,,,,,,,,,,,,,,,,,,,,,,,,,,0,0,0,0,1,,,,,,,,,,,,,,,,
,,,,483661,001,2023-08-02_24h09.00.905,fluency,2022.2.4,Win32,60.3682463,,,,,,,,,,,,,,,,,,,,,,,7,10,img/B10_07.jpg,MF,Press J if the face is FEMALE and K if the face is MALE, ,KJ,,,,,,,,,,,,,,,,,,,,,,,,,,,,,,,,,,,,,,,,,,,,,,389.3734,0,31,31,106,1,109,1,0,1,0,1,98,,,,,,,,,,,,,,,
,,,,483661,001,2023-08-02_24h09.00.905,fluency,2022.2.4,Win32,60.3682463,,,,,,,,,,,,,,,,,,,,,,,,,,,,,,,,,,,,,,,,,,,,,,,,,,,,,,,,,,,,,,,,,,,,,,,,,,,,,,,,,,1,0,1,0,1,,"[""j""]",[0.9352000000477005],2,"[""j"",""space""]","[0.9350000000000023,1.251299999952323]",,,,,,,,,,
,,,,483661,001,2023-08-02_24h09.00.905,fluency,2022.2.4,Win32,60.3682463,,,,,,,,,,,,,,,,,,,,,,,7,10,img/B10_07.jpg,MF,Press J if the face is FEMALE and K if the face is MALE, ,KJ,,,,,,,,,,,,,,,,,,,,,,,,,,,,,,,,7,1.1988,,,,,,,,,,,,,,0,31,31,106,1,,,,,,,,,,,,,space,0.352,,,,,,,,
,,,,483661,001,2023-08-02_24h09.00.905,fluency,2022.2.4,Win32,60.3682463,,,,,,,,,,,,,,,,,,,,,,,5,10,img/B10_05.jpg,MF,Press J if the face is FEMALE and K if the face is MALE, ,KJ,,,,,,,,,,,,,,,,,,,,,,,,,,,,,,,,,,,,,,,,,,,,,,396.0037,0,32,32,104,1,109,0,0,0,0,1,98,,,,,,,,,,,,,,,
,,,,483661,001,2023-08-02_24h09.00.905,fluency,2022.2.4,Win32,60.3682463,,,,,,,,,,,,,,,,,,,,,,,,,,,,,,,,,,,,,,,,,,,,,,,,,,,,,,,,,,,,,,,,,,,,,,,,,,,,,,,,,,,,,,,,,,3,"[""6"",""space""]","[1.179200000047672,1.6791000001430234]",,,space,9.7275,0,0,0,0,1,
,,,,483661,001,2023-08-02_24h09.00.905,fluency,2022.2.4,Win32,60.3682463,,,,,,,,,,,,,,,,,,,,,,,,,,,,,,,,,,,,,,,,,,,,,,,,,,,,,,,,,,,,,,,,,,,,,,,,,,,,,,,,,,0,0,0,0,1,,,,,,,,,,,,,,,,
,,,,483661,001,2023-08-02_24h09.00.905,fluency,2022.2.4,Win32,60.3682463,,,,,,,,,,,,,,,,,,,,,,,5,10,img/B10_05.jpg,MF,Press J if the face is FEMALE and K if the face is MALE, ,KJ,,,,,,,,,,,,,,,,,,,,,,,,,,,,,,,,,,,,,,,,,,,,,,410.7758,0,32,32,104,1,109,1,0,1,0,1,98,,,,,,,,,,,,,,,
,,,,483661,001,2023-08-02_24h09.00.905,fluency,2022.2.4,Win32,60.3682463,,,,,,,,,,,,,,,,,,,,,,,,,,,,,,,,,,,,,,,,,,,,,,,,,,,,,,,,,,,,,,,,,,,,,,,,,,,,,,,,,,1,0,1,0,1,,"[""j""]",[1.2674000000953924],3,"[""j"",""space""]","[1.2674000000953924,2.0183000001907203]",,,,,,,,,,
,,,,483661,001,2023-08-02_24h09.00.905,fluency,2022.2.4,Win32,60.3682463,,,,,,,,,,,,,,,,,,,,,,,5,10,img/B10_05.jpg,MF,Press J if the face is FEMALE and K if the face is MALE, ,KJ,,,,,,,,,,,,,,,,,,,,,,,,,,,,,,,,7,1.1508,,,,,,,,,,,,,,0,32,32,104,1,,,,,,,,,,,,,space,2.5176,,,,,,,,
,,,,483661,001,2023-08-02_24h09.00.905,fluency,2022.2.4,Win32,60.3682463,,,,,,,,,,,,,,,,,,,,,,,10,7,img/B07_10.jpg,MF,Press J if the face is FEMALE and K if the face is MALE, ,KJ,,,,,,,,,,,,,,,,,,,,,,,,,,,,,,,,,,,,,,,,,,,,,,418.526,0,33,33,76,1,109,0,0,0,0,1,98,,,,,,,,,,,,,,,
,,,,483661,001,2023-08-02_24h09.00.905,fluency,2022.2.4,Win32,60.3682463,,,,,,,,,,,,,,,,,,,,,,,,,,,,,,,,,,,,,,,,,,,,,,,,,,,,,,,,,,,,,,,,,,,,,,,,,,,,,,,,,,0,0,0,0,1,,"[""j""]",[1.1367999999523022],3,"[""j"",""space""]","[1.1366999998092524,1.6196999998092565]",,,,,,,,,,
,,,,483661,001,2023-08-02_24h09.00.905,fluency,2022.2.4,Win32,60.3682463,,,,,,,,,,,,,,,,,,,,,,,10,7,img/B07_10.jpg,MF,Press J if the face is FEMALE and K if the face is MALE, ,KJ,,,,,,,,,,,,,,,,,,,,,,,,,,,,,,,,7,1.6516,,,,,,,,,,,,,,0,33,33,76,1,,,,,,,,,,,,,space,2.2513,,,,,,,,
,,,,483661,001,2023-08-02_24h09.00.905,fluency,2022.2.4,Win32,60.3682463,,,,,,,,,,,,,,,,,,,,,,,0,4,img/B04_00.jpg,MF,Press J if the face is FEMALE and K if the face is MALE, ,KJ,,,,,,,,,,,,,,,,,,,,,,,,,,,,,,,,,,,,,,,,,,,,,,427.4918,0,34,34,33,1,109,0,0,0,0,1,98,,,,,,,,,,,,,,,
,,,,483661,001,2023-08-02_24h09.00.905,fluency,2022.2.4,Win32,60.3682463,,,,,,,,,,,,,,,,,,,,,,,,,,,,,,,,,,,,,,,,,,,,,,,,,,,,,,,,,,,,,,,,,,,,,,,,,,,,,,,,,,0,0,0,0,1,,"[""k""]",[0.9921000001430684],3,"[""k"",""space""]","[0.9920000000000186,2.3227999999523377]",,,,,,,,,,
,,,,483661,001,2023-08-02_24h09.00.905,fluency,2022.2.4,Win32,60.3682463,,,,,,,,,,,,,,,,,,,,,,,0,4,img/B04_00.jpg,MF,Press J if the face is FEMALE and K if the face is MALE, ,KJ,,,,,,,,,,,,,,,,,,,,,,,,,,,,,,,,7,1.5397,,,,,,,,,,,,,,0,34,34,33,1,,,,,,,,,,,,,space,0.6843,,,,,,,,
,,,,483661,001,2023-08-02_24h09.00.905,fluency,2022.2.4,Win32,60.3682463,,,,,,,,,,,,,,,,,,,,,,,1,10,img/B10_01.jpg,MF,Press J if the face is FEMALE and K if the face is MALE, ,KJ,,,,,,,,,,,,,,,,,,,,,,,,,,,,,,,,,,,,,,,,,,,,,,434.7748,0,35,35,100,1,109,0,0,0,0,1,98,,,,,,,,,,,,,,,
,,,,483661,001,2023-08-02_24h09.00.905,fluency,2022.2.4,Win32,60.3682463,,,,,,,,,,,,,,,,,,,,,,,,,,,,,,,,,,,,,,,,,,,,,,,,,,,,,,,,,,,,,,,,,,,,,,,,,,,,,,,,,,0,0,0,0,1,,"[""k""]",[1.4365000000000236],3,"[""k"",""space""]","[1.4363000001907267,2.2704000000953783]",,,,,,,,,,
,,,,483661,001,2023-08-02_24h09.00.905,fluency,2022.2.4,Win32,60.3682463,,,,,,,,,,,,,,,,,,,,,,,1,10,img/B10_01.jpg,MF,Press J if the face is FEMALE and K if the face is MALE, ,KJ,,,,,,,,,,,,,,,,,,,,,,,,,,,,,,,,6,1.5321,,,,,,,,,,,,,,0,35,35,100,1,,,,,,,,,,,,,space,0.7185,,,,,,,,
,,,,483661,001,2023-08-02_24h09.00.905,fluency,2022.2.4,Win32,60.3682463,,,,,,,,,,,,,,,,,,,,,,,10,9,img/B09_10.jpg,MF,Press J if the face is FEMALE and K if the face is MALE, ,KJ,,,,,,,,,,,,,,,,,,,,,,,,,,,,,,,,,,,,,,,,,,,,,,442.0848,0,36,36,98,1,109,0,0,0,0,1,98,,,,,,,,,,,,,,,
,,,,483661,001,2023-08-02_24h09.00.905,fluency,2022.2.4,Win32,60.3682463,,,,,,,,,,,,,,,,,,,,,,,,,,,,,,,,,,,,,,,,,,,,,,,,,,,,,,,,,,,,,,,,,,,,,,,,,,,,,,,,,,0,0,0,0,1,,"[""j""]",[1.160300000190773],3,"[""j"",""space""]","[1.1602000000476664,1.7619999999999436]",,,,,,,,,,
,,,,483661,001,2023-08-02_24h09.00.905,fluency,2022.2.4,Win32,60.3682463,,,,,,,,,,,,,,,,,,,,,,,10,9,img/B09_10.jpg,MF,Press J if the face is FEMALE and K if the face is MALE, ,KJ,,,,,,,,,,,,,,,,,,,,,,,,,,,,,,,,6,1.8383,,,,,,,,,,,,,,0,36,36,98,1,,,,,,,,,,,,,space,0.7196,,,,,,,,
,,,,483661,001,2023-08-02_24h09.00.905,fluency,2022.2.4,Win32,60.3682463,,,,,,,,,,,,,,,,,,,,,,,5,6,img/B06_05.jpg,MF,Press J if the face is FEMALE and K if the face is MALE, ,KJ,,,,,,,,,,,,,,,,,,,,,,,,,,,,,,,,,,,,,,,,,,,,,,448.6912,0,37,37,60,1,109,0,0,0,0,1,98,,,,,,,,,,,,,,,
,,,,483661,001,2023-08-02_24h09.00.905,fluency,2022.2.4,Win32,60.3682463,,,,,,,,,,,,,,,,,,,,,,,,,,,,,,,,,,,,,,,,,,,,,,,,,,,,,,,,,,,,,,,,,,,,,,,,,,,,,,,,,,0,0,0,0,1,,"[""j""]",[1.0900000000000318],3,"[""j"",""space""]","[1.0899000000954402,1.5233000001907158]",,,,,,,,,,
,,,,483661,001,2023-08-02_24h09.00.905,fluency,2022.2.4,Win32,60.3682463,,,,,,,,,,,,,,,,,,,,,,,5,6,img/B06_05.jpg,MF,Press J if the face is FEMALE and K if the face is MALE, ,KJ,,,,,,,,,,,,,,,,,,,,,,,,,,,,,,,,6,2.1791,,,,,,,,,,,,,,0,37,37,60,1,,,,,,,,,,,,,space,0.3177,,,,,,,,
,,,,483661,001,2023-08-02_24h09.00.905,fluency,2022.2.4,Win32,60.3682463,,,,,,,,,,,,,,,,,,,,,,,8,5,img/B05_08.jpg,MF,Press J if the face is FEMALE and K if the face is MALE, ,KJ,,,,,,,,,,,,,,,,,,,,,,,,,,,,,,,,,,,,,,,,,,,,,,456.2571,0,38,38,52,1,109,0,0,0,0,1,98,,,,,,,,,,,,,,,
,,,,483661,001,2023-08-02_24h09.00.905,fluency,2022.2.4,Win32,60.3682463,,,,,,,,,,,,,,,,,,,,,,,,,,,,,,,,,,,,,,,,,,,,,,,,,,,,,,,,,,,,,,,,,,,,,,,,,,,,,,,,,,0,0,0,0,1,,"[""j""]",[1.0772999999524018],3,"[""j"",""n"",""space""]","[1.0783000001906657,1.5081000001430311,2.0085000000000264]",,,,,,,,,,
,,,,483661,001,2023-08-02_24h09.00.905,fluency,2022.2.4,Win32,60.3682463,,,,,,,,,,,,,,,,,,,,,,,8,5,img/B05_08.jpg,MF,Press J if the face is FEMALE and K if the face is MALE, ,KJ,,,,,,,,,,,,,,,,,,,,,,,,,,,,,,,,6,1.4512,,,,,,,,,,,,,,0,38,38,52,1,,,,,,,,,,,,,space,0.4348,,,,,,,,
,,,,483661,001,2023-08-02_24h09.00.905,fluency,2022.2.4,Win32,60.3682463,,,,,,,,,,,,,,,,,,,,,,,1,3,img/B03_01.jpg,MF,Press J if the face is FEMALE and K if the face is MALE, ,KJ,,,,,,,,,,,,,,,,,,,,,,,,,,,,,,,,,,,,,,,,,,,,,,462.1837,0,39,39,23,1,109,0,0,0,0,1,98,,,,,,,,,,,,,,,
,,,,483661,001,2023-08-02_24h09.00.905,fluency,2022.2.4,Win32,60.3682463,,,,,,,,,,,,,,,,,,,,,,,,,,,,,,,,,,,,,,,,,,,,,,,,,,,,,,,,,,,,,,,,,,,,,,,,,,,,,,,,,,0,0,0,0,1,,"[""k""]",[1.1789999999999736],3,"[""k"",""space""]","[1.1788000001906767,1.6124999999999545]",,,,,,,,,,
,,,,483661,001,2023-08-02_24h09.00.905,fluency,2022.2.4,Win32,60.3682463,,,,,,,,,,,,,,,,,,,,,,,1,3,img/B03_01.jpg,MF,Press J if the face is FEMALE and K if the face is MALE, ,KJ,,,,,,,,,,,,,,,,,,,,,,,,,,,,,,,,6,1.1991,,,,,,,,,,,,,,0,39,39,23,1,,,,,,,,,,,,,space,0.5676,,,,,,,,
,,,,483661,001,2023-08-02_24h09.00.905,fluency,2022.2.4,Win32,60.3682463,,,,,,,,,,,,,,,,,,,,,,,3,1,img/B01_03.jpg,MF,Press J if the face is FEMALE and K if the face is MALE, ,KJ,,,,,,,,,,,,,,,,,,,,,,,,,,,,,,,,,,,,,,,,,,,,,,468.0234,0,40,40,3,1,109,0,0,0,0,1,98,,,,,,,,,,,,,,,
,,,,483661,001,2023-08-02_24h09.00.905,fluency,2022.2.4,Win32,60.3682463,,,,,,,,,,,,,,,,,,,,,,,,,,,,,,,,,,,,,,,,,,,,,,,,,,,,,,,,,,,,,,,,,,,,,,,,,,,,,,,,,,0,0,0,0,1,,"[""k""]",[1.3244999999999436],3,"[""k"",""space""]","[1.3245000000000573,1.7241000001430393]",,,,,,,,,,
,,,,483661,001,2023-08-02_24h09.00.905,fluency,2022.2.4,Win32,60.3682463,,,,,,,,,,,,,,,,,,,,,,,3,1,img/B01_03.jpg,MF,Press J if the face is FEMALE and K if the face is MALE, ,KJ,,,,,,,,,,,,,,,,,,,,,,,,,,,,,,,,6,1.5582,,,,,,,,,,,,,,0,40,40,3,1,,,,,,,,,,,,,space,0.7524,,,,,,,,
,,,,483661,001,2023-08-02_24h09.00.905,fluency,2022.2.4,Win32,60.3682463,,,,,,,,,,,,,,,,,,,,,,,7,3,img/B03_07.jpg,MF,Press J if the face is FEMALE and K if the face is MALE, ,KJ,,,,,,,,,,,,,,,,,,,,,,,,,,,,,,,,,,,,,,,,,,,,,,475.3893,0,41,41,29,1,109,0,0,0,0,1,98,,,,,,,,,,,,,,,
,,,,483661,001,2023-08-02_24h09.00.905,fluency,2022.2.4,Win32,60.3682463,,,,,,,,,,,,,,,,,,,,,,,,,,,,,,,,,,,,,,,,,,,,,,,,,,,,,,,,,,,,,,,,,,,,,,,,,,,,,,,,,,0,0,0,0,1,,"[""j""]",[1.3421000001430912],3,"[""j"",""space""]","[1.341900000095393,1.8765999999045562]",,,,,,,,,,
,,,,483661,001,2023-08-02_24h09.00.905,fluency,2022.2.4,Win32,60.3682463,,,,,,,,,,,,,,,,,,,,,,,7,3,img/B03_07.jpg,MF,Press J if the face is FEMALE and K if the face is MALE, ,KJ,,,,,,,,,,,,,,,,,,,,,,,,,,,,,,,,7,1.3976,,,,,,,,,,,,,,0,41,41,29,1,,,,,,,,,,,,,space,0.7362,,,,,,,,
,,,,483661,001,2023-08-02_24h09.00.905,fluency,2022.2.4,Win32,60.3682463,,,,,,,,,,,,,,,,,,,,,,,9,3,img/B03_09.jpg,MF,Press J if the face is FEMALE and K if the face is MALE, ,KJ,,,,,,,,,,,,,,,,,,,,,,,,,,,,,,,,,,,,,,,,,,,,,,481.584,0,42,42,31,1,109,0,0,0,0,1,98,,,,,,,,,,,,,,,
,,,,483661,001,2023-08-02_24h09.00.905,fluency,2022.2.4,Win32,60.3682463,,,,,,,,,,,,,,,,,,,,,,,,,,,,,,,,,,,,,,,,,,,,,,,,,,,,,,,,,,,,,,,,,,,,,,,,,,,,,,,,,,0,0,0,0,1,,"[""j""]",[1.5782999999522644],3,"[""j"",""space""]","[1.578400000095371,2.0951000001430202]",,,,,,,,,,
,,,,483661,001,2023-08-02_24h09.00.905,fluency,2022.2.4,Win32,60.3682463,,,,,,,,,,,,,,,,,,,,,,,9,3,img/B03_09.jpg,MF,Press J if the face is FEMALE and K if the face is MALE, ,KJ,,,,,,,,,,,,,,,,,,,,,,,,,,,,,,,,6,1.5726,,,,,,,,,,,,,,0,42,42,31,1,,,,,,,,,,,,,space,1.7341,,,,,,,,
,,,,483661,001,2023-08-02_24h09.00.905,fluency,2022.2.4,Win32,60.3682463,,,,,,,,,,,,,,,,,,,,,,,4,10,img/B10_04.jpg,MF,Press J if the face is FEMALE and K if the face is MALE, ,KJ,,,,,,,,,,,,,,,,,,,,,,,,,,,,,,,,,,,,,,,,,,,,,,489.9555,0,43,43,103,1,109,0,0,0,0,1,98,,,,,,,,,,,,,,,
,,,,483661,001,2023-08-02_24h09.00.905,fluency,2022.2.4,Win32,60.3682463,,,,,,,,,,,,,,,,,,,,,,,,,,,,,,,,,,,,,,,,,,,,,,,,,,,,,,,,,,,,,,,,,,,,,,,,,,,,,,,,,,0,0,0,0,1,,"[""k""]",[1.3211000001430193],3,"[""k""]",[1.3210000000000264],,,,,,,,,,
,,,,483661,001,2023-08-02_24h09.00.905,fluency,2022.2.4,Win32,60.3682463,,,,,,,,,,,,,,,,,,,,,,,4,10,img/B10_04.jpg,MF,Press J if the face is FEMALE and K if the face is MALE, ,KJ,,,,,,,,,,,,,,,,,,,,,,,,,,,,,,,,7,1.3669,,,,,,,,,,,,,,0,43,43,103,1,,,,,,,,,,,,,space,0.518,,,,,,,,
,,,,483661,001,2023-08-02_24h09.00.905,fluency,2022.2.4,Win32,60.3682463,,,,,,,,,,,,,,,,,,,,,,,4,7,img/B07_04.jpg,MF,Press J if the face is FEMALE and K if the face is MALE, ,KJ,,,,,,,,,,,,,,,,,,,,,,,,,,,,,,,,,,,,,,,,,,,,,,496.9237,0,44,44,70,1,109,0,0,0,0,1,98,,,,,,,,,,,,,,,
,,,,483661,001,2023-08-02_24h09.00.905,fluency,2022.2.4,Win32,60.3682463,,,,,,,,,,,,,,,,,,,,,,,,,,,,,,,,,,,,,,,,,,,,,,,,,,,,,,,,,,,,,,,,,,,,,,,,,,,,,,,,,,0,0,0,0,1,,"[""k""]",[1.4112999999523481],3,"[""k"",""space""]","[1.411400000095341,2.048000000000002]",,,,,,,,,,
,,,,483661,001,2023-08-02_24h09.00.905,fluency,2022.2.4,Win32,60.3682463,,,,,,,,,,,,,,,,,,,,,,,4,7,img/B07_04.jpg,MF,Press J if the face is FEMALE and K if the face is MALE, ,KJ,,,,,,,,,,,,,,,,,,,,,,,,,,,,,,,,6,0.4719,,,,,,,,,,,,,,0,44,44,70,1,,,,,,,,,,,,,space,0.9857,,,,,,,,
,,,,483661,001,2023-08-02_24h09.00.905,fluency,2022.2.4,Win32,60.3682463,,,,,,,,,,,,,,,,,,,,,,,0,10,img/B10_00.jpg,MF,Press J if the face is FEMALE and K if the face is MALE, ,KJ,,,,,,,,,,,,,,,,,,,,,,,,,,,,,,,,,,,,,,,,,,,,,,502.4834,0,45,45,99,1,109,0,0,0,0,1,98,,,,,,,,,,,,,,,
,,,,483661,001,2023-08-02_24h09.00.905,fluency,2022.2.4,Win32,60.3682463,,,,,,,,,,,,,,,,,,,,,,,,,,,,,,,,,,,,,,,,,,,,,,,,,,,,,,,,,,,,,,,,,,,,,,,,,,,,,,,,,,0,0,0,0,1,,"[""j""]",[1.2775000000000318],3,"[""j"",""space""]","[1.2773999998569252,1.796599999904629]",,,,,,,,,,
,,,,483661,001,2023-08-02_24h09.00.905,fluency,2022.2.4,Win32,60.3682463,,,,,,,,,,,,,,,,,,,,,,,0,10,img/B10_00.jpg,MF,Press J if the face is FEMALE and K if the face is MALE, ,KJ,,,,,,,,,,,,,,,,,,,,,,,,,,,,,,,,7,2.2901,,,,,,,,,,,,,,0,45,45,99,1,,,,,,,,,,,,,space,0.9849,,,,,,,,
,,,,483661,001,2023-08-02_24h09.00.905,fluency,2022.2.4,Win32,60.3682463,,,,,,,,,,,,,,,,,,,,,,,3,4,img/B04_03.jpg,MF,Press J if the face is FEMALE and K if the face is MALE, ,KJ,,,,,,,,,,,,,,,,,,,,,,,,,,,,,,,,,,,,,,,,,,,,,,509.8064,0,46,46,36,1,109,0,0,0,0,1,98,,,,,,,,,,,,,,,
,,,,483661,001,2023-08-02_24h09.00.905,fluency,2022.2.4,Win32,60.3682463,,,,,,,,,,,,,,,,,,,,,,,,,,,,,,,,,,,,,,,,,,,,,,,,,,,,,,,,,,,,,,,,,,,,,,,,,,,,,,,,,,0,0,0,0,1,,"[""j"",""k""]","[1.8047999999522517,2.7887000000476974]",3,"[""j"",""k""]","[1.80470000004766,2.7886000001431057]",,,,,,,,,,
,,,,483661,001,2023-08-02_24h09.00.905,fluency,2022.2.4,Win32,60.3682463,,,,,,,,,,,,,,,,,,,,,,,3,4,img/B04_03.jpg,MF,Press J if the face is FEMALE and K if the face is MALE, ,KJ,,,,,,,,,,,,,,,,,,,,,,,,,,,,,,,,7,1.2025,,,,,,,,,,,,,,0,46,46,36,1,,,,,,,,,,,,,space,3.2853,,,,,,,,
,,,,483661,001,2023-08-02_24h09.00.905,fluency,2022.2.4,Win32,60.3682463,,,,,,,,,,,,,,,,,,,,,,,1,1,img/B01_01.jpg,MF,Press J if the face is FEMALE and K if the face is MALE, ,KJ,,,,,,,,,,,,,,,,,,,,,,,,,,,,,,,,,,,,,,,,,,,,,,518.3642,0,47,47,1,1,109,0,0,0,0,1,98,,,,,,,,,,,,,,,
,,,,483661,001,2023-08-02_24h09.00.905,fluency,2022.2.4,Win32,60.3682463,,,,,,,,,,,,,,,,,,,,,,,,,,,,,,,,,,,,,,,,,,,,,,,,,,,,,,,,,,,,,,,,,,,,,,,,,,,,,,,,,,0,0,0,0,1,,"[""k""]",[1.2097999999522244],3,"[""k""]",[1.2098999998569298],,,,,,,,,,
,,,,483661,001,2023-08-02_24h09.00.905,fluency,2022.2.4,Win32,60.3682463,,,,,,,,,,,,,,,,,,,,,,,1,1,img/B01_01.jpg,MF,Press J if the face is FEMALE and K if the face is MALE, ,KJ,,,,,,,,,,,,,,,,,,,,,,,,,,,,,,,,6,1.6105,,,,,,,,,,,,,,0,47,47,1,1,,,,,,,,,,,,,space,19.9994,,,,,,,,
,,,,483661,001,2023-08-02_24h09.00.905,fluency,2022.2.4,Win32,60.3682463,,,,,,,,,,,,,,,,,,,,,,,6,4,img/B04_06.jpg,MF,Press J if the face is FEMALE and K if the face is MALE, ,KJ,,,,,,,,,,,,,,,,,,,,,,,,,,,,,,,,,,,,,,,,,,,,,,545.0195,0,48,48,39,1,109,0,0,0,0,1,98,,,,,,,,,,,,,,,
,,,,483661,001,2023-08-02_24h09.00.905,fluency,2022.2.4,Win32,60.3682463,,,,,,,,,,,,,,,,,,,,,,,,,,,,,,,,,,,,,,,,,,,,,,,,,,,,,,,,,,,,,,,,,,,,,,,,,,,,,,,,,,0,0,0,0,1,,"[""j""]",[1.0765999999046016],3,"[""j"",""space""]","[1.0765999999046016,2.1079999999999472]",,,,,,,,,,
,,,,483661,001,2023-08-02_24h09.00.905,fluency,2022.2.4,Win32,60.3682463,,,,,,,,,,,,,,,,,,,,,,,6,4,img/B04_06.jpg,MF,Press J if the face is FEMALE and K if the face is MALE, ,KJ,,,,,,,,,,,,,,,,,,,,,,,,,,,,,,,,6,0.7266,,,,,,,,,,,,,,0,48,48,39,1,,,,,,,,,,,,,space,0.7175,,,,,,,,
,,,,483661,001,2023-08-02_24h09.00.905,fluency,2022.2.4,Win32,60.3682463,,,,,,,,,,,,,,,,,,,,,,,4,2,img/B02_04.jpg,MF,Press J if the face is FEMALE and K if the face is MALE, ,KJ,,,,,,,,,,,,,,,,,,,,,,,,,,,,,,,,,,,,,,,,,,,,,,551.5357,0,49,49,15,1,109,0,0,0,0,1,98,,,,,,,,,,,,,,,
,,,,483661,001,2023-08-02_24h09.00.905,fluency,2022.2.4,Win32,60.3682463,,,,,,,,,,,,,,,,,,,,,,,,,,,,,,,,,,,,,,,,,,,,,,,,,,,,,,,,,,,,,,,,,,,,,,,,,,,,,,,,,,0,0,0,0,1,,"[""j""]",[1.342999999999961],3,"[""j""]",[1.3429000000953693],,,,,,,,,,
,,,,483661,001,2023-08-02_24h09.00.905,fluency,2022.2.4,Win32,60.3682463,,,,,,,,,,,,,,,,,,,,,,,4,2,img/B02_04.jpg,MF,Press J if the face is FEMALE and K if the face is MALE, ,KJ,,,,,,,,,,,,,,,,,,,,,,,,,,,,,,,,6,0.8466,,,,,,,,,,,,,,0,49,49,15,1,,,,,,,,,,,,,space,0.4788,,,,,,,,
,,,,483661,001,2023-08-02_24h09.00.905,fluency,2022.2.4,Win32,60.3682463,,,,,,,,,,,,,,,,,,,,,,,3,3,img/B03_03.jpg,MF,Press J if the face is FEMALE and K if the face is MALE, ,KJ,,,,,,,,,,,,,,,,,,,,,,,,,,,,,,,,,,,,,,,,,,,,,,557.9024,0,50,50,25,1,109,0,0,0,0,1,98,,,,,,,,,,,,,,,
,,,,483661,001,2023-08-02_24h09.00.905,fluency,2022.2.4,Win32,60.3682463,,,,,,,,,,,,,,,,,,,,,,,,,,,,,,,,,,,,,,,,,,,,,,,,,,,,,,,,,,,,,,,,,,,,,,,,,,,,,,,,,,0,0,0,0,1,,"[""k""]",[0.8580000000000609],3,"[""k"",""space"",""6""]","[0.8579000000953556,2.274200000047699,2.9076000001430202]",,,,,,,,,,
,,,,483661,001,2023-08-02_24h09.00.905,fluency,2022.2.4,Win32,60.3682463,,,,,,,,,,,,,,,,,,,,,,,3,3,img/B03_03.jpg,MF,Press J if the face is FEMALE and K if the face is MALE, ,KJ,,,,,,,,,,,,,,,,,,,,,,,,,,,,,,,,6,2.6252,,,,,,,,,,,,,,0,50,50,25,1,,,,,,,,,,,,,space,0.9167,,,,,,,,
,,,,483661,001,2023-08-02_24h09.00.905,fluency,2022.2.4,Win32,60.3682463,,,,,,,,,,,,,,,,,,,,,,,6,7,img/B07_06.jpg,MF,Press J if the face is FEMALE and K if the face is MALE, ,KJ,,,,,,,,,,,,,,,,,,,,,,,,,,,,,,,,,,,,,,,,,,,,,,566.5185,0,51,51,72,1,109,0,0,0,0,1,98,,,,,,,,,,,,,,,
,,,,483661,001,2023-08-02_24h09.00.905,fluency,2022.2.4,Win32,60.3682463,,,,,,,,,,,,,,,,,,,,,,,,,,,,,,,,,,,,,,,,,,,,,,,,,,,,,,,,,,,,,,,,,,,,,,,,,,,,,,,,,,0,0,0,0,1,,"[""j""]",[0.908400000095412],3,"[""j"",""space""]","[0.9082999999523054,2.4278999998568906]",,,,,,,,,,
,,,,483661,001,2023-08-02_24h09.00.905,fluency,2022.2.4,Win32,60.3682463,,,,,,,,,,,,,,,,,,,,,,,6,7,img/B07_06.jpg,MF,Press J if the face is FEMALE and K if the face is MALE, ,KJ,,,,,,,,,,,,,,,,,,,,,,,,,,,,,,,,5,0.134,,,,,,,,,,,,,,0,51,51,72,1,,,,,,,,,,,,,space,2.4506,,,,,,,,
,,,,483661,001,2023-08-02_24h09.00.905,fluency,2022.2.4,Win32,60.3682463,,,,,,,,,,,,,,,,,,,,,,,10,1,img/B01_10.jpg,MF,Press J if the face is FEMALE and K if the face is MALE, ,KJ,,,,,,,,,,,,,,,,,,,,,,,,,,,,,,,,,,,,,,,,,,,,,,573.178,0,52,52,10,1,109,0,0,0,0,1,98,,,,,,,,,,,,,,,
,,,,483661,001,2023-08-02_24h09.00.905,fluency,2022.2.4,Win32,60.3682463,,,,,,,,,,,,,,,,,,,,,,,,,,,,,,,,,,,,,,,,,,,,,,,,,,,,,,,,,,,,,,,,,,,,,,,,,,,,,,,,,,0,0,0,0,1,,"[""j""]",[0.9811999998092915],3,"[""j"",""space"",""6""]","[0.9810999999045862,1.564400000095361,2.547099999904617]",,,,,,,,,,
,,,,483661,001,2023-08-02_24h09.00.905,fluency,2022.2.4,Win32,60.3682463,,,,,,,,,,,,,,,,,,,,,,,10,1,img/B01_10.jpg,MF,Press J if the face is FEMALE and K if the face is MALE, ,KJ,,,,,,,,,,,,,,,,,,,,,,,,,,,,,,,,6,0.5819,,,,,,,,,,,,,,0,52,52,10,1,,,,,,,,,,,,,space,0.986,,,,,,,,
,,,,483661,001,2023-08-02_24h09.00.905,fluency,2022.2.4,Win32,60.3682463,,,,,,,,,,,,,,,,,,,,,,,8,9,img/B09_08.jpg,MF,Press J if the face is FEMALE and K if the face is MALE, ,KJ,,,,,,,,,,,,,,,,,,,,,,,,,,,,,,,,,,,,,,,,,,,,,,578.7953,0,53,53,96,1,109,0,0,0,0,1,98,,,,,,,,,,,,,,,
,,,,483661,001,2023-08-02_24h09.00.905,fluency,2022.2.4,Win32,60.3682463,,,,,,,,,,,,,,,,,,,,,,,,,,,,,,,,,,,,,,,,,,,,,,,,,,,,,,,,,,,,,,,,,,,,,,,,,,,,,,,,,,0,0,0,0,1,,"[""j""]",[0.7807000000477728],3,"[""j"",""space"",""6""]","[0.7807000000477728,1.5782999999523781,2.879299999952309]",,,,,,,,,,
,,,,483661,001,2023-08-02_24h09.00.905,fluency,2022.2.4,Win32,60.3682463,,,,,,,,,,,,,,,,,,,,,,,8,9,img/B09_08.jpg,MF,Press J if the face is FEMALE and K if the face is MALE, ,KJ,,,,,,,,,,,,,,,,,,,,,,,,,,,,,,,,6,0.536,,,,,,,,,,,,,,0,53,53,96,1,,,,,,,,,,,,,space,0.5516,,,,,,,,
,,,,483661,001,2023-08-02_24h09.00.905,fluency,2022.2.4,Win32,60.3682463,,,,,,,,,,,,,,,,,,,,,,,4,8,img/B08_04.jpg,MF,Press J if the face is FEMALE and K if the face is MALE, ,KJ,,,,,,,,,,,,,,,,,,,,,,,,,,,,,,,,,,,,,,,,,,,,,,584.9342,0,54,54,81,1,109,0,0,0,0,1,98,,,,,,,,,,,,,,,
,,,,483661,001,2023-08-02_24h09.00.905,fluency,2022.2.4,Win32,60.3682463,,,,,,,,,,,,,,,,,,,,,,,,,,,,,,,,,,,,,,,,,,,,,,,,,,,,,,,,,,,,,,,,,,,,,,,,,,,,,,,,,,0,0,0,0,1,,"[""j""]",[0.9402000000477528],3,"[""j"",""6"",""space"",""6""]","[0.9402999999523445,1.7221000001430866,2.2392999999523227,2.823799999952371]",,,,,,,,,,
,,,,483661,001,2023-08-02_24h09.00.905,fluency,2022.2.4,Win32,60.3682463,,,,,,,,,,,,,,,,,,,,,,,4,8,img/B08_04.jpg,MF,Press J if the face is FEMALE and K if the face is MALE, ,KJ,,,,,,,,,,,,,,,,,,,,,,,,,,,,,,,,6,1.4326,,,,,,,,,,,,,,0,54,54,81,1,,,,,,,,,,,,,space,0.7866,,,,,,,,
,,,,483661,001,2023-08-02_24h09.00.905,fluency,2022.2.4,Win32,60.3682463,,,,,,,,,,,,,,,,,,,,,,,10,3,img/B03_10.jpg,MF,Press J if the face is FEMALE and K if the face is MALE, ,KJ,,,,,,,,,,,,,,,,,,,,,,,,,,,,,,,,,,,,,,,,,,,,,,591.2198,0,55,55,32,1,109,0,0,0,0,1,98,,,,,,,,,,,,,,,
,,,,483661,001,2023-08-02_24h09.00.905,fluency,2022.2.4,Win32,60.3682463,,,,,,,,,,,,,,,,,,,,,,,,,,,,,,,,,,,,,,,,,,,,,,,,,,,,,,,,,,,,,,,,,,,,,,,,,,,,,,,,,,0,0,0,0,1,,"[""j""]",[0.6663000001906312],3,"[""j"",""6"",""space""]","[0.6662999999523436,1.4805000000000064,2.360399999857009]",,,,,,,,,,
,,,,483661,001,2023-08-02_24h09.00.905,fluency,2022.2.4,Win32,60.3682463,,,,,,,,,,,,,,,,,,,,,,,10,3,img/B03_10.jpg,MF,Press J if the face is FEMALE and K if the face is MALE, ,KJ,,,,,,,,,,,,,,,,,,,,,,,,,,,,,,,,6,0.3269,,,,,,,,,,,,,,0,55,55,32,1,,,,,,,,,,,,,space,3.802,,,,,,,,
,,,,483661,001,2023-08-02_24h09.00.905,fluency,2022.2.4,Win32,60.3682463,,,,,,,,,,,,,,,,,,,,,,,0,9,img/B09_00.jpg,MF,Press J if the face is FEMALE and K if the face is MALE, ,KJ,,,,,,,,,,,,,,,,,,,,,,,,,,,,,,,,,,,,,,,,,,,,,,600.4331,0,56,56,88,1,109,0,0,0,0,1,98,,,,,,,,,,,,,,,
,,,,483661,001,2023-08-02_24h09.00.905,fluency,2022.2.4,Win32,60.3682463,,,,,,,,,,,,,,,,,,,,,,,,,,,,,,,,,,,,,,,,,,,,,,,,,,,,,,,,,,,,,,,,,,,,,,,,,,,,,,,,,,0,0,0,0,1,,"[""k""]",[1.0270999999046353],3,"[""k"",""space""]","[1.027200000047742,2.4768999998569825]",,,,,,,,,,
,,,,483661,001,2023-08-02_24h09.00.905,fluency,2022.2.4,Win32,60.3682463,,,,,,,,,,,,,,,,,,,,,,,0,9,img/B09_00.jpg,MF,Press J if the face is FEMALE and K if the face is MALE, ,KJ,,,,,,,,,,,,,,,,,,,,,,,,,,,,,,,,6,0.2033,,,,,,,,,,,,,,0,56,56,88,1,,,,,,,,,,,,,space,0.6856,,,,,,,,
,,,,483661,001,2023-08-02_24h09.00.905,fluency,2022.2.4,Win32,60.3682463,,,,,,,,,,,,,,,,,,,,,,,1,4,img/B04_01.jpg,MF,Press J if the face is FEMALE and K if the face is MALE, ,KJ,,,,,,,,,,,,,,,,,,,,,,,,,,,,,,,,,,,,,,,,,,,,,,606.3836,0,57,57,34,1,109,0,0,0,0,1,98,,,,,,,,,,,,,,,
,,,,483661,001,2023-08-02_24h09.00.905,fluency,2022.2.4,Win32,60.3682463,,,,,,,,,,,,,,,,,,,,,,,,,,,,,,,,,,,,,,,,,,,,,,,,,,,,,,,,,,,,,,,,,,,,,,,,,,,,,,,,,,0,0,0,0,1,,"[""k""]",[1.4545000000000528],3,"[""k""]",[1.4545000000000528],,,,,,,,,,
,,,,483661,001,2023-08-02_24h09.00.905,fluency,2022.2.4,Win32,60.3682463,,,,,,,,,,,,,,,,,,,,,,,1,4,img/B04_01.jpg,MF,Press J if the face is FEMALE and K if the face is MALE, ,KJ,,,,,,,,,,,,,,,,,,,,,,,,,,,,,,,,6,1.7844,,,,,,,,,,,,,,0,57,57,34,1,,,,,,,,,,,,,space,0.851,,,,,,,,
,,,,483661,001,2023-08-02_24h09.00.905,fluency,2022.2.4,Win32,60.3682463,,,,,,,,,,,,,,,,,,,,,,,6,1,img/B01_06.jpg,MF,Press J if the face is FEMALE and K if the face is MALE, ,KJ,,,,,,,,,,,,,,,,,,,,,,,,,,,,,,,,,,,,,,,,,,,,,,613.0832,0,58,58,6,1,109,0,0,0,0,1,98,,,,,,,,,,,,,,,
,,,,483661,001,2023-08-02_24h09.00.905,fluency,2022.2.4,Win32,60.3682463,,,,,,,,,,,,,,,,,,,,,,,6,1,img/B01_06.jpg,MF,Press J if the face is FEMALE and K if the face is MALE, ,KJ,,,,,,,,,,,,,,,,,,,,,,,,,,,,,,,,,,,,,,,,,,,,,,,0,58,58,6,1,109,0,0,0,0,1,98,,,4,,,,,,,0,0,0,0,1,0
