idTextbox.text,welcomeDone.numClicks,welcomeDone.timesOn,welcomeDone.timesOff,participant,session,date,expName,psychopyVersion,OS,frameRate,consent_advance.keys,consent_advance.rt,consent_advance_2.keys,consent_advance_2.rt,consentClick.x,consentClick.y,consentClick.leftButton,consentClick.midButton,consentClick.rightButton,consentClick.time,consentClick.clicked_name,instr_advance_3.keys,instr_advance_3.rt,spec_instr_adv.keys,spec_instr_adv.rt,spec_instr_adv2.keys,spec_instr_adv2.rt,instrLoop.thisRepN,instrLoop.thisTrialN,instrLoop.thisN,instrLoop.thisIndex,instrLoop.ran,steps,fams,face_file,cond,instr,term,key_map,attnKeyResp1.keys,attnKeyResp1.rt,q1.thisRepN,q1.thisTrialN,q1.thisN,q1.thisIndex,q1.ran,attnKeyResp2.keys,attnKeyResp2.rt,q2.thisRepN,q2.thisTrialN,q2.thisN,q2.thisIndex,q2.ran,attnKeyResp3.keys,attnKeyResp3.rt,q3.thisRepN,q3.thisTrialN,q3.thisN,q3.thisIndex,q3.ran,practiceStart.keys,practiceStart.rt,practiceResp.keys,practiceResp.rt,timesRedone,practiceRepeat.thisRepN,practiceRepeat.thisTrialN,practiceRepeat.thisN,practiceRepeat.thisIndex,practiceRepeat.ran,attrRating.keys,attrRating.rt,practiceTrial.thisRepN,practiceTrial.thisTrialN,practiceTrial.thisN,practiceTrial.thisIndex,practiceTrial.ran,key_resp_3.keys,key_resp_3.rt,attnChecker.thisRepN,attnChecker.thisTrialN,attnChecker.thisN,attnChecker.thisIndex,attnChecker.ran,catResp.keys,catResp.rt,catAllKeys.keys,catAllKeys.rt,globalTimesRedone,repeat_loop.thisRepN,repeat_loop.thisTrialN,repeat_loop.thisN,repeat_loop.thisIndex,repeat_loop.ran,contResp.keys,contResp.rt,trials.thisRepN,trials.thisTrialN,trials.thisN,trials.thisIndex,trials.ran,contResp_2.keys,contResp_2.rt,respQ1.response,respQ1.rt,respQ2.response,respQ2.rt,respQ3.response,respQ3.rt,respQ4.response,respQ4.rt,surveyContinue1.numClicks,surveyContinue1.timesOn,surveyContinue1.timesOff,respQ5.response,respQ5.rt,respQ6.response,respQ6.rt,respQ7.response,respQ7.rt,respQ8.response,respQ8.rt,surveyContinue2.numClicks,surveyContinue2.timesOn,surveyContinue2.timesOff,respQ9.response,respQ9.rt,respQ10.response,respQ10.rt,respQ11.response,respQ11.rt,respQ12.response,respQ12.rt,surveyContinue3.numClicks,surveyContinue3.timesOn,surveyContinue3.timesOff,respQ13.response,respQ13.rt,respQ14.response,respQ14.rt,respQ15.response,respQ15.rt,surveyContinue4.numClicks,surveyContinue4.timesOn,surveyContinue4.timesOff,respAge.response,respAge.rt,genderResp1.response,genderResp1.rt,genderResp2.text,demogexitClick.numClicks,demogexitClick.timesOn,demogexitClick.timesOff,textbox.text,openAnswerClick.numClicks,openAnswerClick.timesOn,openAnswerClick.timesOff,debriefEnd.keys,debriefEnd.rt,exitKey.keys,exitKey.rt
5b0d0beed282ff00015b9972,1,[12.135100000000552],[12.135100000000552],550104,001,2023-07-27_19h59.43.176,fluency,2022.2.4,Win32,143.8434983,,,,,,,,,,,,,,,,,,,,,,,,,,,,,,,,,,,,,,,,,,,,,,,,,,,,,,,,,,,,,,,,,,,,,,,,,,,,,,,,,,,,,,,,,,,,,,,,,,,,,,,,,,,,,,,,,,,,,,,,,,,,,,,,,,,,,,,,,,,,,,,,,,,,,,,
,,,,550104,001,2023-07-27_19h59.43.176,fluency,2022.2.4,Win32,143.8434983,space,6.9248,,,,,,,,,,,,,,,,,,,,,,,,,,,,,,,,,,,,,,,,,,,,,,,,,,,,,,,,,,,,,,,,,,,,,,,,,,,,,,,,,,,,,,,,,,,,,,,,,,,,,,,,,,,,,,,,,,,,,,,,,,,,,,,,,,,,,,,,,,,,,,,,,,,,,
,,,,550104,001,2023-07-27_19h59.43.176,fluency,2022.2.4,Win32,143.8434983,,,space,9.5651,,,,,,,,,,,,,,,,,,,,,,,,,,,,,,,,,,,,,,,,,,,,,,,,,,,,,,,,,,,,,,,,,,,,,,,,,,,,,,,,,,,,,,,,,,,,,,,,,,,,,,,,,,,,,,,,,,,,,,,,,,,,,,,,,,,,,,,,,,,,,,,,,,,
,,,,550104,001,2023-07-27_19h59.43.176,fluency,2022.2.4,Win32,143.8434983,,,,,0.312868665,-0.334584499,1,0,0,4.0746,iAgree,,,,,,,,,,,,,,,,,,,,,,,,,,,,,,,,,,,,,,,,,,,,,,,,,,,,,,,,,,,,,,,,,,,,,,,,,,,,,,,,,,,,,,,,,,,,,,,,,,,,,,,,,,,,,,,,,,,,,,,,,,,,,,,,,,,,,,,,,,,,
,,,,550104,001,2023-07-27_19h59.43.176,fluency,2022.2.4,Win32,143.8434983,,,,,,,,,,,,space,12.7846,,,,,,,,,,,,,,,,,,,,,,,,,,,,,,,,,,,,,,,,,,,,,,,,,,,,,,,,,,,,,,,,,,,,,,,,,,,,,,,,,,,,,,,,,,,,,,,,,,,,,,,,,,,,,,,,,,,,,,,,,,,,,,,,,,,,,,,,,,
,,,,550104,001,2023-07-27_19h59.43.176,fluency,2022.2.4,Win32,143.8434983,,,,,,,,,,,,,,space,7.0298,space,2.8007,0,0,0,77,1,0,8,img/B08_00.jpg,CONTROL,Press J as soon as you see a face, ,JK,,,,,,,,,,,,,,,,,,,,,,,,,,,,,,,,,,,,,,,,,,,,,,,,,,,,,,,,,,,,,,,,,,,,,,,,,,,,,,,,,,,,,,,,,,,,,,,,,,,,,,,,,,,,,,,,,,,,,,,,,,
,,,,550104,001,2023-07-27_19h59.43.176,fluency,2022.2.4,Win32,143.8434983,,,,,,,,,,,,,,,,,,,,,,,,,,,,,,c,3.7208,0,0,0,0,1,,,,,,,,,,,,,,,,,,,,,,,,,,,,,,,,,,,,,,,,,,,,,,,,,,,,,,,,,,,,,,,,,,,,,,,,,,,,,,,,,,,,,,,,,,,,,,,,,,,,,,,,,,,,,,,,,,,
,,,,550104,001,2023-07-27_19h59.43.176,fluency,2022.2.4,Win32,143.8434983,,,,,,,,,,,,,,,,,,,,,,,,,,,,,,,,,,,,,a,4.0974,0,0,0,0,1,,,,,,,,,,,,,,,,,,,,,,,,,,,,,,,,,,,,,,,,,,,,,,,,,,,,,,,,,,,,,,,,,,,,,,,,,,,,,,,,,,,,,,,,,,,,,,,,,,,,,,,,,,,,
,,,,550104,001,2023-07-27_19h59.43.176,fluency,2022.2.4,Win32,143.8434983,,,,,,,,,,,,,,,,,,,,,,,,,,,,,,,,,,,,,,,,,,,,c,3.5732,0,0,0,0,1,,,,,,,,,,,,,,,,,,,,,,,,,,,,,,,,,,,,,,,,,,,,,,,,,,,,,,,,,,,,,,,,,,,,,,,,,,,,,,,,,,,,,,,,,,,,,,,,,,,,,
,,,,550104,001,2023-07-27_19h59.43.176,fluency,2022.2.4,Win32,143.8434983,,,,,,,,,,,,,,,,,,,,,,,,,,,,,,,,,,,,,,,,,,,,,,,,,,,space,2.3225,j,0.5291,0,0,0,0,0,1,,,,,,,,,,,,,,,,,,,,,,,,,,,,,,,,,,,,,,,,,,,,,,,,,,,,,,,,,,,,,,,,,,,,,,,,,,,,,,,,,,,,,,,,,,,
,,,,550104,001,2023-07-27_19h59.43.176,fluency,2022.2.4,Win32,143.8434983,,,,,,,,,,,,,,,,,,,,,,,,,,,,,,,,,,,,,,,,,,,,,,,,,,,,,,,,,,,,,6,7.4884,0,0,0,0,1,,,,,,,,,,,,,,,,,,,,,,,,,,,,,,,,,,,,,,,,,,,,,,,,,,,,,,,,,,,,,,,,,,,,,,,,,,,,,,,,,,,,
,,,,550104,001,2023-07-27_19h59.43.176,fluency,2022.2.4,Win32,143.8434983,,,,,,,,,,,,,,,,,,,,,,,,,,,,,,,,,,,,,,,,,,,,,,,,,,,,,,,,,,,,,,,,,,,,space,3.268,0,0,0,0,1,,,,,,,,,,,,,,,,,,,,,,,,,,,,,,,,,,,,,,,,,,,,,,,,,,,,,,,,,,,,,,,,,,,,,,,,,,,,,
,,,,550104,001,2023-07-27_19h59.43.176,fluency,2022.2.4,Win32,143.8434983,,,,,,,,,,,,,,,,,,,,,,,,,,,,,,,,,,,,,,,,,,,,,,,,,,,,,,,,,,,,,,,,,,,,,,,,,,,"[""j""]",[0.8293000000007282],"[""j""]",[0.8293000000007282],0,0,0,0,0,1,,,,,,,,,,,,,,,,,,,,,,,,,,,,,,,,,,,,,,,,,,,,,,,,,,,,,,,,,,,,,,,,,,,
,,,,550104,001,2023-07-27_19h59.43.176,fluency,2022.2.4,Win32,143.8434983,,,,,,,,,,,,,,,,,,,,,,,7,5,img/B05_07.jpg,CONTROL,Press J as soon as you see a face, ,JK,,,,,,,,,,,,,,,,,,,,,,,,,,,,,,,,5,1.6578,,,,,,,,,,,,,,,,,,,,,,,space,3.3056,0,0,0,51,1,,,,,,,,,,,,,,,,,,,,,,,,,,,,,,,,,,,,,,,,,,,,,,,,,,,,,,,,,,,,
,,,,550104,001,2023-07-27_19h59.43.176,fluency,2022.2.4,Win32,143.8434983,,,,,,,,,,,,,,,,,,,,,,,,,,,,,,,,,,,,,,,,,,,,,,,,,,,,,,,,,,,,,,,,,,,,,,,,,,,"[""j""]",[0.27269999999927563],"[""j""]",[0.27269999999927563],0,0,0,0,0,1,,,,,,,,,,,,,,,,,,,,,,,,,,,,,,,,,,,,,,,,,,,,,,,,,,,,,,,,,,,,,,,,,,,
,,,,550104,001,2023-07-27_19h59.43.176,fluency,2022.2.4,Win32,143.8434983,,,,,,,,,,,,,,,,,,,,,,,4,9,img/B09_04.jpg,CONTROL,Press J as soon as you see a face, ,JK,,,,,,,,,,,,,,,,,,,,,,,,,,,,,,,,5,1.0798,,,,,,,,,,,,,,,,,,,,,,,space,2.5162,0,1,1,92,1,,,,,,,,,,,,,,,,,,,,,,,,,,,,,,,,,,,,,,,,,,,,,,,,,,,,,,,,,,,,
,,,,550104,001,2023-07-27_19h59.43.176,fluency,2022.2.4,Win32,143.8434983,,,,,,,,,,,,,,,,,,,,,,,,,,,,,,,,,,,,,,,,,,,,,,,,,,,,,,,,,,,,,,,,,,,,,,,,,,,"[""j""]",[0.6130999999996334],"[""j""]",[0.6131999999992388],0,0,0,0,0,1,,,,,,,,,,,,,,,,,,,,,,,,,,,,,,,,,,,,,,,,,,,,,,,,,,,,,,,,,,,,,,,,,,,
,,,,550104,001,2023-07-27_19h59.43.176,fluency,2022.2.4,Win32,143.8434983,,,,,,,,,,,,,,,,,,,,,,,5,7,img/B07_05.jpg,CONTROL,Press J as soon as you see a face, ,JK,,,,,,,,,,,,,,,,,,,,,,,,,,,,,,,,4,0.5896,,,,,,,,,,,,,,,,,,,,,,,space,1.1474,0,2,2,71,1,,,,,,,,,,,,,,,,,,,,,,,,,,,,,,,,,,,,,,,,,,,,,,,,,,,,,,,,,,,,
,,,,550104,001,2023-07-27_19h59.43.176,fluency,2022.2.4,Win32,143.8434983,,,,,,,,,,,,,,,,,,,,,,,,,,,,,,,,,,,,,,,,,,,,,,,,,,,,,,,,,,,,,,,,,,,,,,,,,,,"[""j""]",[0.8760999999996102],"[""j""]",[0.8760000000000048],0,0,0,0,0,1,,,,,,,,,,,,,,,,,,,,,,,,,,,,,,,,,,,,,,,,,,,,,,,,,,,,,,,,,,,,,,,,,,,
,,,,550104,001,2023-07-27_19h59.43.176,fluency,2022.2.4,Win32,143.8434983,,,,,,,,,,,,,,,,,,,,,,,2,2,img/B02_02.jpg,CONTROL,Press J as soon as you see a face, ,JK,,,,,,,,,,,,,,,,,,,,,,,,,,,,,,,,5,1.4526,,,,,,,,,,,,,,,,,,,,,,,space,1.0821,0,3,3,13,1,,,,,,,,,,,,,,,,,,,,,,,,,,,,,,,,,,,,,,,,,,,,,,,,,,,,,,,,,,,,
,,,,550104,001,2023-07-27_19h59.43.176,fluency,2022.2.4,Win32,143.8434983,,,,,,,,,,,,,,,,,,,,,,,,,,,,,,,,,,,,,,,,,,,,,,,,,,,,,,,,,,,,,,,,,,,,,,,,,,,"[""j""]",[1.0183999999994455],"[""j""]",[1.0183999999994455],0,0,0,0,0,1,,,,,,,,,,,,,,,,,,,,,,,,,,,,,,,,,,,,,,,,,,,,,,,,,,,,,,,,,,,,,,,,,,,
,,,,550104,001,2023-07-27_19h59.43.176,fluency,2022.2.4,Win32,143.8434983,,,,,,,,,,,,,,,,,,,,,,,10,5,img/B05_10.jpg,CONTROL,Press J as soon as you see a face, ,JK,,,,,,,,,,,,,,,,,,,,,,,,,,,,,,,,6,2.0333,,,,,,,,,,,,,,,,,,,,,,,space,0.9326,0,4,4,54,1,,,,,,,,,,,,,,,,,,,,,,,,,,,,,,,,,,,,,,,,,,,,,,,,,,,,,,,,,,,,
,,,,550104,001,2023-07-27_19h59.43.176,fluency,2022.2.4,Win32,143.8434983,,,,,,,,,,,,,,,,,,,,,,,,,,,,,,,,,,,,,,,,,,,,,,,,,,,,,,,,,,,,,,,,,,,,,,,,,,,"[""j""]",[1.0732999999998185],"[""j""]",[1.0732999999998185],0,0,0,0,0,1,,,,,,,,,,,,,,,,,,,,,,,,,,,,,,,,,,,,,,,,,,,,,,,,,,,,,,,,,,,,,,,,,,,
,,,,550104,001,2023-07-27_19h59.43.176,fluency,2022.2.4,Win32,143.8434983,,,,,,,,,,,,,,,,,,,,,,,7,4,img/B04_07.jpg,CONTROL,Press J as soon as you see a face, ,JK,,,,,,,,,,,,,,,,,,,,,,,,,,,,,,,,3,0.3677,,,,,,,,,,,,,,,,,,,,,,,space,0.7372,0,5,5,40,1,,,,,,,,,,,,,,,,,,,,,,,,,,,,,,,,,,,,,,,,,,,,,,,,,,,,,,,,,,,,
,,,,550104,001,2023-07-27_19h59.43.176,fluency,2022.2.4,Win32,143.8434983,,,,,,,,,,,,,,,,,,,,,,,,,,,,,,,,,,,,,,,,,,,,,,,,,,,,,,,,,,,,,,,,,,,,,,,,,,,"[""j""]",[0.3764000000003591],"[""j""]",[0.3762999999998158],0,0,0,0,0,1,,,,,,,,,,,,,,,,,,,,,,,,,,,,,,,,,,,,,,,,,,,,,,,,,,,,,,,,,,,,,,,,,,,
,,,,550104,001,2023-07-27_19h59.43.176,fluency,2022.2.4,Win32,143.8434983,,,,,,,,,,,,,,,,,,,,,,,2,1,img/B01_02.jpg,CONTROL,Press J as soon as you see a face, ,JK,,,,,,,,,,,,,,,,,,,,,,,,,,,,,,,,4,0.3613,,,,,,,,,,,,,,,,,,,,,,,space,0.7804,0,6,6,2,1,,,,,,,,,,,,,,,,,,,,,,,,,,,,,,,,,,,,,,,,,,,,,,,,,,,,,,,,,,,,
,,,,550104,001,2023-07-27_19h59.43.176,fluency,2022.2.4,Win32,143.8434983,,,,,,,,,,,,,,,,,,,,,,,,,,,,,,,,,,,,,,,,,,,,,,,,,,,,,,,,,,,,,,,,,,,,,,,,,,,"[""j""]",[0.25039999999944484],"[""j""]",[0.250299999999811],0,0,0,0,0,1,,,,,,,,,,,,,,,,,,,,,,,,,,,,,,,,,,,,,,,,,,,,,,,,,,,,,,,,,,,,,,,,,,,
,,,,550104,001,2023-07-27_19h59.43.176,fluency,2022.2.4,Win32,143.8434983,,,,,,,,,,,,,,,,,,,,,,,10,4,img/B04_10.jpg,CONTROL,Press J as soon as you see a face, ,JK,,,,,,,,,,,,,,,,,,,,,,,,,,,,,,,,3,0.416,,,,,,,,,,,,,,,,,,,,,,,space,0.592,0,7,7,43,1,,,,,,,,,,,,,,,,,,,,,,,,,,,,,,,,,,,,,,,,,,,,,,,,,,,,,,,,,,,,
,,,,550104,001,2023-07-27_19h59.43.176,fluency,2022.2.4,Win32,143.8434983,,,,,,,,,,,,,,,,,,,,,,,,,,,,,,,,,,,,,,,,,,,,,,,,,,,,,,,,,,,,,,,,,,,,,,,,,,,"[""j""]",[0.5910000000000082],"[""j""]",[0.5910999999996136],0,0,0,0,0,1,,,,,,,,,,,,,,,,,,,,,,,,,,,,,,,,,,,,,,,,,,,,,,,,,,,,,,,,,,,,,,,,,,,
,,,,550104,001,2023-07-27_19h59.43.176,fluency,2022.2.4,Win32,143.8434983,,,,,,,,,,,,,,,,,,,,,,,0,3,img/B03_00.jpg,CONTROL,Press J as soon as you see a face, ,JK,,,,,,,,,,,,,,,,,,,,,,,,,,,,,,,,5,0.954,,,,,,,,,,,,,,,,,,,,,,,space,2.0791,0,8,8,22,1,,,,,,,,,,,,,,,,,,,,,,,,,,,,,,,,,,,,,,,,,,,,,,,,,,,,,,,,,,,,
,,,,550104,001,2023-07-27_19h59.43.176,fluency,2022.2.4,Win32,143.8434983,,,,,,,,,,,,,,,,,,,,,,,,,,,,,,,,,,,,,,,,,,,,,,,,,,,,,,,,,,,,,,,,,,,,,,,,,,,"[""j""]",[0.521299999999826],"[""j""]",[0.5213999999994314],0,0,0,0,0,1,,,,,,,,,,,,,,,,,,,,,,,,,,,,,,,,,,,,,,,,,,,,,,,,,,,,,,,,,,,,,,,,,,,
,,,,550104,001,2023-07-27_19h59.43.176,fluency,2022.2.4,Win32,143.8434983,,,,,,,,,,,,,,,,,,,,,,,0,4,img/B04_00.jpg,CONTROL,Press J as soon as you see a face, ,JK,,,,,,,,,,,,,,,,,,,,,,,,,,,,,,,,3,0.3394,,,,,,,,,,,,,,,,,,,,,,,space,1.4669,0,9,9,33,1,,,,,,,,,,,,,,,,,,,,,,,,,,,,,,,,,,,,,,,,,,,,,,,,,,,,,,,,,,,,
,,,,550104,001,2023-07-27_19h59.43.176,fluency,2022.2.4,Win32,143.8434983,,,,,,,,,,,,,,,,,,,,,,,,,,,,,,,,,,,,,,,,,,,,,,,,,,,,,,,,,,,,,,,,,,,,,,,,,,,"[""j""]",[0.257599999999627],"[""j""]",[0.257599999999627],0,0,0,0,0,1,,,,,,,,,,,,,,,,,,,,,,,,,,,,,,,,,,,,,,,,,,,,,,,,,,,,,,,,,,,,,,,,,,,
,,,,550104,001,2023-07-27_19h59.43.176,fluency,2022.2.4,Win32,143.8434983,,,,,,,,,,,,,,,,,,,,,,,4,3,img/B03_04.jpg,CONTROL,Press J as soon as you see a face, ,JK,,,,,,,,,,,,,,,,,,,,,,,,,,,,,,,,3,0.3061,,,,,,,,,,,,,,,,,,,,,,,space,0.4251,0,10,10,26,1,,,,,,,,,,,,,,,,,,,,,,,,,,,,,,,,,,,,,,,,,,,,,,,,,,,,,,,,,,,,
,,,,550104,001,2023-07-27_19h59.43.176,fluency,2022.2.4,Win32,143.8434983,,,,,,,,,,,,,,,,,,,,,,,,,,,,,,,,,,,,,,,,,,,,,,,,,,,,,,,,,,,,,,,,,,,,,,,,,,,"[""j""]",[0.5008000000007371],"[""j""]",[0.5008000000007371],0,0,0,0,0,1,,,,,,,,,,,,,,,,,,,,,,,,,,,,,,,,,,,,,,,,,,,,,,,,,,,,,,,,,,,,,,,,,,,
,,,,550104,001,2023-07-27_19h59.43.176,fluency,2022.2.4,Win32,143.8434983,,,,,,,,,,,,,,,,,,,,,,,5,8,img/B08_05.jpg,CONTROL,Press J as soon as you see a face, ,JK,,,,,,,,,,,,,,,,,,,,,,,,,,,,,,,,2,0.9598,,,,,,,,,,,,,,,,,,,,,,,space,0.2941,0,11,11,82,1,,,,,,,,,,,,,,,,,,,,,,,,,,,,,,,,,,,,,,,,,,,,,,,,,,,,,,,,,,,,
,,,,550104,001,2023-07-27_19h59.43.176,fluency,2022.2.4,Win32,143.8434983,,,,,,,,,,,,,,,,,,,,,,,,,,,,,,,,,,,,,,,,,,,,,,,,,,,,,,,,,,,,,,,,,,,,,,,,,,,"[""j""]",[0.47940000000036775],"[""j""]",[0.47940000000036775],0,0,0,0,0,1,,,,,,,,,,,,,,,,,,,,,,,,,,,,,,,,,,,,,,,,,,,,,,,,,,,,,,,,,,,,,,,,,,,
,,,,550104,001,2023-07-27_19h59.43.176,fluency,2022.2.4,Win32,143.8434983,,,,,,,,,,,,,,,,,,,,,,,1,1,img/B01_01.jpg,CONTROL,Press J as soon as you see a face, ,JK,,,,,,,,,,,,,,,,,,,,,,,,,,,,,,,,2,0.5701,,,,,,,,,,,,,,,,,,,,,,,space,0.2382,0,12,12,1,1,,,,,,,,,,,,,,,,,,,,,,,,,,,,,,,,,,,,,,,,,,,,,,,,,,,,,,,,,,,,
,,,,550104,001,2023-07-27_19h59.43.176,fluency,2022.2.4,Win32,143.8434983,,,,,,,,,,,,,,,,,,,,,,,,,,,,,,,,,,,,,,,,,,,,,,,,,,,,,,,,,,,,,,,,,,,,,,,,,,,"[""j""]",[0.4044000000003791],"[""j""]",[0.4044000000003791],0,0,0,0,0,1,,,,,,,,,,,,,,,,,,,,,,,,,,,,,,,,,,,,,,,,,,,,,,,,,,,,,,,,,,,,,,,,,,,
,,,,550104,001,2023-07-27_19h59.43.176,fluency,2022.2.4,Win32,143.8434983,,,,,,,,,,,,,,,,,,,,,,,7,6,img/B06_07.jpg,CONTROL,Press J as soon as you see a face, ,JK,,,,,,,,,,,,,,,,,,,,,,,,,,,,,,,,3,0.4437,,,,,,,,,,,,,,,,,,,,,,,space,0.2046,0,13,13,62,1,,,,,,,,,,,,,,,,,,,,,,,,,,,,,,,,,,,,,,,,,,,,,,,,,,,,,,,,,,,,
,,,,550104,001,2023-07-27_19h59.43.176,fluency,2022.2.4,Win32,143.8434983,,,,,,,,,,,,,,,,,,,,,,,,,,,,,,,,,,,,,,,,,,,,,,,,,,,,,,,,,,,,,,,,,,,,,,,,,,,"[""j""]",[0.9861000000005617],"[""j""]",[0.9862000000001672],0,0,0,0,0,1,,,,,,,,,,,,,,,,,,,,,,,,,,,,,,,,,,,,,,,,,,,,,,,,,,,,,,,,,,,,,,,,,,,
,,,,550104,001,2023-07-27_19h59.43.176,fluency,2022.2.4,Win32,143.8434983,,,,,,,,,,,,,,,,,,,,,,,6,2,img/B02_06.jpg,CONTROL,Press J as soon as you see a face, ,JK,,,,,,,,,,,,,,,,,,,,,,,,,,,,,,,,4,0.5272,,,,,,,,,,,,,,,,,,,,,,,space,0.3635,0,14,14,17,1,,,,,,,,,,,,,,,,,,,,,,,,,,,,,,,,,,,,,,,,,,,,,,,,,,,,,,,,,,,,
,,,,550104,001,2023-07-27_19h59.43.176,fluency,2022.2.4,Win32,143.8434983,,,,,,,,,,,,,,,,,,,,,,,,,,,,,,,,,,,,,,,,,,,,,,,,,,,,,,,,,,,,,,,,,,,,,,,,,,,"[""j""]",[0.5567000000001769],"[""j""]",[0.5567000000001769],0,0,0,0,0,1,,,,,,,,,,,,,,,,,,,,,,,,,,,,,,,,,,,,,,,,,,,,,,,,,,,,,,,,,,,,,,,,,,,
,,,,550104,001,2023-07-27_19h59.43.176,fluency,2022.2.4,Win32,143.8434983,,,,,,,,,,,,,,,,,,,,,,,8,4,img/B04_08.jpg,CONTROL,Press J as soon as you see a face, ,JK,,,,,,,,,,,,,,,,,,,,,,,,,,,,,,,,3,0.3747,,,,,,,,,,,,,,,,,,,,,,,space,0.5041,0,15,15,41,1,,,,,,,,,,,,,,,,,,,,,,,,,,,,,,,,,,,,,,,,,,,,,,,,,,,,,,,,,,,,
,,,,550104,001,2023-07-27_19h59.43.176,fluency,2022.2.4,Win32,143.8434983,,,,,,,,,,,,,,,,,,,,,,,,,,,,,,,,,,,,,,,,,,,,,,,,,,,,,,,,,,,,,,,,,,,,,,,,,,,"[""j""]",[1.1564000000003603],"[""j""]",[1.156299999999817],0,0,0,0,0,1,,,,,,,,,,,,,,,,,,,,,,,,,,,,,,,,,,,,,,,,,,,,,,,,,,,,,,,,,,,,,,,,,,,
,,,,550104,001,2023-07-27_19h59.43.176,fluency,2022.2.4,Win32,143.8434983,,,,,,,,,,,,,,,,,,,,,,,9,6,img/B06_09.jpg,CONTROL,Press J as soon as you see a face, ,JK,,,,,,,,,,,,,,,,,,,,,,,,,,,,,,,,3,1.4674,,,,,,,,,,,,,,,,,,,,,,,space,1.7578,0,16,16,64,1,,,,,,,,,,,,,,,,,,,,,,,,,,,,,,,,,,,,,,,,,,,,,,,,,,,,,,,,,,,,
,,,,550104,001,2023-07-27_19h59.43.176,fluency,2022.2.4,Win32,143.8434983,,,,,,,,,,,,,,,,,,,,,,,,,,,,,,,,,,,,,,,,,,,,,,,,,,,,,,,,,,,,,,,,,,,,,,,,,,,"[""j""]",[0.9592999999998142],"[""j""]",[0.9592000000002088],0,0,0,0,0,1,,,,,,,,,,,,,,,,,,,,,,,,,,,,,,,,,,,,,,,,,,,,,,,,,,,,,,,,,,,,,,,,,,,
,,,,550104,001,2023-07-27_19h59.43.176,fluency,2022.2.4,Win32,143.8434983,,,,,,,,,,,,,,,,,,,,,,,2,5,img/B05_02.jpg,CONTROL,Press J as soon as you see a face, ,JK,,,,,,,,,,,,,,,,,,,,,,,,,,,,,,,,3,0.396,,,,,,,,,,,,,,,,,,,,,,,space,0.6566,0,17,17,46,1,,,,,,,,,,,,,,,,,,,,,,,,,,,,,,,,,,,,,,,,,,,,,,,,,,,,,,,,,,,,
,,,,550104,001,2023-07-27_19h59.43.176,fluency,2022.2.4,Win32,143.8434983,,,,,,,,,,,,,,,,,,,,,,,,,,,,,,,,,,,,,,,,,,,,,,,,,,,,,,,,,,,,,,,,,,,,,,,,,,,"[""j""]",[0.9265999999996097],"[""j""]",[0.9266000000005761],0,0,0,0,0,1,,,,,,,,,,,,,,,,,,,,,,,,,,,,,,,,,,,,,,,,,,,,,,,,,,,,,,,,,,,,,,,,,,,
,,,,550104,001,2023-07-27_19h59.43.176,fluency,2022.2.4,Win32,143.8434983,,,,,,,,,,,,,,,,,,,,,,,8,3,img/B03_08.jpg,CONTROL,Press J as soon as you see a face, ,JK,,,,,,,,,,,,,,,,,,,,,,,,,,,,,,,,3,1.6037,,,,,,,,,,,,,,,,,,,,,,,space,1.0977,0,18,18,30,1,,,,,,,,,,,,,,,,,,,,,,,,,,,,,,,,,,,,,,,,,,,,,,,,,,,,,,,,,,,,
,,,,550104,001,2023-07-27_19h59.43.176,fluency,2022.2.4,Win32,143.8434983,,,,,,,,,,,,,,,,,,,,,,,,,,,,,,,,,,,,,,,,,,,,,,,,,,,,,,,,,,,,,,,,,,,,,,,,,,,"[""j""]",[0.2379000000003657],"[""j""]",[0.2379000000003657],0,0,0,0,0,1,,,,,,,,,,,,,,,,,,,,,,,,,,,,,,,,,,,,,,,,,,,,,,,,,,,,,,,,,,,,,,,,,,,
,,,,550104,001,2023-07-27_19h59.43.176,fluency,2022.2.4,Win32,143.8434983,,,,,,,,,,,,,,,,,,,,,,,3,6,img/B06_03.jpg,CONTROL,Press J as soon as you see a face, ,JK,,,,,,,,,,,,,,,,,,,,,,,,,,,,,,,,3,0.2489,,,,,,,,,,,,,,,,,,,,,,,space,3.0983,0,19,19,58,1,,,,,,,,,,,,,,,,,,,,,,,,,,,,,,,,,,,,,,,,,,,,,,,,,,,,,,,,,,,,
,,,,550104,001,2023-07-27_19h59.43.176,fluency,2022.2.4,Win32,143.8434983,,,,,,,,,,,,,,,,,,,,,,,,,,,,,,,,,,,,,,,,,,,,,,,,,,,,,,,,,,,,,,,,,,,,,,,,,,,"[""j""]",[0.5587999999997919],"[""j""]",[0.5587999999997919],0,0,0,0,0,1,,,,,,,,,,,,,,,,,,,,,,,,,,,,,,,,,,,,,,,,,,,,,,,,,,,,,,,,,,,,,,,,,,,
,,,,550104,001,2023-07-27_19h59.43.176,fluency,2022.2.4,Win32,143.8434983,,,,,,,,,,,,,,,,,,,,,,,2,7,img/B07_02.jpg,CONTROL,Press J as soon as you see a face, ,JK,,,,,,,,,,,,,,,,,,,,,,,,,,,,,,,,4,0.3696,,,,,,,,,,,,,,,,,,,,,,,space,0.765,0,20,20,68,1,,,,,,,,,,,,,,,,,,,,,,,,,,,,,,,,,,,,,,,,,,,,,,,,,,,,,,,,,,,,
,,,,550104,001,2023-07-27_19h59.43.176,fluency,2022.2.4,Win32,143.8434983,,,,,,,,,,,,,,,,,,,,,,,,,,,,,,,,,,,,,,,,,,,,,,,,,,,,,,,,,,,,,,,,,,,,,,,,,,,"[""j""]",[0.2582999999998492],"[""j""]",[0.2582999999998492],0,0,0,0,0,1,,,,,,,,,,,,,,,,,,,,,,,,,,,,,,,,,,,,,,,,,,,,,,,,,,,,,,,,,,,,,,,,,,,
,,,,550104,001,2023-07-27_19h59.43.176,fluency,2022.2.4,Win32,143.8434983,,,,,,,,,,,,,,,,,,,,,,,10,9,img/B09_10.jpg,CONTROL,Press J as soon as you see a face, ,JK,,,,,,,,,,,,,,,,,,,,,,,,,,,,,,,,4,0.4445,,,,,,,,,,,,,,,,,,,,,,,space,0.3701,0,21,21,98,1,,,,,,,,,,,,,,,,,,,,,,,,,,,,,,,,,,,,,,,,,,,,,,,,,,,,,,,,,,,,
,,,,550104,001,2023-07-27_19h59.43.176,fluency,2022.2.4,Win32,143.8434983,,,,,,,,,,,,,,,,,,,,,,,,,,,,,,,,,,,,,,,,,,,,,,,,,,,,,,,,,,,,,,,,,,,,,,,,,,,"[""j""]",[0.3692999999998392],"[""j""]",[0.3692999999998392],0,0,0,0,0,1,,,,,,,,,,,,,,,,,,,,,,,,,,,,,,,,,,,,,,,,,,,,,,,,,,,,,,,,,,,,,,,,,,,
,,,,550104,001,2023-07-27_19h59.43.176,fluency,2022.2.4,Win32,143.8434983,,,,,,,,,,,,,,,,,,,,,,,6,1,img/B01_06.jpg,CONTROL,Press J as soon as you see a face, ,JK,,,,,,,,,,,,,,,,,,,,,,,,,,,,,,,,3,0.5436,,,,,,,,,,,,,,,,,,,,,,,space,0.4323,0,22,22,6,1,,,,,,,,,,,,,,,,,,,,,,,,,,,,,,,,,,,,,,,,,,,,,,,,,,,,,,,,,,,,
,,,,550104,001,2023-07-27_19h59.43.176,fluency,2022.2.4,Win32,143.8434983,,,,,,,,,,,,,,,,,,,,,,,,,,,,,,,,,,,,,,,,,,,,,,,,,,,,,,,,,,,,,,,,,,,,,,,,,,,"[""j""]",[0.5499999999999545],"[""j""]",[0.5500000000000114],0,0,0,0,0,1,,,,,,,,,,,,,,,,,,,,,,,,,,,,,,,,,,,,,,,,,,,,,,,,,,,,,,,,,,,,,,,,,,,
,,,,550104,001,2023-07-27_19h59.43.176,fluency,2022.2.4,Win32,143.8434983,,,,,,,,,,,,,,,,,,,,,,,10,10,img/B10_10.jpg,CONTROL,Press J as soon as you see a face, ,JK,,,,,,,,,,,,,,,,,,,,,,,,,,,,,,,,3,0.4133,,,,,,,,,,,,,,,,,,,,,,,space,0.252,0,23,23,109,1,,,,,,,,,,,,,,,,,,,,,,,,,,,,,,,,,,,,,,,,,,,,,,,,,,,,,,,,,,,,
,,,,550104,001,2023-07-27_19h59.43.176,fluency,2022.2.4,Win32,143.8434983,,,,,,,,,,,,,,,,,,,,,,,,,,,,,,,,,,,,,,,,,,,,,,,,,,,,,,,,,,,,,,,,,,,,,,,,,,,"[""j""]",[0.39599999999995816],"[""j""]",[0.39599999999995816],0,0,0,0,0,1,,,,,,,,,,,,,,,,,,,,,,,,,,,,,,,,,,,,,,,,,,,,,,,,,,,,,,,,,,,,,,,,,,,
,,,,550104,001,2023-07-27_19h59.43.176,fluency,2022.2.4,Win32,143.8434983,,,,,,,,,,,,,,,,,,,,,,,4,8,img/B08_04.jpg,CONTROL,Press J as soon as you see a face, ,JK,,,,,,,,,,,,,,,,,,,,,,,,,,,,,,,,3,0.3347,,,,,,,,,,,,,,,,,,,,,,,space,0.2523,0,24,24,81,1,,,,,,,,,,,,,,,,,,,,,,,,,,,,,,,,,,,,,,,,,,,,,,,,,,,,,,,,,,,,
,,,,550104,001,2023-07-27_19h59.43.176,fluency,2022.2.4,Win32,143.8434983,,,,,,,,,,,,,,,,,,,,,,,,,,,,,,,,,,,,,,,,,,,,,,,,,,,,,,,,,,,,,,,,,,,,,,,,,,,"[""j""]",[0.5012999999998442],"[""j""]",[0.5012999999998442],0,0,0,0,0,1,,,,,,,,,,,,,,,,,,,,,,,,,,,,,,,,,,,,,,,,,,,,,,,,,,,,,,,,,,,,,,,,,,,
,,,,550104,001,2023-07-27_19h59.43.176,fluency,2022.2.4,Win32,143.8434983,,,,,,,,,,,,,,,,,,,,,,,3,9,img/B09_03.jpg,CONTROL,Press J as soon as you see a face, ,JK,,,,,,,,,,,,,,,,,,,,,,,,,,,,,,,,4,0.3646,,,,,,,,,,,,,,,,,,,,,,,space,0.2233,0,25,25,91,1,,,,,,,,,,,,,,,,,,,,,,,,,,,,,,,,,,,,,,,,,,,,,,,,,,,,,,,,,,,,
,,,,550104,001,2023-07-27_19h59.43.176,fluency,2022.2.4,Win32,143.8434983,,,,,,,,,,,,,,,,,,,,,,,,,,,,,,,,,,,,,,,,,,,,,,,,,,,,,,,,,,,,,,,,,,,,,,,,,,,"[""j""]",[0.5295999999996184],"[""j""]",[0.5294999999999845],0,0,0,0,0,1,,,,,,,,,,,,,,,,,,,,,,,,,,,,,,,,,,,,,,,,,,,,,,,,,,,,,,,,,,,,,,,,,,,
,,,,550104,001,2023-07-27_19h59.43.176,fluency,2022.2.4,Win32,143.8434983,,,,,,,,,,,,,,,,,,,,,,,4,10,img/B10_04.jpg,CONTROL,Press J as soon as you see a face, ,JK,,,,,,,,,,,,,,,,,,,,,,,,,,,,,,,,5,0.4441,,,,,,,,,,,,,,,,,,,,,,,space,0.4606,0,26,26,103,1,,,,,,,,,,,,,,,,,,,,,,,,,,,,,,,,,,,,,,,,,,,,,,,,,,,,,,,,,,,,
,,,,550104,001,2023-07-27_19h59.43.176,fluency,2022.2.4,Win32,143.8434983,,,,,,,,,,,,,,,,,,,,,,,,,,,,,,,,,,,,,,,,,,,,,,,,,,,,,,,,,,,,,,,,,,,,,,,,,,,"[""j""]",[0.7712000000001922],"[""j""]",[0.7712000000001922],0,0,0,0,0,1,,,,,,,,,,,,,,,,,,,,,,,,,,,,,,,,,,,,,,,,,,,,,,,,,,,,,,,,,,,,,,,,,,,
,,,,550104,001,2023-07-27_19h59.43.176,fluency,2022.2.4,Win32,143.8434983,,,,,,,,,,,,,,,,,,,,,,,0,9,img/B09_00.jpg,CONTROL,Press J as soon as you see a face, ,JK,,,,,,,,,,,,,,,,,,,,,,,,,,,,,,,,3,0.4376,,,,,,,,,,,,,,,,,,,,,,,space,0.3424,0,27,27,88,1,,,,,,,,,,,,,,,,,,,,,,,,,,,,,,,,,,,,,,,,,,,,,,,,,,,,,,,,,,,,
,,,,550104,001,2023-07-27_19h59.43.176,fluency,2022.2.4,Win32,143.8434983,,,,,,,,,,,,,,,,,,,,,,,,,,,,,,,,,,,,,,,,,,,,,,,,,,,,,,,,,,,,,,,,,,,,,,,,,,,"[""j""]",[0.20920000000018035],"[""j""]",[0.20920000000018035],0,0,0,0,0,1,,,,,,,,,,,,,,,,,,,,,,,,,,,,,,,,,,,,,,,,,,,,,,,,,,,,,,,,,,,,,,,,,,,
,,,,550104,001,2023-07-27_19h59.43.176,fluency,2022.2.4,Win32,143.8434983,,,,,,,,,,,,,,,,,,,,,,,8,10,img/B10_08.jpg,CONTROL,Press J as soon as you see a face, ,JK,,,,,,,,,,,,,,,,,,,,,,,,,,,,,,,,4,0.4422,,,,,,,,,,,,,,,,,,,,,,,space,0.2163,0,28,28,107,1,,,,,,,,,,,,,,,,,,,,,,,,,,,,,,,,,,,,,,,,,,,,,,,,,,,,,,,,,,,,
,,,,550104,001,2023-07-27_19h59.43.176,fluency,2022.2.4,Win32,143.8434983,,,,,,,,,,,,,,,,,,,,,,,,,,,,,,,,,,,,,,,,,,,,,,,,,,,,,,,,,,,,,,,,,,,,,,,,,,,"[""j""]",[0.46590000000037435],"[""j""]",[0.465799999999831],0,0,0,0,0,1,,,,,,,,,,,,,,,,,,,,,,,,,,,,,,,,,,,,,,,,,,,,,,,,,,,,,,,,,,,,,,,,,,,
,,,,550104,001,2023-07-27_19h59.43.176,fluency,2022.2.4,Win32,143.8434983,,,,,,,,,,,,,,,,,,,,,,,7,2,img/B02_07.jpg,CONTROL,Press J as soon as you see a face, ,JK,,,,,,,,,,,,,,,,,,,,,,,,,,,,,,,,5,0.3632,,,,,,,,,,,,,,,,,,,,,,,space,0.2026,0,29,29,18,1,,,,,,,,,,,,,,,,,,,,,,,,,,,,,,,,,,,,,,,,,,,,,,,,,,,,,,,,,,,,
,,,,550104,001,2023-07-27_19h59.43.176,fluency,2022.2.4,Win32,143.8434983,,,,,,,,,,,,,,,,,,,,,,,,,,,,,,,,,,,,,,,,,,,,,,,,,,,,,,,,,,,,,,,,,,,,,,,,,,,"[""j""]",[1.083799999999826],"[""j""]",[1.083799999999826],0,0,0,0,0,1,,,,,,,,,,,,,,,,,,,,,,,,,,,,,,,,,,,,,,,,,,,,,,,,,,,,,,,,,,,,,,,,,,,
,,,,550104,001,2023-07-27_19h59.43.176,fluency,2022.2.4,Win32,143.8434983,,,,,,,,,,,,,,,,,,,,,,,7,8,img/B08_07.jpg,CONTROL,Press J as soon as you see a face, ,JK,,,,,,,,,,,,,,,,,,,,,,,,,,,,,,,,4,0.6675,,,,,,,,,,,,,,,,,,,,,,,space,0.3467,0,30,30,84,1,,,,,,,,,,,,,,,,,,,,,,,,,,,,,,,,,,,,,,,,,,,,,,,,,,,,,,,,,,,,
,,,,550104,001,2023-07-27_19h59.43.176,fluency,2022.2.4,Win32,143.8434983,,,,,,,,,,,,,,,,,,,,,,,,,,,,,,,,,,,,,,,,,,,,,,,,,,,,,,,,,,,,,,,,,,,,,,,,,,,"[""j""]",[0.2662999999997737],"[""j""]",[0.2662999999997737],0,0,0,0,0,1,,,,,,,,,,,,,,,,,,,,,,,,,,,,,,,,,,,,,,,,,,,,,,,,,,,,,,,,,,,,,,,,,,,
,,,,550104,001,2023-07-27_19h59.43.176,fluency,2022.2.4,Win32,143.8434983,,,,,,,,,,,,,,,,,,,,,,,5,10,img/B10_05.jpg,CONTROL,Press J as soon as you see a face, ,JK,,,,,,,,,,,,,,,,,,,,,,,,,,,,,,,,2,0.3556,,,,,,,,,,,,,,,,,,,,,,,space,0.8415,0,31,31,104,1,,,,,,,,,,,,,,,,,,,,,,,,,,,,,,,,,,,,,,,,,,,,,,,,,,,,,,,,,,,,
,,,,550104,001,2023-07-27_19h59.43.176,fluency,2022.2.4,Win32,143.8434983,,,,,,,,,,,,,,,,,,,,,,,,,,,,,,,,,,,,,,,,,,,,,,,,,,,,,,,,,,,,,,,,,,,,,,,,,,,"[""j""]",[0.3833999999994262],"[""j""]",[0.38340000000039254],0,0,0,0,0,1,,,,,,,,,,,,,,,,,,,,,,,,,,,,,,,,,,,,,,,,,,,,,,,,,,,,,,,,,,,,,,,,,,,
,,,,550104,001,2023-07-27_19h59.43.176,fluency,2022.2.4,Win32,143.8434983,,,,,,,,,,,,,,,,,,,,,,,9,5,img/B05_09.jpg,CONTROL,Press J as soon as you see a face, ,JK,,,,,,,,,,,,,,,,,,,,,,,,,,,,,,,,4,0.4894,,,,,,,,,,,,,,,,,,,,,,,space,0.231,0,32,32,53,1,,,,,,,,,,,,,,,,,,,,,,,,,,,,,,,,,,,,,,,,,,,,,,,,,,,,,,,,,,,,
,,,,550104,001,2023-07-27_19h59.43.176,fluency,2022.2.4,Win32,143.8434983,,,,,,,,,,,,,,,,,,,,,,,,,,,,,,,,,,,,,,,,,,,,,,,,,,,,,,,,,,,,,,,,,,,,,,,,,,,"[""j""]",[0.24650000000002592],"[""j""]",[0.24650000000002592],0,0,0,0,0,1,,,,,,,,,,,,,,,,,,,,,,,,,,,,,,,,,,,,,,,,,,,,,,,,,,,,,,,,,,,,,,,,,,,
,,,,550104,001,2023-07-27_19h59.43.176,fluency,2022.2.4,Win32,143.8434983,,,,,,,,,,,,,,,,,,,,,,,1,8,img/B08_01.jpg,CONTROL,Press J as soon as you see a face, ,JK,,,,,,,,,,,,,,,,,,,,,,,,,,,,,,,,5,0.3861,,,,,,,,,,,,,,,,,,,,,,,space,1.6028,0,33,33,78,1,,,,,,,,,,,,,,,,,,,,,,,,,,,,,,,,,,,,,,,,,,,,,,,,,,,,,,,,,,,,
,,,,550104,001,2023-07-27_19h59.43.176,fluency,2022.2.4,Win32,143.8434983,,,,,,,,,,,,,,,,,,,,,,,,,,,,,,,,,,,,,,,,,,,,,,,,,,,,,,,,,,,,,,,,,,,,,,,,,,,"[""j""]",[0.4142999999997983],"[""j""]",[0.41420000000016444],0,0,0,0,0,1,,,,,,,,,,,,,,,,,,,,,,,,,,,,,,,,,,,,,,,,,,,,,,,,,,,,,,,,,,,,,,,,,,,
,,,,550104,001,2023-07-27_19h59.43.176,fluency,2022.2.4,Win32,143.8434983,,,,,,,,,,,,,,,,,,,,,,,1,7,img/B07_01.jpg,CONTROL,Press J as soon as you see a face, ,JK,,,,,,,,,,,,,,,,,,,,,,,,,,,,,,,,4,0.8672,,,,,,,,,,,,,,,,,,,,,,,space,0.522,0,34,34,67,1,,,,,,,,,,,,,,,,,,,,,,,,,,,,,,,,,,,,,,,,,,,,,,,,,,,,,,,,,,,,
,,,,550104,001,2023-07-27_19h59.43.176,fluency,2022.2.4,Win32,143.8434983,,,,,,,,,,,,,,,,,,,,,,,,,,,,,,,,,,,,,,,,,,,,,,,,,,,,,,,,,,,,,,,,,,,,,,,,,,,"[""j""]",[0.20900000000000318],"[""j""]",[0.20890000000036935],0,0,0,0,0,1,,,,,,,,,,,,,,,,,,,,,,,,,,,,,,,,,,,,,,,,,,,,,,,,,,,,,,,,,,,,,,,,,,,
,,,,550104,001,2023-07-27_19h59.43.176,fluency,2022.2.4,Win32,143.8434983,,,,,,,,,,,,,,,,,,,,,,,0,6,img/B06_00.jpg,CONTROL,Press J as soon as you see a face, ,JK,,,,,,,,,,,,,,,,,,,,,,,,,,,,,,,,2,0.8672,,,,,,,,,,,,,,,,,,,,,,,space,0.4245,0,35,35,55,1,,,,,,,,,,,,,,,,,,,,,,,,,,,,,,,,,,,,,,,,,,,,,,,,,,,,,,,,,,,,
,,,,550104,001,2023-07-27_19h59.43.176,fluency,2022.2.4,Win32,143.8434983,,,,,,,,,,,,,,,,,,,,,,,,,,,,,,,,,,,,,,,,,,,,,,,,,,,,,,,,,,,,,,,,,,,,,,,,,,,"[""j""]",[0.208599999999592],"[""j""]",[0.208500000000015],0,0,0,0,0,1,,,,,,,,,,,,,,,,,,,,,,,,,,,,,,,,,,,,,,,,,,,,,,,,,,,,,,,,,,,,,,,,,,,
,,,,550104,001,2023-07-27_19h59.43.176,fluency,2022.2.4,Win32,143.8434983,,,,,,,,,,,,,,,,,,,,,,,6,4,img/B04_06.jpg,CONTROL,Press J as soon as you see a face, ,JK,,,,,,,,,,,,,,,,,,,,,,,,,,,,,,,,3,0.4522,,,,,,,,,,,,,,,,,,,,,,,space,0.4803,0,36,36,39,1,,,,,,,,,,,,,,,,,,,,,,,,,,,,,,,,,,,,,,,,,,,,,,,,,,,,,,,,,,,,
,,,,550104,001,2023-07-27_19h59.43.176,fluency,2022.2.4,Win32,143.8434983,,,,,,,,,,,,,,,,,,,,,,,,,,,,,,,,,,,,,,,,,,,,,,,,,,,,,,,,,,,,,,,,,,,,,,,,,,,"[""j"",""j""]","[0.7535000000000309,0.9815999999996166]","[""j"",""j""]","[0.7534000000003971,0.9814999999999827]",0,0,0,0,0,1,,,,,,,,,,,,,,,,,,,,,,,,,,,,,,,,,,,,,,,,,,,,,,,,,,,,,,,,,,,,,,,,,,,
,,,,550104,001,2023-07-27_19h59.43.176,fluency,2022.2.4,Win32,143.8434983,,,,,,,,,,,,,,,,,,,,,,,3,10,img/B10_03.jpg,CONTROL,Press J as soon as you see a face, ,JK,,,,,,,,,,,,,,,,,,,,,,,,,,,,,,,,4,0.9801,,,,,,,,,,,,,,,,,,,,,,,space,0.4952,0,37,37,102,1,,,,,,,,,,,,,,,,,,,,,,,,,,,,,,,,,,,,,,,,,,,,,,,,,,,,,,,,,,,,
,,,,550104,001,2023-07-27_19h59.43.176,fluency,2022.2.4,Win32,143.8434983,,,,,,,,,,,,,,,,,,,,,,,,,,,,,,,,,,,,,,,,,,,,,,,,,,,,,,,,,,,,,,,,,,,,,,,,,,,"[""j""]",[0.9662999999998192],"[""j""]",[0.9662000000001854],0,0,0,0,0,1,,,,,,,,,,,,,,,,,,,,,,,,,,,,,,,,,,,,,,,,,,,,,,,,,,,,,,,,,,,,,,,,,,,
,,,,550104,001,2023-07-27_19h59.43.176,fluency,2022.2.4,Win32,143.8434983,,,,,,,,,,,,,,,,,,,,,,,10,7,img/B07_10.jpg,CONTROL,Press J as soon as you see a face, ,JK,,,,,,,,,,,,,,,,,,,,,,,,,,,,,,,,6,0.462,,,,,,,,,,,,,,,,,,,,,,,space,0.5578,0,38,38,76,1,,,,,,,,,,,,,,,,,,,,,,,,,,,,,,,,,,,,,,,,,,,,,,,,,,,,,,,,,,,,
,,,,550104,001,2023-07-27_19h59.43.176,fluency,2022.2.4,Win32,143.8434983,,,,,,,,,,,,,,,,,,,,,,,,,,,,,,,,,,,,,,,,,,,,,,,,,,,,,,,,,,,,,,,,,,,,,,,,,,,"[""j""]",[0.20920000000018035],"[""j""]",[0.20920000000018035],0,0,0,0,0,1,,,,,,,,,,,,,,,,,,,,,,,,,,,,,,,,,,,,,,,,,,,,,,,,,,,,,,,,,,,,,,,,,,,
,,,,550104,001,2023-07-27_19h59.43.176,fluency,2022.2.4,Win32,143.8434983,,,,,,,,,,,,,,,,,,,,,,,10,3,img/B03_10.jpg,CONTROL,Press J as soon as you see a face, ,JK,,,,,,,,,,,,,,,,,,,,,,,,,,,,,,,,5,0.3498,,,,,,,,,,,,,,,,,,,,,,,space,0.3628,0,39,39,32,1,,,,,,,,,,,,,,,,,,,,,,,,,,,,,,,,,,,,,,,,,,,,,,,,,,,,,,,,,,,,
,,,,550104,001,2023-07-27_19h59.43.176,fluency,2022.2.4,Win32,143.8434983,,,,,,,,,,,,,,,,,,,,,,,,,,,,,,,,,,,,,,,,,,,,,,,,,,,,,,,,,,,,,,,,,,,,,,,,,,,"[""j""]",[0.27059999999966067],"[""j""]",[0.27059999999966067],0,0,0,0,0,1,,,,,,,,,,,,,,,,,,,,,,,,,,,,,,,,,,,,,,,,,,,,,,,,,,,,,,,,,,,,,,,,,,,
,,,,550104,001,2023-07-27_19h59.43.176,fluency,2022.2.4,Win32,143.8434983,,,,,,,,,,,,,,,,,,,,,,,9,2,img/B02_09.jpg,CONTROL,Press J as soon as you see a face, ,JK,,,,,,,,,,,,,,,,,,,,,,,,,,,,,,,,4,0.351,,,,,,,,,,,,,,,,,,,,,,,space,0.2814,0,40,40,20,1,,,,,,,,,,,,,,,,,,,,,,,,,,,,,,,,,,,,,,,,,,,,,,,,,,,,,,,,,,,,
,,,,550104,001,2023-07-27_19h59.43.176,fluency,2022.2.4,Win32,143.8434983,,,,,,,,,,,,,,,,,,,,,,,,,,,,,,,,,,,,,,,,,,,,,,,,,,,,,,,,,,,,,,,,,,,,,,,,,,,"[""j""]",[0.8238000000007446],"[""j""]",[0.8237000000002013],0,0,0,0,0,1,,,,,,,,,,,,,,,,,,,,,,,,,,,,,,,,,,,,,,,,,,,,,,,,,,,,,,,,,,,,,,,,,,,
,,,,550104,001,2023-07-27_19h59.43.176,fluency,2022.2.4,Win32,143.8434983,,,,,,,,,,,,,,,,,,,,,,,5,1,img/B01_05.jpg,CONTROL,Press J as soon as you see a face, ,JK,,,,,,,,,,,,,,,,,,,,,,,,,,,,,,,,3,0.2934,,,,,,,,,,,,,,,,,,,,,,,space,0.4945,0,41,41,5,1,,,,,,,,,,,,,,,,,,,,,,,,,,,,,,,,,,,,,,,,,,,,,,,,,,,,,,,,,,,,
,,,,550104,001,2023-07-27_19h59.43.176,fluency,2022.2.4,Win32,143.8434983,,,,,,,,,,,,,,,,,,,,,,,,,,,,,,,,,,,,,,,,,,,,,,,,,,,,,,,,,,,,,,,,,,,,,,,,,,,"[""j""]",[0.4049000000003389],"[""j""]",[0.40480000000070504],0,0,0,0,0,1,,,,,,,,,,,,,,,,,,,,,,,,,,,,,,,,,,,,,,,,,,,,,,,,,,,,,,,,,,,,,,,,,,,
,,,,550104,001,2023-07-27_19h59.43.176,fluency,2022.2.4,Win32,143.8434983,,,,,,,,,,,,,,,,,,,,,,,0,8,img/B08_00.jpg,CONTROL,Press J as soon as you see a face, ,JK,,,,,,,,,,,,,,,,,,,,,,,,,,,,,,,,4,0.4681,,,,,,,,,,,,,,,,,,,,,,,space,0.223,0,42,42,77,1,,,,,,,,,,,,,,,,,,,,,,,,,,,,,,,,,,,,,,,,,,,,,,,,,,,,,,,,,,,,
,,,,550104,001,2023-07-27_19h59.43.176,fluency,2022.2.4,Win32,143.8434983,,,,,,,,,,,,,,,,,,,,,,,,,,,,,,,,,,,,,,,,,,,,,,,,,,,,,,,,,,,,,,,,,,,,,,,,,,,"[""j""]",[0.459199999999214],"[""j""]",[0.4590000000000032],0,0,0,0,0,1,,,,,,,,,,,,,,,,,,,,,,,,,,,,,,,,,,,,,,,,,,,,,,,,,,,,,,,,,,,,,,,,,,,
,,,,550104,001,2023-07-27_19h59.43.176,fluency,2022.2.4,Win32,143.8434983,,,,,,,,,,,,,,,,,,,,,,,5,3,img/B03_05.jpg,CONTROL,Press J as soon as you see a face, ,JK,,,,,,,,,,,,,,,,,,,,,,,,,,,,,,,,3,0.2837,,,,,,,,,,,,,,,,,,,,,,,space,0.2239,0,43,43,27,1,,,,,,,,,,,,,,,,,,,,,,,,,,,,,,,,,,,,,,,,,,,,,,,,,,,,,,,,,,,,
,,,,550104,001,2023-07-27_19h59.43.176,fluency,2022.2.4,Win32,143.8434983,,,,,,,,,,,,,,,,,,,,,,,,,,,,,,,,,,,,,,,,,,,,,,,,,,,,,,,,,,,,,,,,,,,,,,,,,,,"[""j""]",[0.22270000000020218],"[""j""]",[0.22270000000020218],0,0,0,0,0,1,,,,,,,,,,,,,,,,,,,,,,,,,,,,,,,,,,,,,,,,,,,,,,,,,,,,,,,,,,,,,,,,,,,
,,,,550104,001,2023-07-27_19h59.43.176,fluency,2022.2.4,Win32,143.8434983,,,,,,,,,,,,,,,,,,,,,,,6,8,img/B08_06.jpg,CONTROL,Press J as soon as you see a face, ,JK,,,,,,,,,,,,,,,,,,,,,,,,,,,,,,,,3,0.2653,,,,,,,,,,,,,,,,,,,,,,,space,0.2709,0,44,44,83,1,,,,,,,,,,,,,,,,,,,,,,,,,,,,,,,,,,,,,,,,,,,,,,,,,,,,,,,,,,,,
,,,,550104,001,2023-07-27_19h59.43.176,fluency,2022.2.4,Win32,143.8434983,,,,,,,,,,,,,,,,,,,,,,,,,,,,,,,,,,,,,,,,,,,,,,,,,,,,,,,,,,,,,,,,,,,,,,,,,,,"[""j""]",[0.18799999999998818],"[""j""]",[0.18799999999998818],0,0,0,0,0,1,,,,,,,,,,,,,,,,,,,,,,,,,,,,,,,,,,,,,,,,,,,,,,,,,,,,,,,,,,,,,,,,,,,
,,,,550104,001,2023-07-27_19h59.43.176,fluency,2022.2.4,Win32,143.8434983,,,,,,,,,,,,,,,,,,,,,,,3,1,img/B01_03.jpg,CONTROL,Press J as soon as you see a face, ,JK,,,,,,,,,,,,,,,,,,,,,,,,,,,,,,,,2,0.6755,,,,,,,,,,,,,,,,,,,,,,,space,0.2742,0,45,45,3,1,,,,,,,,,,,,,,,,,,,,,,,,,,,,,,,,,,,,,,,,,,,,,,,,,,,,,,,,,,,,
,,,,550104,001,2023-07-27_19h59.43.176,fluency,2022.2.4,Win32,143.8434983,,,,,,,,,,,,,,,,,,,,,,,,,,,,,,,,,,,,,,,,,,,,,,,,,,,,,,,,,,,,,,,,,,,,,,,,,,,"[""j""]",[0.5287000000001854],"[""j""]",[0.5287000000001854],0,0,0,0,0,1,,,,,,,,,,,,,,,,,,,,,,,,,,,,,,,,,,,,,,,,,,,,,,,,,,,,,,,,,,,,,,,,,,,
,,,,550104,001,2023-07-27_19h59.43.176,fluency,2022.2.4,Win32,143.8434983,,,,,,,,,,,,,,,,,,,,,,,1,9,img/B09_01.jpg,CONTROL,Press J as soon as you see a face, ,JK,,,,,,,,,,,,,,,,,,,,,,,,,,,,,,,,3,0.3488,,,,,,,,,,,,,,,,,,,,,,,space,0.2095,0,46,46,89,1,,,,,,,,,,,,,,,,,,,,,,,,,,,,,,,,,,,,,,,,,,,,,,,,,,,,,,,,,,,,
,,,,550104,001,2023-07-27_19h59.43.176,fluency,2022.2.4,Win32,143.8434983,,,,,,,,,,,,,,,,,,,,,,,,,,,,,,,,,,,,,,,,,,,,,,,,,,,,,,,,,,,,,,,,,,,,,,,,,,,"[""j""]",[0.465599999999597],"[""j""]",[0.46549999999996317],0,0,0,0,0,1,,,,,,,,,,,,,,,,,,,,,,,,,,,,,,,,,,,,,,,,,,,,,,,,,,,,,,,,,,,,,,,,,,,
,,,,550104,001,2023-07-27_19h59.43.176,fluency,2022.2.4,Win32,143.8434983,,,,,,,,,,,,,,,,,,,,,,,9,3,img/B03_09.jpg,CONTROL,Press J as soon as you see a face, ,JK,,,,,,,,,,,,,,,,,,,,,,,,,,,,,,,,5,11.0185,,,,,,,,,,,,,,,,,,,,,,,space,1.2553,0,47,47,31,1,,,,,,,,,,,,,,,,,,,,,,,,,,,,,,,,,,,,,,,,,,,,,,,,,,,,,,,,,,,,
,,,,550104,001,2023-07-27_19h59.43.176,fluency,2022.2.4,Win32,143.8434983,,,,,,,,,,,,,,,,,,,,,,,,,,,,,,,,,,,,,,,,,,,,,,,,,,,,,,,,,,,,,,,,,,,,,,,,,,,,,"[""4"",""5"",""5"",""4""]","[1.097500000000025,1.4022999999997978,1.7507000000001653,2.729400000000396]",0,0,0,0,0,1,,,,,,,,,,,,,,,,,,,,,,,,,,,,,,,,,,,,,,,,,,,,,,,,,,,,,,,,,,,,,,,,,,,
,,,,550104,001,2023-07-27_19h59.43.176,fluency,2022.2.4,Win32,143.8434983,,,,,,,,,,,,,,,,,,,,,,,4,1,img/B01_04.jpg,CONTROL,Press J as soon as you see a face, ,JK,,,,,,,,,,,,,,,,,,,,,,,,,,,,,,,,5,0.0691,,,,,,,,,,,,,,,,,,,,,,,space,0.7724,0,48,48,4,1,,,,,,,,,,,,,,,,,,,,,,,,,,,,,,,,,,,,,,,,,,,,,,,,,,,,,,,,,,,,
,,,,550104,001,2023-07-27_19h59.43.176,fluency,2022.2.4,Win32,143.8434983,,,,,,,,,,,,,,,,,,,,,,,,,,,,,,,,,,,,,,,,,,,,,,,,,,,,,,,,,,,,,,,,,,,,,,,,,,,"[""j""]",[0.6672999999997842],"[""j"",""5""]","[0.6671999999992408,0.8611999999992577]",0,0,0,0,0,1,,,,,,,,,,,,,,,,,,,,,,,,,,,,,,,,,,,,,,,,,,,,,,,,,,,,,,,,,,,,,,,,,,,
,,,,550104,001,2023-07-27_19h59.43.176,fluency,2022.2.4,Win32,143.8434983,,,,,,,,,,,,,,,,,,,,,,,6,9,img/B09_06.jpg,CONTROL,Press J as soon as you see a face, ,JK,,,,,,,,,,,,,,,,,,,,,,,,,,,,,,,,5,0.4341,,,,,,,,,,,,,,,,,,,,,,,space,0.4873,0,49,49,94,1,,,,,,,,,,,,,,,,,,,,,,,,,,,,,,,,,,,,,,,,,,,,,,,,,,,,,,,,,,,,
,,,,550104,001,2023-07-27_19h59.43.176,fluency,2022.2.4,Win32,143.8434983,,,,,,,,,,,,,,,,,,,,,,,,,,,,,,,,,,,,,,,,,,,,,,,,,,,,,,,,,,,,,,,,,,,,,,,,,,,"[""j""]",[0.4749000000003889],"[""j"",""5""]","[0.4749000000003889,0.7934999999999945]",0,0,0,0,0,1,,,,,,,,,,,,,,,,,,,,,,,,,,,,,,,,,,,,,,,,,,,,,,,,,,,,,,,,,,,,,,,,,,,
,,,,550104,001,2023-07-27_19h59.43.176,fluency,2022.2.4,Win32,143.8434983,,,,,,,,,,,,,,,,,,,,,,,8,9,img/B09_08.jpg,CONTROL,Press J as soon as you see a face, ,JK,,,,,,,,,,,,,,,,,,,,,,,,,,,,,,,,5,0.4186,,,,,,,,,,,,,,,,,,,,,,,space,0.5919,0,50,50,96,1,,,,,,,,,,,,,,,,,,,,,,,,,,,,,,,,,,,,,,,,,,,,,,,,,,,,,,,,,,,,
,,,,550104,001,2023-07-27_19h59.43.176,fluency,2022.2.4,Win32,143.8434983,,,,,,,,,,,,,,,,,,,,,,,,,,,,,,,,,,,,,,,,,,,,,,,,,,,,,,,,,,,,,,,,,,,,,,,,,,,"[""j""]",[0.5222000000001685],"[""j""]",[0.5221000000005915],0,0,0,0,0,1,,,,,,,,,,,,,,,,,,,,,,,,,,,,,,,,,,,,,,,,,,,,,,,,,,,,,,,,,,,,,,,,,,,
,,,,550104,001,2023-07-27_19h59.43.176,fluency,2022.2.4,Win32,143.8434983,,,,,,,,,,,,,,,,,,,,,,,0,2,img/B02_00.jpg,CONTROL,Press J as soon as you see a face, ,JK,,,,,,,,,,,,,,,,,,,,,,,,,,,,,,,,2,0.3848,,,,,,,,,,,,,,,,,,,,,,,space,0.383,0,51,51,11,1,,,,,,,,,,,,,,,,,,,,,,,,,,,,,,,,,,,,,,,,,,,,,,,,,,,,,,,,,,,,
,,,,550104,001,2023-07-27_19h59.43.176,fluency,2022.2.4,Win32,143.8434983,,,,,,,,,,,,,,,,,,,,,,,,,,,,,,,,,,,,,,,,,,,,,,,,,,,,,,,,,,,,,,,,,,,,,,,,,,,"[""j""]",[0.403599999999642],"[""j""]",[0.4035000000000082],0,0,0,0,0,1,,,,,,,,,,,,,,,,,,,,,,,,,,,,,,,,,,,,,,,,,,,,,,,,,,,,,,,,,,,,,,,,,,,
,,,,550104,001,2023-07-27_19h59.43.176,fluency,2022.2.4,Win32,143.8434983,,,,,,,,,,,,,,,,,,,,,,,7,10,img/B10_07.jpg,CONTROL,Press J as soon as you see a face, ,JK,,,,,,,,,,,,,,,,,,,,,,,,,,,,,,,,4,0.3837,,,,,,,,,,,,,,,,,,,,,,,space,0.4254,0,52,52,106,1,,,,,,,,,,,,,,,,,,,,,,,,,,,,,,,,,,,,,,,,,,,,,,,,,,,,,,,,,,,,
,,,,550104,001,2023-07-27_19h59.43.176,fluency,2022.2.4,Win32,143.8434983,,,,,,,,,,,,,,,,,,,,,,,,,,,,,,,,,,,,,,,,,,,,,,,,,,,,,,,,,,,,,,,,,,,,,,,,,,,"[""j""]",[0.7862999999998124],"[""j""]",[0.7862000000002354],0,0,0,0,0,1,,,,,,,,,,,,,,,,,,,,,,,,,,,,,,,,,,,,,,,,,,,,,,,,,,,,,,,,,,,,,,,,,,,
,,,,550104,001,2023-07-27_19h59.43.176,fluency,2022.2.4,Win32,143.8434983,,,,,,,,,,,,,,,,,,,,,,,7,9,img/B09_07.jpg,CONTROL,Press J as soon as you see a face, ,JK,,,,,,,,,,,,,,,,,,,,,,,,,,,,,,,,5,4.7154,,,,,,,,,,,,,,,,,,,,,,,space,0.5425,0,53,53,95,1,,,,,,,,,,,,,,,,,,,,,,,,,,,,,,,,,,,,,,,,,,,,,,,,,,,,,,,,,,,,
,,,,550104,001,2023-07-27_19h59.43.176,fluency,2022.2.4,Win32,143.8434983,,,,,,,,,,,,,,,,,,,,,,,,,,,,,,,,,,,,,,,,,,,,,,,,,,,,,,,,,,,,,,,,,,,,,,,,,,,"[""j""]",[0.27190000000041437],"[""j""]",[0.271899999999448],0,0,0,0,0,1,,,,,,,,,,,,,,,,,,,,,,,,,,,,,,,,,,,,,,,,,,,,,,,,,,,,,,,,,,,,,,,,,,,
,,,,550104,001,2023-07-27_19h59.43.176,fluency,2022.2.4,Win32,143.8434983,,,,,,,,,,,,,,,,,,,,,,,0,7,img/B07_00.jpg,CONTROL,Press J as soon as you see a face, ,JK,,,,,,,,,,,,,,,,,,,,,,,,,,,,,,,,5,0.8478,,,,,,,,,,,,,,,,,,,,,,,space,0.4262,0,54,54,66,1,,,,,,,,,,,,,,,,,,,,,,,,,,,,,,,,,,,,,,,,,,,,,,,,,,,,,,,,,,,,
,,,,550104,001,2023-07-27_19h59.43.176,fluency,2022.2.4,Win32,143.8434983,,,,,,,,,,,,,,,,,,,,,,,,,,,,,,,,,,,,,,,,,,,,,,,,,,,,,,,,,,,,,,,,,,,,,,,,,,,"[""j""]",[1.612399999999468],"[""j""]",[1.6122999999998342],0,0,0,0,0,1,,,,,,,,,,,,,,,,,,,,,,,,,,,,,,,,,,,,,,,,,,,,,,,,,,,,,,,,,,,,,,,,,,,
,,,,550104,001,2023-07-27_19h59.43.176,fluency,2022.2.4,Win32,143.8434983,,,,,,,,,,,,,,,,,,,,,,,3,7,img/B07_03.jpg,CONTROL,Press J as soon as you see a face, ,JK,,,,,,,,,,,,,,,,,,,,,,,,,,,,,,,,5,0.3554,,,,,,,,,,,,,,,,,,,,,,,space,0.329,0,55,55,69,1,,,,,,,,,,,,,,,,,,,,,,,,,,,,,,,,,,,,,,,,,,,,,,,,,,,,,,,,,,,,
,,,,550104,001,2023-07-27_19h59.43.176,fluency,2022.2.4,Win32,143.8434983,,,,,,,,,,,,,,,,,,,,,,,,,,,,,,,,,,,,,,,,,,,,,,,,,,,,,,,,,,,,,,,,,,,,,,,,,,,"[""j""]",[0.27979999999979555],"[""j""]",[0.2797000000001617],0,0,0,0,0,1,,,,,,,,,,,,,,,,,,,,,,,,,,,,,,,,,,,,,,,,,,,,,,,,,,,,,,,,,,,,,,,,,,,
,,,,550104,001,2023-07-27_19h59.43.176,fluency,2022.2.4,Win32,143.8434983,,,,,,,,,,,,,,,,,,,,,,,10,1,img/B01_10.jpg,CONTROL,Press J as soon as you see a face, ,JK,,,,,,,,,,,,,,,,,,,,,,,,,,,,,,,,5,0.3089,,,,,,,,,,,,,,,,,,,,,,,space,0.6475,0,56,56,10,1,,,,,,,,,,,,,,,,,,,,,,,,,,,,,,,,,,,,,,,,,,,,,,,,,,,,,,,,,,,,
,,,,550104,001,2023-07-27_19h59.43.176,fluency,2022.2.4,Win32,143.8434983,,,,,,,,,,,,,,,,,,,,,,,,,,,,,,,,,,,,,,,,,,,,,,,,,,,,,,,,,,,,,,,,,,,,,,,,,,,"[""j""]",[0.21729999999979555],"[""j""]",[0.2172000000001617],0,0,0,0,0,1,,,,,,,,,,,,,,,,,,,,,,,,,,,,,,,,,,,,,,,,,,,,,,,,,,,,,,,,,,,,,,,,,,,
,,,,550104,001,2023-07-27_19h59.43.176,fluency,2022.2.4,Win32,143.8434983,,,,,,,,,,,,,,,,,,,,,,,1,2,img/B02_01.jpg,CONTROL,Press J as soon as you see a face, ,JK,,,,,,,,,,,,,,,,,,,,,,,,,,,,,,,,3,0.265,,,,,,,,,,,,,,,,,,,,,,,space,0.2438,0,57,57,12,1,,,,,,,,,,,,,,,,,,,,,,,,,,,,,,,,,,,,,,,,,,,,,,,,,,,,,,,,,,,,
,,,,550104,001,2023-07-27_19h59.43.176,fluency,2022.2.4,Win32,143.8434983,,,,,,,,,,,,,,,,,,,,,,,,,,,,,,,,,,,,,,,,,,,,,,,,,,,,,,,,,,,,,,,,,,,,,,,,,,,"[""j""]",[0.2370000000000232],"[""j""]",[0.2370000000000232],0,0,0,0,0,1,,,,,,,,,,,,,,,,,,,,,,,,,,,,,,,,,,,,,,,,,,,,,,,,,,,,,,,,,,,,,,,,,,,
,,,,550104,001,2023-07-27_19h59.43.176,fluency,2022.2.4,Win32,143.8434983,,,,,,,,,,,,,,,,,,,,,,,3,5,img/B05_03.jpg,CONTROL,Press J as soon as you see a face, ,JK,,,,,,,,,,,,,,,,,,,,,,,,,,,,,,,,2,0.1471,,,,,,,,,,,,,,,,,,,,,,,space,0.3138,0,58,58,47,1,,,,,,,,,,,,,,,,,,,,,,,,,,,,,,,,,,,,,,,,,,,,,,,,,,,,,,,,,,,,
,,,,550104,001,2023-07-27_19h59.43.176,fluency,2022.2.4,Win32,143.8434983,,,,,,,,,,,,,,,,,,,,,,,,,,,,,,,,,,,,,,,,,,,,,,,,,,,,,,,,,,,,,,,,,,,,,,,,,,,"[""j""]",[0.22450000000003456],"[""j""]",[0.22450000000003456],0,0,0,0,0,1,,,,,,,,,,,,,,,,,,,,,,,,,,,,,,,,,,,,,,,,,,,,,,,,,,,,,,,,,,,,,,,,,,,
,,,,550104,001,2023-07-27_19h59.43.176,fluency,2022.2.4,Win32,143.8434983,,,,,,,,,,,,,,,,,,,,,,,2,8,img/B08_02.jpg,CONTROL,Press J as soon as you see a face, ,JK,,,,,,,,,,,,,,,,,,,,,,,,,,,,,,,,5,0.2404,,,,,,,,,,,,,,,,,,,,,,,space,0.2709,0,59,59,79,1,,,,,,,,,,,,,,,,,,,,,,,,,,,,,,,,,,,,,,,,,,,,,,,,,,,,,,,,,,,,
,,,,550104,001,2023-07-27_19h59.43.176,fluency,2022.2.4,Win32,143.8434983,,,,,,,,,,,,,,,,,,,,,,,,,,,,,,,,,,,,,,,,,,,,,,,,,,,,,,,,,,,,,,,,,,,,,,,,,,,"[""j""]",[0.375899999999433],"[""j""]",[0.3757999999997992],0,0,0,0,0,1,,,,,,,,,,,,,,,,,,,,,,,,,,,,,,,,,,,,,,,,,,,,,,,,,,,,,,,,,,,,,,,,,,,
,,,,550104,001,2023-07-27_19h59.43.176,fluency,2022.2.4,Win32,143.8434983,,,,,,,,,,,,,,,,,,,,,,,10,8,img/B08_10.jpg,CONTROL,Press J as soon as you see a face, ,JK,,,,,,,,,,,,,,,,,,,,,,,,,,,,,,,,3,0.238,,,,,,,,,,,,,,,,,,,,,,,space,0.307,0,60,60,87,1,,,,,,,,,,,,,,,,,,,,,,,,,,,,,,,,,,,,,,,,,,,,,,,,,,,,,,,,,,,,
,,,,550104,001,2023-07-27_19h59.43.176,fluency,2022.2.4,Win32,143.8434983,,,,,,,,,,,,,,,,,,,,,,,,,,,,,,,,,,,,,,,,,,,,,,,,,,,,,,,,,,,,,,,,,,,,,,,,,,,"[""j""]",[0.2602000000001681],"[""j""]",[0.2602000000001681],0,0,0,0,0,1,,,,,,,,,,,,,,,,,,,,,,,,,,,,,,,,,,,,,,,,,,,,,,,,,,,,,,,,,,,,,,,,,,,
,,,,550104,001,2023-07-27_19h59.43.176,fluency,2022.2.4,Win32,143.8434983,,,,,,,,,,,,,,,,,,,,,,,5,2,img/B02_05.jpg,CONTROL,Press J as soon as you see a face, ,JK,,,,,,,,,,,,,,,,,,,,,,,,,,,,,,,,3,0.2595,,,,,,,,,,,,,,,,,,,,,,,space,0.24,0,61,61,16,1,,,,,,,,,,,,,,,,,,,,,,,,,,,,,,,,,,,,,,,,,,,,,,,,,,,,,,,,,,,,
,,,,550104,001,2023-07-27_19h59.43.176,fluency,2022.2.4,Win32,143.8434983,,,,,,,,,,,,,,,,,,,,,,,,,,,,,,,,,,,,,,,,,,,,,,,,,,,,,,,,,,,,,,,,,,,,,,,,,,,"[""j""]",[0.2245999999995547],"[""j""]",[0.22469999999918855],0,0,0,0,0,1,,,,,,,,,,,,,,,,,,,,,,,,,,,,,,,,,,,,,,,,,,,,,,,,,,,,,,,,,,,,,,,,,,,
,,,,550104,001,2023-07-27_19h59.43.176,fluency,2022.2.4,Win32,143.8434983,,,,,,,,,,,,,,,,,,,,,,,0,10,img/B10_00.jpg,CONTROL,Press J as soon as you see a face, ,JK,,,,,,,,,,,,,,,,,,,,,,,,,,,,,,,,3,0.3344,,,,,,,,,,,,,,,,,,,,,,,space,0.2188,0,62,62,99,1,,,,,,,,,,,,,,,,,,,,,,,,,,,,,,,,,,,,,,,,,,,,,,,,,,,,,,,,,,,,
,,,,550104,001,2023-07-27_19h59.43.176,fluency,2022.2.4,Win32,143.8434983,,,,,,,,,,,,,,,,,,,,,,,,,,,,,,,,,,,,,,,,,,,,,,,,,,,,,,,,,,,,,,,,,,,,,,,,,,,"[""j""]",[0.6144000000003871],"[""j""]",[0.6142999999998437],0,0,0,0,0,1,,,,,,,,,,,,,,,,,,,,,,,,,,,,,,,,,,,,,,,,,,,,,,,,,,,,,,,,,,,,,,,,,,,
,,,,550104,001,2023-07-27_19h59.43.176,fluency,2022.2.4,Win32,143.8434983,,,,,,,,,,,,,,,,,,,,,,,5,6,img/B06_05.jpg,CONTROL,Press J as soon as you see a face, ,JK,,,,,,,,,,,,,,,,,,,,,,,,,,,,,,,,2,0.5817,,,,,,,,,,,,,,,,,,,,,,,space,0.205,0,63,63,60,1,,,,,,,,,,,,,,,,,,,,,,,,,,,,,,,,,,,,,,,,,,,,,,,,,,,,,,,,,,,,
,,,,550104,001,2023-07-27_19h59.43.176,fluency,2022.2.4,Win32,143.8434983,,,,,,,,,,,,,,,,,,,,,,,,,,,,,,,,,,,,,,,,,,,,,,,,,,,,,,,,,,,,,,,,,,,,,,,,,,,"[""j""]",[0.2955999999995811],"[""j""]",[0.2955999999995811],0,0,0,0,0,1,,,,,,,,,,,,,,,,,,,,,,,,,,,,,,,,,,,,,,,,,,,,,,,,,,,,,,,,,,,,,,,,,,,
,,,,550104,001,2023-07-27_19h59.43.176,fluency,2022.2.4,Win32,143.8434983,,,,,,,,,,,,,,,,,,,,,,,6,5,img/B05_06.jpg,CONTROL,Press J as soon as you see a face, ,JK,,,,,,,,,,,,,,,,,,,,,,,,,,,,,,,,3,0.4033,,,,,,,,,,,,,,,,,,,,,,,space,0.1538,0,64,64,50,1,,,,,,,,,,,,,,,,,,,,,,,,,,,,,,,,,,,,,,,,,,,,,,,,,,,,,,,,,,,,
,,,,550104,001,2023-07-27_19h59.43.176,fluency,2022.2.4,Win32,143.8434983,,,,,,,,,,,,,,,,,,,,,,,,,,,,,,,,,,,,,,,,,,,,,,,,,,,,,,,,,,,,,,,,,,,,,,,,,,,"[""j""]",[0.25870000000020354],"[""j""]",[0.2585999999996602],0,0,0,0,0,1,,,,,,,,,,,,,,,,,,,,,,,,,,,,,,,,,,,,,,,,,,,,,,,,,,,,,,,,,,,,,,,,,,,
,,,,550104,001,2023-07-27_19h59.43.176,fluency,2022.2.4,Win32,143.8434983,,,,,,,,,,,,,,,,,,,,,,,9,9,img/B09_09.jpg,CONTROL,Press J as soon as you see a face, ,JK,,,,,,,,,,,,,,,,,,,,,,,,,,,,,,,,5,0.4309,,,,,,,,,,,,,,,,,,,,,,,space,0.21,0,65,65,97,1,,,,,,,,,,,,,,,,,,,,,,,,,,,,,,,,,,,,,,,,,,,,,,,,,,,,,,,,,,,,
,,,,550104,001,2023-07-27_19h59.43.176,fluency,2022.2.4,Win32,143.8434983,,,,,,,,,,,,,,,,,,,,,,,,,,,,,,,,,,,,,,,,,,,,,,,,,,,,,,,,,,,,,,,,,,,,,,,,,,,"[""j""]",[0.22980000000075052],"[""j""]",[0.2297000000000935],0,0,0,0,0,1,,,,,,,,,,,,,,,,,,,,,,,,,,,,,,,,,,,,,,,,,,,,,,,,,,,,,,,,,,,,,,,,,,,
,,,,550104,001,2023-07-27_19h59.43.176,fluency,2022.2.4,Win32,143.8434983,,,,,,,,,,,,,,,,,,,,,,,1,3,img/B03_01.jpg,CONTROL,Press J as soon as you see a face, ,JK,,,,,,,,,,,,,,,,,,,,,,,,,,,,,,,,3,0.2719,,,,,,,,,,,,,,,,,,,,,,,space,0.4101,0,66,66,23,1,,,,,,,,,,,,,,,,,,,,,,,,,,,,,,,,,,,,,,,,,,,,,,,,,,,,,,,,,,,,
,,,,550104,001,2023-07-27_19h59.43.176,fluency,2022.2.4,Win32,143.8434983,,,,,,,,,,,,,,,,,,,,,,,,,,,,,,,,,,,,,,,,,,,,,,,,,,,,,,,,,,,,,,,,,,,,,,,,,,,"[""j""]",[0.4861000000005333],"[""j""]",[0.4861000000005333],0,0,0,0,0,1,,,,,,,,,,,,,,,,,,,,,,,,,,,,,,,,,,,,,,,,,,,,,,,,,,,,,,,,,,,,,,,,,,,
,,,,550104,001,2023-07-27_19h59.43.176,fluency,2022.2.4,Win32,143.8434983,,,,,,,,,,,,,,,,,,,,,,,5,9,img/B09_05.jpg,CONTROL,Press J as soon as you see a face, ,JK,,,,,,,,,,,,,,,,,,,,,,,,,,,,,,,,5,0.2933,,,,,,,,,,,,,,,,,,,,,,,space,0.2796,0,67,67,93,1,,,,,,,,,,,,,,,,,,,,,,,,,,,,,,,,,,,,,,,,,,,,,,,,,,,,,,,,,,,,
,,,,550104,001,2023-07-27_19h59.43.176,fluency,2022.2.4,Win32,143.8434983,,,,,,,,,,,,,,,,,,,,,,,,,,,,,,,,,,,,,,,,,,,,,,,,,,,,,,,,,,,,,,,,,,,,,,,,,,,"[""j""]",[0.36320000000023356],"[""j""]",[0.3631000000005997],0,0,0,0,0,1,,,,,,,,,,,,,,,,,,,,,,,,,,,,,,,,,,,,,,,,,,,,,,,,,,,,,,,,,,,,,,,,,,,
,,,,550104,001,2023-07-27_19h59.43.176,fluency,2022.2.4,Win32,143.8434983,,,,,,,,,,,,,,,,,,,,,,,1,6,img/B06_01.jpg,CONTROL,Press J as soon as you see a face, ,JK,,,,,,,,,,,,,,,,,,,,,,,,,,,,,,,,2,0.4312,,,,,,,,,,,,,,,,,,,,,,,space,0.2314,0,68,68,56,1,,,,,,,,,,,,,,,,,,,,,,,,,,,,,,,,,,,,,,,,,,,,,,,,,,,,,,,,,,,,
,,,,550104,001,2023-07-27_19h59.43.176,fluency,2022.2.4,Win32,143.8434983,,,,,,,,,,,,,,,,,,,,,,,,,,,,,,,,,,,,,,,,,,,,,,,,,,,,,,,,,,,,,,,,,,,,,,,,,,,"[""j""]",[0.30779999999981555],"[""j""]",[0.3079000000003589],0,0,0,0,0,1,,,,,,,,,,,,,,,,,,,,,,,,,,,,,,,,,,,,,,,,,,,,,,,,,,,,,,,,,,,,,,,,,,,
,,,,550104,001,2023-07-27_19h59.43.176,fluency,2022.2.4,Win32,143.8434983,,,,,,,,,,,,,,,,,,,,,,,6,6,img/B06_06.jpg,CONTROL,Press J as soon as you see a face, ,JK,,,,,,,,,,,,,,,,,,,,,,,,,,,,,,,,2,0.2682,,,,,,,,,,,,,,,,,,,,,,,space,0.2028,0,69,69,61,1,,,,,,,,,,,,,,,,,,,,,,,,,,,,,,,,,,,,,,,,,,,,,,,,,,,,,,,,,,,,
,,,,550104,001,2023-07-27_19h59.43.176,fluency,2022.2.4,Win32,143.8434983,,,,,,,,,,,,,,,,,,,,,,,,,,,,,,,,,,,,,,,,,,,,,,,,,,,,,,,,,,,,,,,,,,,,,,,,,,,"[""j""]",[0.20420000000012806],"[""j""]",[0.20409999999958472],0,0,0,0,0,1,,,,,,,,,,,,,,,,,,,,,,,,,,,,,,,,,,,,,,,,,,,,,,,,,,,,,,,,,,,,,,,,,,,
,,,,550104,001,2023-07-27_19h59.43.176,fluency,2022.2.4,Win32,143.8434983,,,,,,,,,,,,,,,,,,,,,,,2,9,img/B09_02.jpg,CONTROL,Press J as soon as you see a face, ,JK,,,,,,,,,,,,,,,,,,,,,,,,,,,,,,,,3,0.3914,,,,,,,,,,,,,,,,,,,,,,,space,0.2171,0,70,70,90,1,,,,,,,,,,,,,,,,,,,,,,,,,,,,,,,,,,,,,,,,,,,,,,,,,,,,,,,,,,,,
,,,,550104,001,2023-07-27_19h59.43.176,fluency,2022.2.4,Win32,143.8434983,,,,,,,,,,,,,,,,,,,,,,,,,,,,,,,,,,,,,,,,,,,,,,,,,,,,,,,,,,,,,,,,,,,,,,,,,,,"[""j""]",[1.0908999999994649],"[""space"",""j""]","[0.5354000000004362,1.090799999999831]",0,0,0,0,0,1,,,,,,,,,,,,,,,,,,,,,,,,,,,,,,,,,,,,,,,,,,,,,,,,,,,,,,,,,,,,,,,,,,,
,,,,550104,001,2023-07-27_19h59.43.176,fluency,2022.2.4,Win32,143.8434983,,,,,,,,,,,,,,,,,,,,,,,7,7,img/B07_07.jpg,CONTROL,Press J as soon as you see a face, ,JK,,,,,,,,,,,,,,,,,,,,,,,,,,,,,,,,5,0.4491,,,,,,,,,,,,,,,,,,,,,,,space,0.177,0,71,71,73,1,,,,,,,,,,,,,,,,,,,,,,,,,,,,,,,,,,,,,,,,,,,,,,,,,,,,,,,,,,,,
,,,,550104,001,2023-07-27_19h59.43.176,fluency,2022.2.4,Win32,143.8434983,,,,,,,,,,,,,,,,,,,,,,,,,,,,,,,,,,,,,,,,,,,,,,,,,,,,,,,,,,,,,,,,,,,,,,,,,,,"[""j""]",[0.924099999999612],"[""j""]",[0.9242000000001553],0,0,0,0,0,1,,,,,,,,,,,,,,,,,,,,,,,,,,,,,,,,,,,,,,,,,,,,,,,,,,,,,,,,,,,,,,,,,,,
,,,,550104,001,2023-07-27_19h59.43.176,fluency,2022.2.4,Win32,143.8434983,,,,,,,,,,,,,,,,,,,,,,,9,4,img/B04_09.jpg,CONTROL,Press J as soon as you see a face, ,JK,,,,,,,,,,,,,,,,,,,,,,,,,,,,,,,,2,0.301,,,,,,,,,,,,,,,,,,,,,,,space,0.2109,0,72,72,42,1,,,,,,,,,,,,,,,,,,,,,,,,,,,,,,,,,,,,,,,,,,,,,,,,,,,,,,,,,,,,
,,,,550104,001,2023-07-27_19h59.43.176,fluency,2022.2.4,Win32,143.8434983,,,,,,,,,,,,,,,,,,,,,,,,,,,,,,,,,,,,,,,,,,,,,,,,,,,,,,,,,,,,,,,,,,,,,,,,,,,"[""j""]",[0.2037999999998874],"[""j""]",[0.20370000000025357],0,0,0,0,0,1,,,,,,,,,,,,,,,,,,,,,,,,,,,,,,,,,,,,,,,,,,,,,,,,,,,,,,,,,,,,,,,,,,,
,,,,550104,001,2023-07-27_19h59.43.176,fluency,2022.2.4,Win32,143.8434983,,,,,,,,,,,,,,,,,,,,,,,8,1,img/B01_08.jpg,CONTROL,Press J as soon as you see a face, ,JK,,,,,,,,,,,,,,,,,,,,,,,,,,,,,,,,4,0.3293,,,,,,,,,,,,,,,,,,,,,,,space,0.1964,0,73,73,8,1,,,,,,,,,,,,,,,,,,,,,,,,,,,,,,,,,,,,,,,,,,,,,,,,,,,,,,,,,,,,
,,,,550104,001,2023-07-27_19h59.43.176,fluency,2022.2.4,Win32,143.8434983,,,,,,,,,,,,,,,,,,,,,,,,,,,,,,,,,,,,,,,,,,,,,,,,,,,,,,,,,,,,,,,,,,,,,,,,,,,"[""j""]",[0.23749999999995453],"[""j""]",[0.2374000000003207],0,0,0,0,0,1,,,,,,,,,,,,,,,,,,,,,,,,,,,,,,,,,,,,,,,,,,,,,,,,,,,,,,,,,,,,,,,,,,,
,,,,550104,001,2023-07-27_19h59.43.176,fluency,2022.2.4,Win32,143.8434983,,,,,,,,,,,,,,,,,,,,,,,1,5,img/B05_01.jpg,CONTROL,Press J as soon as you see a face, ,JK,,,,,,,,,,,,,,,,,,,,,,,,,,,,,,,,3,0.3832,,,,,,,,,,,,,,,,,,,,,,,space,0.1331,0,74,74,45,1,,,,,,,,,,,,,,,,,,,,,,,,,,,,,,,,,,,,,,,,,,,,,,,,,,,,,,,,,,,,
,,,,550104,001,2023-07-27_19h59.43.176,fluency,2022.2.4,Win32,143.8434983,,,,,,,,,,,,,,,,,,,,,,,,,,,,,,,,,,,,,,,,,,,,,,,,,,,,,,,,,,,,,,,,,,,,,,,,,,,"[""j""]",[0.22110000000054697],"[""j""]",[0.22109999999963748],0,0,0,0,0,1,,,,,,,,,,,,,,,,,,,,,,,,,,,,,,,,,,,,,,,,,,,,,,,,,,,,,,,,,,,,,,,,,,,
,,,,550104,001,2023-07-27_19h59.43.176,fluency,2022.2.4,Win32,143.8434983,,,,,,,,,,,,,,,,,,,,,,,2,3,img/B03_02.jpg,CONTROL,Press J as soon as you see a face, ,JK,,,,,,,,,,,,,,,,,,,,,,,,,,,,,,,,3,0.2946,,,,,,,,,,,,,,,,,,,,,,,space,0.9251,0,75,75,24,1,,,,,,,,,,,,,,,,,,,,,,,,,,,,,,,,,,,,,,,,,,,,,,,,,,,,,,,,,,,,
,,,,550104,001,2023-07-27_19h59.43.176,fluency,2022.2.4,Win32,143.8434983,,,,,,,,,,,,,,,,,,,,,,,,,,,,,,,,,,,,,,,,,,,,,,,,,,,,,,,,,,,,,,,,,,,,,,,,,,,"[""j""]",[1.2370999999996002],"[""2"",""j"",""2""]","[0.8783999999993739,1.2370999999996002,1.4872000000001435]",0,0,0,0,0,1,,,,,,,,,,,,,,,,,,,,,,,,,,,,,,,,,,,,,,,,,,,,,,,,,,,,,,,,,,,,,,,,,,,
,,,,550104,001,2023-07-27_19h59.43.176,fluency,2022.2.4,Win32,143.8434983,,,,,,,,,,,,,,,,,,,,,,,0,5,img/B05_00.jpg,CONTROL,Press J as soon as you see a face, ,JK,,,,,,,,,,,,,,,,,,,,,,,,,,,,,,,,3,0.4028,,,,,,,,,,,,,,,,,,,,,,,space,0.5576,0,76,76,44,1,,,,,,,,,,,,,,,,,,,,,,,,,,,,,,,,,,,,,,,,,,,,,,,,,,,,,,,,,,,,
,,,,550104,001,2023-07-27_19h59.43.176,fluency,2022.2.4,Win32,143.8434983,,,,,,,,,,,,,,,,,,,,,,,,,,,,,,,,,,,,,,,,,,,,,,,,,,,,,,,,,,,,,,,,,,,,,,,,,,,"[""j""]",[0.51400000000001],"[""j""]",[0.51400000000001],0,0,0,0,0,1,,,,,,,,,,,,,,,,,,,,,,,,,,,,,,,,,,,,,,,,,,,,,,,,,,,,,,,,,,,,,,,,,,,
,,,,550104,001,2023-07-27_19h59.43.176,fluency,2022.2.4,Win32,143.8434983,,,,,,,,,,,,,,,,,,,,,,,1,10,img/B10_01.jpg,CONTROL,Press J as soon as you see a face, ,JK,,,,,,,,,,,,,,,,,,,,,,,,,,,,,,,,4,0.7069,,,,,,,,,,,,,,,,,,,,,,,space,0.8636,0,77,77,100,1,,,,,,,,,,,,,,,,,,,,,,,,,,,,,,,,,,,,,,,,,,,,,,,,,,,,,,,,,,,,
,,,,550104,001,2023-07-27_19h59.43.176,fluency,2022.2.4,Win32,143.8434983,,,,,,,,,,,,,,,,,,,,,,,,,,,,,,,,,,,,,,,,,,,,,,,,,,,,,,,,,,,,,,,,,,,,,,,,,,,"[""j""]",[0.25720000000012533],"[""j""]",[0.257099999999582],0,0,0,0,0,1,,,,,,,,,,,,,,,,,,,,,,,,,,,,,,,,,,,,,,,,,,,,,,,,,,,,,,,,,,,,,,,,,,,
,,,,550104,001,2023-07-27_19h59.43.176,fluency,2022.2.4,Win32,143.8434983,,,,,,,,,,,,,,,,,,,,,,,0,1,img/B01_00.jpg,CONTROL,Press J as soon as you see a face, ,JK,,,,,,,,,,,,,,,,,,,,,,,,,,,,,,,,4,0.486,,,,,,,,,,,,,,,,,,,,,,,space,0.2098,0,78,78,0,1,,,,,,,,,,,,,,,,,,,,,,,,,,,,,,,,,,,,,,,,,,,,,,,,,,,,,,,,,,,,
,,,,550104,001,2023-07-27_19h59.43.176,fluency,2022.2.4,Win32,143.8434983,,,,,,,,,,,,,,,,,,,,,,,,,,,,,,,,,,,,,,,,,,,,,,,,,,,,,,,,,,,,,,,,,,,,,,,,,,,"[""j""]",[0.44849999999996726],"[""j""]",[0.44849999999996726],0,0,0,0,0,1,,,,,,,,,,,,,,,,,,,,,,,,,,,,,,,,,,,,,,,,,,,,,,,,,,,,,,,,,,,,,,,,,,,
,,,,550104,001,2023-07-27_19h59.43.176,fluency,2022.2.4,Win32,143.8434983,,,,,,,,,,,,,,,,,,,,,,,9,1,img/B01_09.jpg,CONTROL,Press J as soon as you see a face, ,JK,,,,,,,,,,,,,,,,,,,,,,,,,,,,,,,,4,0.3007,,,,,,,,,,,,,,,,,,,,,,,space,0.4389,0,79,79,9,1,,,,,,,,,,,,,,,,,,,,,,,,,,,,,,,,,,,,,,,,,,,,,,,,,,,,,,,,,,,,
,,,,550104,001,2023-07-27_19h59.43.176,fluency,2022.2.4,Win32,143.8434983,,,,,,,,,,,,,,,,,,,,,,,,,,,,,,,,,,,,,,,,,,,,,,,,,,,,,,,,,,,,,,,,,,,,,,,,,,,"[""j""]",[0.46760000000062973],"[""j""]",[0.4675000000000864],0,0,0,0,0,1,,,,,,,,,,,,,,,,,,,,,,,,,,,,,,,,,,,,,,,,,,,,,,,,,,,,,,,,,,,,,,,,,,,
,,,,550104,001,2023-07-27_19h59.43.176,fluency,2022.2.4,Win32,143.8434983,,,,,,,,,,,,,,,,,,,,,,,4,5,img/B05_04.jpg,CONTROL,Press J as soon as you see a face, ,JK,,,,,,,,,,,,,,,,,,,,,,,,,,,,,,,,3,0.3742,,,,,,,,,,,,,,,,,,,,,,,space,0.2034,0,80,80,48,1,,,,,,,,,,,,,,,,,,,,,,,,,,,,,,,,,,,,,,,,,,,,,,,,,,,,,,,,,,,,
,,,,550104,001,2023-07-27_19h59.43.176,fluency,2022.2.4,Win32,143.8434983,,,,,,,,,,,,,,,,,,,,,,,,,,,,,,,,,,,,,,,,,,,,,,,,,,,,,,,,,,,,,,,,,,,,,,,,,,,"[""j""]",[0.30690000000038253],"[""j""]",[0.3067999999998392],0,0,0,0,0,1,,,,,,,,,,,,,,,,,,,,,,,,,,,,,,,,,,,,,,,,,,,,,,,,,,,,,,,,,,,,,,,,,,,
,,,,550104,001,2023-07-27_19h59.43.176,fluency,2022.2.4,Win32,143.8434983,,,,,,,,,,,,,,,,,,,,,,,7,1,img/B01_07.jpg,CONTROL,Press J as soon as you see a face, ,JK,,,,,,,,,,,,,,,,,,,,,,,,,,,,,,,,3,0.3062,,,,,,,,,,,,,,,,,,,,,,,space,0.4883,0,81,81,7,1,,,,,,,,,,,,,,,,,,,,,,,,,,,,,,,,,,,,,,,,,,,,,,,,,,,,,,,,,,,,
,,,,550104,001,2023-07-27_19h59.43.176,fluency,2022.2.4,Win32,143.8434983,,,,,,,,,,,,,,,,,,,,,,,,,,,,,,,,,,,,,,,,,,,,,,,,,,,,,,,,,,,,,,,,,,,,,,,,,,,"[""j""]",[0.4467000000001917],"[""j""]",[0.4467000000001917],0,0,0,0,0,1,,,,,,,,,,,,,,,,,,,,,,,,,,,,,,,,,,,,,,,,,,,,,,,,,,,,,,,,,,,,,,,,,,,
,,,,550104,001,2023-07-27_19h59.43.176,fluency,2022.2.4,Win32,143.8434983,,,,,,,,,,,,,,,,,,,,,,,2,10,img/B10_02.jpg,CONTROL,Press J as soon as you see a face, ,JK,,,,,,,,,,,,,,,,,,,,,,,,,,,,,,,,5,0.7031,,,,,,,,,,,,,,,,,,,,,,,space,0.1985,0,82,82,101,1,,,,,,,,,,,,,,,,,,,,,,,,,,,,,,,,,,,,,,,,,,,,,,,,,,,,,,,,,,,,
,,,,550104,001,2023-07-27_19h59.43.176,fluency,2022.2.4,Win32,143.8434983,,,,,,,,,,,,,,,,,,,,,,,,,,,,,,,,,,,,,,,,,,,,,,,,,,,,,,,,,,,,,,,,,,,,,,,,,,,"[""j""]",[0.6675000000000182],"[""j""]",[0.6675000000000182],0,0,0,0,0,1,,,,,,,,,,,,,,,,,,,,,,,,,,,,,,,,,,,,,,,,,,,,,,,,,,,,,,,,,,,,,,,,,,,
,,,,550104,001,2023-07-27_19h59.43.176,fluency,2022.2.4,Win32,143.8434983,,,,,,,,,,,,,,,,,,,,,,,3,8,img/B08_03.jpg,CONTROL,Press J as soon as you see a face, ,JK,,,,,,,,,,,,,,,,,,,,,,,,,,,,,,,,6,0.3243,,,,,,,,,,,,,,,,,,,,,,,space,0.2792,0,83,83,80,1,,,,,,,,,,,,,,,,,,,,,,,,,,,,,,,,,,,,,,,,,,,,,,,,,,,,,,,,,,,,
,,,,550104,001,2023-07-27_19h59.43.176,fluency,2022.2.4,Win32,143.8434983,,,,,,,,,,,,,,,,,,,,,,,,,,,,,,,,,,,,,,,,,,,,,,,,,,,,,,,,,,,,,,,,,,,,,,,,,,,"[""j""]",[0.3909000000003289],"[""j""]",[0.3907000000001517],0,0,0,0,0,1,,,,,,,,,,,,,,,,,,,,,,,,,,,,,,,,,,,,,,,,,,,,,,,,,,,,,,,,,,,,,,,,,,,
,,,,550104,001,2023-07-27_19h59.43.176,fluency,2022.2.4,Win32,143.8434983,,,,,,,,,,,,,,,,,,,,,,,4,2,img/B02_04.jpg,CONTROL,Press J as soon as you see a face, ,JK,,,,,,,,,,,,,,,,,,,,,,,,,,,,,,,,3,0.3153,,,,,,,,,,,,,,,,,,,,,,,space,0.2027,0,84,84,15,1,,,,,,,,,,,,,,,,,,,,,,,,,,,,,,,,,,,,,,,,,,,,,,,,,,,,,,,,,,,,
,,,,550104,001,2023-07-27_19h59.43.176,fluency,2022.2.4,Win32,143.8434983,,,,,,,,,,,,,,,,,,,,,,,,,,,,,,,,,,,,,,,,,,,,,,,,,,,,,,,,,,,,,,,,,,,,,,,,,,,"[""j""]",[0.3561999999992622],"[""j""]",[0.3561999999992622],0,0,0,0,0,1,,,,,,,,,,,,,,,,,,,,,,,,,,,,,,,,,,,,,,,,,,,,,,,,,,,,,,,,,,,,,,,,,,,
,,,,550104,001,2023-07-27_19h59.43.176,fluency,2022.2.4,Win32,143.8434983,,,,,,,,,,,,,,,,,,,,,,,10,2,img/B02_10.jpg,CONTROL,Press J as soon as you see a face, ,JK,,,,,,,,,,,,,,,,,,,,,,,,,,,,,,,,5,0.3615,,,,,,,,,,,,,,,,,,,,,,,space,0.2163,0,85,85,21,1,,,,,,,,,,,,,,,,,,,,,,,,,,,,,,,,,,,,,,,,,,,,,,,,,,,,,,,,,,,,
,,,,550104,001,2023-07-27_19h59.43.176,fluency,2022.2.4,Win32,143.8434983,,,,,,,,,,,,,,,,,,,,,,,,,,,,,,,,,,,,,,,,,,,,,,,,,,,,,,,,,,,,,,,,,,,,,,,,,,,"[""j""]",[0.2590999999995347],"[""j""]",[0.2590999999995347],0,0,0,0,0,1,,,,,,,,,,,,,,,,,,,,,,,,,,,,,,,,,,,,,,,,,,,,,,,,,,,,,,,,,,,,,,,,,,,
,,,,550104,001,2023-07-27_19h59.43.176,fluency,2022.2.4,Win32,143.8434983,,,,,,,,,,,,,,,,,,,,,,,8,7,img/B07_08.jpg,CONTROL,Press J as soon as you see a face, ,JK,,,,,,,,,,,,,,,,,,,,,,,,,,,,,,,,6,0.2922,,,,,,,,,,,,,,,,,,,,,,,space,0.1826,0,86,86,74,1,,,,,,,,,,,,,,,,,,,,,,,,,,,,,,,,,,,,,,,,,,,,,,,,,,,,,,,,,,,,
,,,,550104,001,2023-07-27_19h59.43.176,fluency,2022.2.4,Win32,143.8434983,,,,,,,,,,,,,,,,,,,,,,,,,,,,,,,,,,,,,,,,,,,,,,,,,,,,,,,,,,,,,,,,,,,,,,,,,,,"[""j""]",[0.3061999999993077],"[""j""]",[0.3061999999993077],0,0,0,0,0,1,,,,,,,,,,,,,,,,,,,,,,,,,,,,,,,,,,,,,,,,,,,,,,,,,,,,,,,,,,,,,,,,,,,
,,,,550104,001,2023-07-27_19h59.43.176,fluency,2022.2.4,Win32,143.8434983,,,,,,,,,,,,,,,,,,,,,,,3,4,img/B04_03.jpg,CONTROL,Press J as soon as you see a face, ,JK,,,,,,,,,,,,,,,,,,,,,,,,,,,,,,,,5,0.2349,,,,,,,,,,,,,,,,,,,,,,,space,0.2376,0,87,87,36,1,,,,,,,,,,,,,,,,,,,,,,,,,,,,,,,,,,,,,,,,,,,,,,,,,,,,,,,,,,,,
,,,,550104,001,2023-07-27_19h59.43.176,fluency,2022.2.4,Win32,143.8434983,,,,,,,,,,,,,,,,,,,,,,,,,,,,,,,,,,,,,,,,,,,,,,,,,,,,,,,,,,,,,,,,,,,,,,,,,,,"[""j""]",[0.3235999999996011],"[""j""]",[0.3235999999996011],0,0,0,0,0,1,,,,,,,,,,,,,,,,,,,,,,,,,,,,,,,,,,,,,,,,,,,,,,,,,,,,,,,,,,,,,,,,,,,
,,,,550104,001,2023-07-27_19h59.43.176,fluency,2022.2.4,Win32,143.8434983,,,,,,,,,,,,,,,,,,,,,,,1,4,img/B04_01.jpg,CONTROL,Press J as soon as you see a face, ,JK,,,,,,,,,,,,,,,,,,,,,,,,,,,,,,,,5,0.2454,,,,,,,,,,,,,,,,,,,,,,,space,0.1554,0,88,88,34,1,,,,,,,,,,,,,,,,,,,,,,,,,,,,,,,,,,,,,,,,,,,,,,,,,,,,,,,,,,,,
,,,,550104,001,2023-07-27_19h59.43.176,fluency,2022.2.4,Win32,143.8434983,,,,,,,,,,,,,,,,,,,,,,,,,,,,,,,,,,,,,,,,,,,,,,,,,,,,,,,,,,,,,,,,,,,,,,,,,,,"[""j""]",[0.44540000000040436],"[""j""]",[0.44529999999986103],0,0,0,0,0,1,,,,,,,,,,,,,,,,,,,,,,,,,,,,,,,,,,,,,,,,,,,,,,,,,,,,,,,,,,,,,,,,,,,
,,,,550104,001,2023-07-27_19h59.43.176,fluency,2022.2.4,Win32,143.8434983,,,,,,,,,,,,,,,,,,,,,,,4,7,img/B07_04.jpg,CONTROL,Press J as soon as you see a face, ,JK,,,,,,,,,,,,,,,,,,,,,,,,,,,,,,,,3,0.2165,,,,,,,,,,,,,,,,,,,,,,,space,0.189,0,89,89,70,1,,,,,,,,,,,,,,,,,,,,,,,,,,,,,,,,,,,,,,,,,,,,,,,,,,,,,,,,,,,,
,,,,550104,001,2023-07-27_19h59.43.176,fluency,2022.2.4,Win32,143.8434983,,,,,,,,,,,,,,,,,,,,,,,,,,,,,,,,,,,,,,,,,,,,,,,,,,,,,,,,,,,,,,,,,,,,,,,,,,,"[""j""]",[0.36570000000028813],"[""j""]",[0.36570000000028813],0,0,0,0,0,1,,,,,,,,,,,,,,,,,,,,,,,,,,,,,,,,,,,,,,,,,,,,,,,,,,,,,,,,,,,,,,,,,,,
,,,,550104,001,2023-07-27_19h59.43.176,fluency,2022.2.4,Win32,143.8434983,,,,,,,,,,,,,,,,,,,,,,,5,5,img/B05_05.jpg,CONTROL,Press J as soon as you see a face, ,JK,,,,,,,,,,,,,,,,,,,,,,,,,,,,,,,,4,0.2314,,,,,,,,,,,,,,,,,,,,,,,space,0.1414,0,90,90,49,1,,,,,,,,,,,,,,,,,,,,,,,,,,,,,,,,,,,,,,,,,,,,,,,,,,,,,,,,,,,,
,,,,550104,001,2023-07-27_19h59.43.176,fluency,2022.2.4,Win32,143.8434983,,,,,,,,,,,,,,,,,,,,,,,,,,,,,,,,,,,,,,,,,,,,,,,,,,,,,,,,,,,,,,,,,,,,,,,,,,,"[""j""]",[0.4407000000002199],"[""j""]",[0.4407000000002199],0,0,0,0,0,1,,,,,,,,,,,,,,,,,,,,,,,,,,,,,,,,,,,,,,,,,,,,,,,,,,,,,,,,,,,,,,,,,,,
,,,,550104,001,2023-07-27_19h59.43.176,fluency,2022.2.4,Win32,143.8434983,,,,,,,,,,,,,,,,,,,,,,,8,5,img/B05_08.jpg,CONTROL,Press J as soon as you see a face, ,JK,,,,,,,,,,,,,,,,,,,,,,,,,,,,,,,,5,0.4623,,,,,,,,,,,,,,,,,,,,,,,space,0.1319,0,91,91,52,1,,,,,,,,,,,,,,,,,,,,,,,,,,,,,,,,,,,,,,,,,,,,,,,,,,,,,,,,,,,,
,,,,550104,001,2023-07-27_19h59.43.176,fluency,2022.2.4,Win32,143.8434983,,,,,,,,,,,,,,,,,,,,,,,,,,,,,,,,,,,,,,,,,,,,,,,,,,,,,,,,,,,,,,,,,,,,,,,,,,,"[""j""]",[0.42619999999931224],"[""j""]",[0.4260999999996784],0,0,0,0,0,1,,,,,,,,,,,,,,,,,,,,,,,,,,,,,,,,,,,,,,,,,,,,,,,,,,,,,,,,,,,,,,,,,,,
,,,,550104,001,2023-07-27_19h59.43.176,fluency,2022.2.4,Win32,143.8434983,,,,,,,,,,,,,,,,,,,,,,,8,8,img/B08_08.jpg,CONTROL,Press J as soon as you see a face, ,JK,,,,,,,,,,,,,,,,,,,,,,,,,,,,,,,,3,0.2317,,,,,,,,,,,,,,,,,,,,,,,space,0.1746,0,92,92,85,1,,,,,,,,,,,,,,,,,,,,,,,,,,,,,,,,,,,,,,,,,,,,,,,,,,,,,,,,,,,,
,,,,550104,001,2023-07-27_19h59.43.176,fluency,2022.2.4,Win32,143.8434983,,,,,,,,,,,,,,,,,,,,,,,,,,,,,,,,,,,,,,,,,,,,,,,,,,,,,,,,,,,,,,,,,,,,,,,,,,,"[""j""]",[0.4895000000000209],"[""j""]",[0.48960000000056425],0,0,0,0,0,1,,,,,,,,,,,,,,,,,,,,,,,,,,,,,,,,,,,,,,,,,,,,,,,,,,,,,,,,,,,,,,,,,,,
,,,,550104,001,2023-07-27_19h59.43.176,fluency,2022.2.4,Win32,143.8434983,,,,,,,,,,,,,,,,,,,,,,,4,4,img/B04_04.jpg,CONTROL,Press J as soon as you see a face, ,JK,,,,,,,,,,,,,,,,,,,,,,,,,,,,,,,,4,0.209,,,,,,,,,,,,,,,,,,,,,,,space,0.1823,0,93,93,37,1,,,,,,,,,,,,,,,,,,,,,,,,,,,,,,,,,,,,,,,,,,,,,,,,,,,,,,,,,,,,
,,,,550104,001,2023-07-27_19h59.43.176,fluency,2022.2.4,Win32,143.8434983,,,,,,,,,,,,,,,,,,,,,,,,,,,,,,,,,,,,,,,,,,,,,,,,,,,,,,,,,,,,,,,,,,,,,,,,,,,"[""j""]",[0.2229000000003225],"[""j""]",[0.22279999999977917],0,0,0,0,0,1,,,,,,,,,,,,,,,,,,,,,,,,,,,,,,,,,,,,,,,,,,,,,,,,,,,,,,,,,,,,,,,,,,,
,,,,550104,001,2023-07-27_19h59.43.176,fluency,2022.2.4,Win32,143.8434983,,,,,,,,,,,,,,,,,,,,,,,6,10,img/B10_06.jpg,CONTROL,Press J as soon as you see a face, ,JK,,,,,,,,,,,,,,,,,,,,,,,,,,,,,,,,3,0.3503,,,,,,,,,,,,,,,,,,,,,,,space,0.148,0,94,94,105,1,,,,,,,,,,,,,,,,,,,,,,,,,,,,,,,,,,,,,,,,,,,,,,,,,,,,,,,,,,,,
,,,,550104,001,2023-07-27_19h59.43.176,fluency,2022.2.4,Win32,143.8434983,,,,,,,,,,,,,,,,,,,,,,,,,,,,,,,,,,,,,,,,,,,,,,,,,,,,,,,,,,,,,,,,,,,,,,,,,,,"[""j""]",[0.24390000000039436],"[""j""]",[0.2440000000000282],0,0,0,0,0,1,,,,,,,,,,,,,,,,,,,,,,,,,,,,,,,,,,,,,,,,,,,,,,,,,,,,,,,,,,,,,,,,,,,
,,,,550104,001,2023-07-27_19h59.43.176,fluency,2022.2.4,Win32,143.8434983,,,,,,,,,,,,,,,,,,,,,,,10,6,img/B06_10.jpg,CONTROL,Press J as soon as you see a face, ,JK,,,,,,,,,,,,,,,,,,,,,,,,,,,,,,,,3,0.2667,,,,,,,,,,,,,,,,,,,,,,,space,0.161,0,95,95,65,1,,,,,,,,,,,,,,,,,,,,,,,,,,,,,,,,,,,,,,,,,,,,,,,,,,,,,,,,,,,,
,,,,550104,001,2023-07-27_19h59.43.176,fluency,2022.2.4,Win32,143.8434983,,,,,,,,,,,,,,,,,,,,,,,,,,,,,,,,,,,,,,,,,,,,,,,,,,,,,,,,,,,,,,,,,,,,,,,,,,,"[""j""]",[0.3412999999998192],"[""j""]",[0.3412999999998192],0,0,0,0,0,1,,,,,,,,,,,,,,,,,,,,,,,,,,,,,,,,,,,,,,,,,,,,,,,,,,,,,,,,,,,,,,,,,,,
,,,,550104,001,2023-07-27_19h59.43.176,fluency,2022.2.4,Win32,143.8434983,,,,,,,,,,,,,,,,,,,,,,,9,8,img/B08_09.jpg,CONTROL,Press J as soon as you see a face, ,JK,,,,,,,,,,,,,,,,,,,,,,,,,,,,,,,,3,0.2226,,,,,,,,,,,,,,,,,,,,,,,space,0.1396,0,96,96,86,1,,,,,,,,,,,,,,,,,,,,,,,,,,,,,,,,,,,,,,,,,,,,,,,,,,,,,,,,,,,,
,,,,550104,001,2023-07-27_19h59.43.176,fluency,2022.2.4,Win32,143.8434983,,,,,,,,,,,,,,,,,,,,,,,,,,,,,,,,,,,,,,,,,,,,,,,,,,,,,,,,,,,,,,,,,,,,,,,,,,,"[""j""]",[0.395799999999781],"[""j""]",[0.39570000000014716],0,0,0,0,0,1,,,,,,,,,,,,,,,,,,,,,,,,,,,,,,,,,,,,,,,,,,,,,,,,,,,,,,,,,,,,,,,,,,,
,,,,550104,001,2023-07-27_19h59.43.176,fluency,2022.2.4,Win32,143.8434983,,,,,,,,,,,,,,,,,,,,,,,6,3,img/B03_06.jpg,CONTROL,Press J as soon as you see a face, ,JK,,,,,,,,,,,,,,,,,,,,,,,,,,,,,,,,3,0.2798,,,,,,,,,,,,,,,,,,,,,,,space,0.1489,0,97,97,28,1,,,,,,,,,,,,,,,,,,,,,,,,,,,,,,,,,,,,,,,,,,,,,,,,,,,,,,,,,,,,
,,,,550104,001,2023-07-27_19h59.43.176,fluency,2022.2.4,Win32,143.8434983,,,,,,,,,,,,,,,,,,,,,,,,,,,,,,,,,,,,,,,,,,,,,,,,,,,,,,,,,,,,,,,,,,,,,,,,,,,"[""j""]",[0.27190000000041437],"[""j""]",[0.27190000000041437],0,0,0,0,0,1,,,,,,,,,,,,,,,,,,,,,,,,,,,,,,,,,,,,,,,,,,,,,,,,,,,,,,,,,,,,,,,,,,,
,,,,550104,001,2023-07-27_19h59.43.176,fluency,2022.2.4,Win32,143.8434983,,,,,,,,,,,,,,,,,,,,,,,8,2,img/B02_08.jpg,CONTROL,Press J as soon as you see a face, ,JK,,,,,,,,,,,,,,,,,,,,,,,,,,,,,,,,5,0.2381,,,,,,,,,,,,,,,,,,,,,,,space,0.1624,0,98,98,19,1,,,,,,,,,,,,,,,,,,,,,,,,,,,,,,,,,,,,,,,,,,,,,,,,,,,,,,,,,,,,
,,,,550104,001,2023-07-27_19h59.43.176,fluency,2022.2.4,Win32,143.8434983,,,,,,,,,,,,,,,,,,,,,,,,,,,,,,,,,,,,,,,,,,,,,,,,,,,,,,,,,,,,,,,,,,,,,,,,,,,"[""j""]",[0.3076000000005479],"[""j""]",[0.3076000000005479],0,0,0,0,0,1,,,,,,,,,,,,,,,,,,,,,,,,,,,,,,,,,,,,,,,,,,,,,,,,,,,,,,,,,,,,,,,,,,,
,,,,550104,001,2023-07-27_19h59.43.176,fluency,2022.2.4,Win32,143.8434983,,,,,,,,,,,,,,,,,,,,,,,3,3,img/B03_03.jpg,CONTROL,Press J as soon as you see a face, ,JK,,,,,,,,,,,,,,,,,,,,,,,,,,,,,,,,3,0.4343,,,,,,,,,,,,,,,,,,,,,,,space,0.1462,0,99,99,25,1,,,,,,,,,,,,,,,,,,,,,,,,,,,,,,,,,,,,,,,,,,,,,,,,,,,,,,,,,,,,
,,,,550104,001,2023-07-27_19h59.43.176,fluency,2022.2.4,Win32,143.8434983,,,,,,,,,,,,,,,,,,,,,,,,,,,,,,,,,,,,,,,,,,,,,,,,,,,,,,,,,,,,,,,,,,,,,,,,,,,"[""j""]",[0.45470000000011623],"[""j""]",[0.45470000000011623],0,0,0,0,0,1,,,,,,,,,,,,,,,,,,,,,,,,,,,,,,,,,,,,,,,,,,,,,,,,,,,,,,,,,,,,,,,,,,,
,,,,550104,001,2023-07-27_19h59.43.176,fluency,2022.2.4,Win32,143.8434983,,,,,,,,,,,,,,,,,,,,,,,6,7,img/B07_06.jpg,CONTROL,Press J as soon as you see a face, ,JK,,,,,,,,,,,,,,,,,,,,,,,,,,,,,,,,5,0.3062,,,,,,,,,,,,,,,,,,,,,,,space,0.1614,0,100,100,72,1,,,,,,,,,,,,,,,,,,,,,,,,,,,,,,,,,,,,,,,,,,,,,,,,,,,,,,,,,,,,
,,,,550104,001,2023-07-27_19h59.43.176,fluency,2022.2.4,Win32,143.8434983,,,,,,,,,,,,,,,,,,,,,,,,,,,,,,,,,,,,,,,,,,,,,,,,,,,,,,,,,,,,,,,,,,,,,,,,,,,"[""j""]",[0.3201999999993177],"[""j""]",[0.32029999999986103],0,0,0,0,0,1,,,,,,,,,,,,,,,,,,,,,,,,,,,,,,,,,,,,,,,,,,,,,,,,,,,,,,,,,,,,,,,,,,,
,,,,550104,001,2023-07-27_19h59.43.176,fluency,2022.2.4,Win32,143.8434983,,,,,,,,,,,,,,,,,,,,,,,8,6,img/B06_08.jpg,CONTROL,Press J as soon as you see a face, ,JK,,,,,,,,,,,,,,,,,,,,,,,,,,,,,,,,4,0.3055,,,,,,,,,,,,,,,,,,,,,,,space,0.119,0,101,101,63,1,,,,,,,,,,,,,,,,,,,,,,,,,,,,,,,,,,,,,,,,,,,,,,,,,,,,,,,,,,,,
,,,,550104,001,2023-07-27_19h59.43.176,fluency,2022.2.4,Win32,143.8434983,,,,,,,,,,,,,,,,,,,,,,,,,,,,,,,,,,,,,,,,,,,,,,,,,,,,,,,,,,,,,,,,,,,,,,,,,,,"[""j""]",[0.2857000000001335],"[""j""]",[0.2856000000004997],0,0,0,0,0,1,,,,,,,,,,,,,,,,,,,,,,,,,,,,,,,,,,,,,,,,,,,,,,,,,,,,,,,,,,,,,,,,,,,
,,,,550104,001,2023-07-27_19h59.43.176,fluency,2022.2.4,Win32,143.8434983,,,,,,,,,,,,,,,,,,,,,,,2,4,img/B04_02.jpg,CONTROL,Press J as soon as you see a face, ,JK,,,,,,,,,,,,,,,,,,,,,,,,,,,,,,,,4,0.3691,,,,,,,,,,,,,,,,,,,,,,,space,0.1265,0,102,102,35,1,,,,,,,,,,,,,,,,,,,,,,,,,,,,,,,,,,,,,,,,,,,,,,,,,,,,,,,,,,,,
,,,,550104,001,2023-07-27_19h59.43.176,fluency,2022.2.4,Win32,143.8434983,,,,,,,,,,,,,,,,,,,,,,,,,,,,,,,,,,,,,,,,,,,,,,,,,,,,,,,,,,,,,,,,,,,,,,,,,,,"[""j""]",[0.3841000000005579],"[""j""]",[0.3841000000005579],0,0,0,0,0,1,,,,,,,,,,,,,,,,,,,,,,,,,,,,,,,,,,,,,,,,,,,,,,,,,,,,,,,,,,,,,,,,,,,
,,,,550104,001,2023-07-27_19h59.43.176,fluency,2022.2.4,Win32,143.8434983,,,,,,,,,,,,,,,,,,,,,,,2,6,img/B06_02.jpg,CONTROL,Press J as soon as you see a face, ,JK,,,,,,,,,,,,,,,,,,,,,,,,,,,,,,,,3,0.314,,,,,,,,,,,,,,,,,,,,,,,space,0.1418,0,103,103,57,1,,,,,,,,,,,,,,,,,,,,,,,,,,,,,,,,,,,,,,,,,,,,,,,,,,,,,,,,,,,,
,,,,550104,001,2023-07-27_19h59.43.176,fluency,2022.2.4,Win32,143.8434983,,,,,,,,,,,,,,,,,,,,,,,,,,,,,,,,,,,,,,,,,,,,,,,,,,,,,,,,,,,,,,,,,,,,,,,,,,,"[""j""]",[1.7786000000005515],"[""6"",""j""]","[0.9477000000001681,1.7786000000005515]",0,0,0,0,0,1,,,,,,,,,,,,,,,,,,,,,,,,,,,,,,,,,,,,,,,,,,,,,,,,,,,,,,,,,,,,,,,,,,,
,,,,550104,001,2023-07-27_19h59.43.176,fluency,2022.2.4,Win32,143.8434983,,,,,,,,,,,,,,,,,,,,,,,9,7,img/B07_09.jpg,CONTROL,Press J as soon as you see a face, ,JK,,,,,,,,,,,,,,,,,,,,,,,,,,,,,,,,6,0.3648,,,,,,,,,,,,,,,,,,,,,,,space,0.3214,0,104,104,75,1,,,,,,,,,,,,,,,,,,,,,,,,,,,,,,,,,,,,,,,,,,,,,,,,,,,,,,,,,,,,
,,,,550104,001,2023-07-27_19h59.43.176,fluency,2022.2.4,Win32,143.8434983,,,,,,,,,,,,,,,,,,,,,,,,,,,,,,,,,,,,,,,,,,,,,,,,,,,,,,,,,,,,,,,,,,,,,,,,,,,"[""j""]",[0.7050999999995611],"[""j""]",[0.7050999999995611],0,0,0,0,0,1,,,,,,,,,,,,,,,,,,,,,,,,,,,,,,,,,,,,,,,,,,,,,,,,,,,,,,,,,,,,,,,,,,,
,,,,550104,001,2023-07-27_19h59.43.176,fluency,2022.2.4,Win32,143.8434983,,,,,,,,,,,,,,,,,,,,,,,3,2,img/B02_03.jpg,CONTROL,Press J as soon as you see a face, ,JK,,,,,,,,,,,,,,,,,,,,,,,,,,,,,,,,5,1.931,,,,,,,,,,,,,,,,,,,,,,,space,0.5385,0,105,105,14,1,,,,,,,,,,,,,,,,,,,,,,,,,,,,,,,,,,,,,,,,,,,,,,,,,,,,,,,,,,,,
,,,,550104,001,2023-07-27_19h59.43.176,fluency,2022.2.4,Win32,143.8434983,,,,,,,,,,,,,,,,,,,,,,,,,,,,,,,,,,,,,,,,,,,,,,,,,,,,,,,,,,,,,,,,,,,,,,,,,,,"[""j""]",[0.8630999999995765],"[""j""]",[0.8631999999992104],0,0,0,0,0,1,,,,,,,,,,,,,,,,,,,,,,,,,,,,,,,,,,,,,,,,,,,,,,,,,,,,,,,,,,,,,,,,,,,
,,,,550104,001,2023-07-27_19h59.43.176,fluency,2022.2.4,Win32,143.8434983,,,,,,,,,,,,,,,,,,,,,,,9,10,img/B10_09.jpg,CONTROL,Press J as soon as you see a face, ,JK,,,,,,,,,,,,,,,,,,,,,,,,,,,,,,,,3,0.4231,,,,,,,,,,,,,,,,,,,,,,,space,0.126,0,106,106,108,1,,,,,,,,,,,,,,,,,,,,,,,,,,,,,,,,,,,,,,,,,,,,,,,,,,,,,,,,,,,,
,,,,550104,001,2023-07-27_19h59.43.176,fluency,2022.2.4,Win32,143.8434983,,,,,,,,,,,,,,,,,,,,,,,,,,,,,,,,,,,,,,,,,,,,,,,,,,,,,,,,,,,,,,,,,,,,,,,,,,,"[""j""]",[0.2317000000001599],"[""j""]",[0.23160000000052605],0,0,0,0,0,1,,,,,,,,,,,,,,,,,,,,,,,,,,,,,,,,,,,,,,,,,,,,,,,,,,,,,,,,,,,,,,,,,,,
,,,,550104,001,2023-07-27_19h59.43.176,fluency,2022.2.4,Win32,143.8434983,,,,,,,,,,,,,,,,,,,,,,,4,6,img/B06_04.jpg,CONTROL,Press J as soon as you see a face, ,JK,,,,,,,,,,,,,,,,,,,,,,,,,,,,,,,,4,0.3081,,,,,,,,,,,,,,,,,,,,,,,space,0.0994,0,107,107,59,1,,,,,,,,,,,,,,,,,,,,,,,,,,,,,,,,,,,,,,,,,,,,,,,,,,,,,,,,,,,,
,,,,550104,001,2023-07-27_19h59.43.176,fluency,2022.2.4,Win32,143.8434983,,,,,,,,,,,,,,,,,,,,,,,,,,,,,,,,,,,,,,,,,,,,,,,,,,,,,,,,,,,,,,,,,,,,,,,,,,,"[""j""]",[0.45389999999940756],"[""j""]",[0.45390000000031705],0,0,0,0,0,1,,,,,,,,,,,,,,,,,,,,,,,,,,,,,,,,,,,,,,,,,,,,,,,,,,,,,,,,,,,,,,,,,,,
,,,,550104,001,2023-07-27_19h59.43.176,fluency,2022.2.4,Win32,143.8434983,,,,,,,,,,,,,,,,,,,,,,,7,3,img/B03_07.jpg,CONTROL,Press J as soon as you see a face, ,JK,,,,,,,,,,,,,,,,,,,,,,,,,,,,,,,,4,0.212,,,,,,,,,,,,,,,,,,,,,,,space,0.2295,0,108,108,29,1,,,,,,,,,,,,,,,,,,,,,,,,,,,,,,,,,,,,,,,,,,,,,,,,,,,,,,,,,,,,
,,,,550104,001,2023-07-27_19h59.43.176,fluency,2022.2.4,Win32,143.8434983,,,,,,,,,,,,,,,,,,,,,,,,,,,,,,,,,,,,,,,,,,,,,,,,,,,,,,,,,,,,,,,,,,,,,,,,,,,"[""j""]",[0.27499999999997726],"[""j""]",[0.27499999999997726],0,0,0,0,0,1,,,,,,,,,,,,,,,,,,,,,,,,,,,,,,,,,,,,,,,,,,,,,,,,,,,,,,,,,,,,,,,,,,,
,,,,550104,001,2023-07-27_19h59.43.176,fluency,2022.2.4,Win32,143.8434983,,,,,,,,,,,,,,,,,,,,,,,5,4,img/B04_05.jpg,CONTROL,Press J as soon as you see a face, ,JK,,,,,,,,,,,,,,,,,,,,,,,,,,,,,,,,2,0.2587,,,,,,,,,,,,,,,,,,,,,,,space,0.1768,0,109,109,38,1,,,,,,,,,,,,,,,,,,,,,,,,,,,,,,,,,,,,,,,,,,,,,,,,,,,,,,,,,,,,
,,,,550104,001,2023-07-27_19h59.43.176,fluency,2022.2.4,Win32,143.8434983,,,,,,,,,,,,,,,,,,,,,,,,,,,,,,,,,,,,,,,,,,,,,,,,,,,,,,,,,,,,,,,,,,,,,,,,,,,,,,,,,,,,,,,,,,,,space,3.7141,,,,,,,,,,,,,,,,,,,,,,,,,,,,,,,,,,,,,,,,,,,,,,,,,,,,,,,,,,
,,,,550104,001,2023-07-27_19h59.43.176,fluency,2022.2.4,Win32,143.8434983,,,,,,,,,,,,,,,,,,,,,,,,,,,,,,,,,,,,,,,,,,,,,,,,,,,,,,,,,,,,,,,,,,,,,,,,,,,,,,,,,,,,,,,,,,,,,,3,5.3799,4,6.4834,4,9.4986,3,12.1031,1,[3.5028999999993857],[3.502999999999929],,,,,,,,,,,,,,,,,,,,,,,,,,,,,,,,,,,,,,,,,,,,,,,
,,,,550104,001,2023-07-27_19h59.43.176,fluency,2022.2.4,Win32,143.8434983,,,,,,,,,,,,,,,,,,,,,,,,,,,,,,,,,,,,,,,,,,,,,,,,,,,,,,,,,,,,,,,,,,,,,,,,,,,,,,,,,,,,,,,,,,,,,,,,,,,,,,,,,5,4.3757,4,5.3554,5,6.9629,4,8.2677,1,[0.5249999999999773],[0.5249999999999773],,,,,,,,,,,,,,,,,,,,,,,,,,,,,,,,,,,,
,,,,550104,001,2023-07-27_19h59.43.176,fluency,2022.2.4,Win32,143.8434983,,,,,,,,,,,,,,,,,,,,,,,,,,,,,,,,,,,,,,,,,,,,,,,,,,,,,,,,,,,,,,,,,,,,,,,,,,,,,,,,,,,,,,,,,,,,,,,,,,,,,,,,,,,,,,,,,,,,5,3.2426,3,5.8734,4,8.1513,4,9.043,1,[0.7404000000003634],[0.7404000000003634],,,,,,,,,,,,,,,,,,,,,,,,,
,,,,550104,001,2023-07-27_19h59.43.176,fluency,2022.2.4,Win32,143.8434983,,,,,,,,,,,,,,,,,,,,,,,,,,,,,,,,,,,,,,,,,,,,,,,,,,,,,,,,,,,,,,,,,,,,,,,,,,,,,,,,,,,,,,,,,,,,,,,,,,,,,,,,,,,,,,,,,,,,,,,,,,,,,,,5,2.7014,3,5.6251,4,6.2569,1,[0.5762999999998328],[0.5763999999994667],,,,,,,,,,,,,,,,
,,,,550104,001,2023-07-27_19h59.43.176,fluency,2022.2.4,Win32,143.8434983,,,,,,,,,,,,,,,,,,,,,,,,,,,,,,,,,,,,,,,,,,,,,,,,,,,,,,,,,,,,,,,,,,,,,,,,,,,,,,,,,,,,,,,,,,,,,,,,,,,,,,,,,,,,,,,,,,,,,,,,,,,,,,,,,,,,,,,,5,2.0268,4,3.0029,,1,[1.200200000000109],[1.200200000000109],,,,,,,,
,,,,550104,001,2023-07-27_19h59.43.176,fluency,2022.2.4,Win32,143.8434983,,,,,,,,,,,,,,,,,,,,,,,,,,,,,,,,,,,,,,,,,,,,,,,,,,,,,,,,,,,,,,,,,,,,,,,,,,,,,,,,,,,,,,,,,,,,,,,,,,,,,,,,,,,,,,,,,,,,,,,,,,,,,,,,,,,,,,,,,,,,,,,,"I didn't have an exact strategies. I wanted to follow the instructions slowly and make sure to give honest ratings. So instead of having a strategy, I simply wanted to hit ""J"" quickly, which also giving good and honest ratings after.",1,[39.13850000000002],[39.13850000000002],,,,
,,,,550104,001,2023-07-27_19h59.43.176,fluency,2022.2.4,Win32,143.8434983,,,,,,,,,,,,,,,,,,,,,,,,,,,,,,,,,,,,,,,,,,,,,,,,,,,,,,,,,,,,,,,,,,,,,,,,,,,,,,,,,,,,,,,,,,,,,,,,,,,,,,,,,,,,,,,,,,,,,,,,,,,,,,,,,,,,,,,,,,,,,,,,,,,,space,14.4001,,
,,,,550104,001,2023-07-27_19h59.43.176,fluency,2022.2.4,Win32,143.8434983,,,,,,,,,,,,,,,,,,,,,,,,,,,,,,,,,,,,,,,,,,,,,,,,,,,,,,,,,,,,,,,,,,,,,,,,,,,,,,,,,,,,,,,,,,,,,,,,,,,,,,,,,,,,,,,,,,,,,,,,,,,,,,,,,,,,,,,,,,,,,,,,,,,,,,tab,20.2662
