idTextbox.text,welcomeDone.numClicks,welcomeDone.timesOn,welcomeDone.timesOff,participant,session,date,expName,psychopyVersion,OS,frameRate,consent_advance.keys,consent_advance.rt,consent_advance_2.keys,consent_advance_2.rt,consentClick.x,consentClick.y,consentClick.leftButton,consentClick.midButton,consentClick.rightButton,consentClick.time,consentClick.clicked_name,instr_advance_3.keys,instr_advance_3.rt,spec_instr_adv.keys,spec_instr_adv.rt,spec_instr_adv2.keys,spec_instr_adv2.rt,instrLoop.thisRepN,instrLoop.thisTrialN,instrLoop.thisN,instrLoop.thisIndex,instrLoop.ran,steps,fams,face_file,cond,instr,term,key_map,attnKeyResp1.keys,attnKeyResp1.rt,q1.thisRepN,q1.thisTrialN,q1.thisN,q1.thisIndex,q1.ran,attnKeyResp2.keys,attnKeyResp2.rt,q2.thisRepN,q2.thisTrialN,q2.thisN,q2.thisIndex,q2.ran,attnKeyResp3.keys,attnKeyResp3.rt,q3.thisRepN,q3.thisTrialN,q3.thisN,q3.thisIndex,q3.ran,practiceStart.keys,practiceStart.rt,practiceResp.keys,practiceResp.rt,timesRedone,practiceRepeat.thisRepN,practiceRepeat.thisTrialN,practiceRepeat.thisN,practiceRepeat.thisIndex,practiceRepeat.ran,attrRating.keys,attrRating.rt,practiceTrial.thisRepN,practiceTrial.thisTrialN,practiceTrial.thisN,practiceTrial.thisIndex,practiceTrial.ran,key_resp_3.keys,key_resp_3.rt,attnChecker.thisRepN,attnChecker.thisTrialN,attnChecker.thisN,attnChecker.thisIndex,attnChecker.ran,catResp.keys,catResp.rt,catAllKeys.keys,catAllKeys.rt,globalTimesRedone,repeat_loop.thisRepN,repeat_loop.thisTrialN,repeat_loop.thisN,repeat_loop.thisIndex,repeat_loop.ran,contResp.keys,contResp.rt,trials.thisRepN,trials.thisTrialN,trials.thisN,trials.thisIndex,trials.ran,contResp_2.keys,contResp_2.rt,respQ1.response,respQ1.rt,respQ2.response,respQ2.rt,respQ3.response,respQ3.rt,respQ4.response,respQ4.rt,surveyContinue1.numClicks,surveyContinue1.timesOn,surveyContinue1.timesOff,respQ5.response,respQ5.rt,respQ6.response,respQ6.rt,respQ7.response,respQ7.rt,respQ8.response,respQ8.rt,surveyContinue2.numClicks,surveyContinue2.timesOn,surveyContinue2.timesOff,respQ9.response,respQ9.rt,respQ10.response,respQ10.rt,respQ11.response,respQ11.rt,respQ12.response,respQ12.rt,surveyContinue3.numClicks,surveyContinue3.timesOn,surveyContinue3.timesOff,respQ13.response,respQ13.rt,respQ14.response,respQ14.rt,respQ15.response,respQ15.rt,surveyContinue4.numClicks,surveyContinue4.timesOn,surveyContinue4.timesOff,respAge.response,respAge.rt,genderResp1.response,genderResp1.rt,genderResp2.text,demogexitClick.numClicks,demogexitClick.timesOn,demogexitClick.timesOff,textbox.text,openAnswerClick.numClicks,openAnswerClick.timesOn,openAnswerClick.timesOff,debriefEnd.keys,debriefEnd.rt,exitKey.keys,exitKey.rt
60f5c69fff8d3c7c5331b77c,1,[20.255499999999994],[20.255600000143044],600444,001,2023-07-28_03h08.34.295,fluency,2022.2.4,Win32,143.7401179,,,,,,,,,,,,,,,,,,,,,,,,,,,,,,,,,,,,,,,,,,,,,,,,,,,,,,,,,,,,,,,,,,,,,,,,,,,,,,,,,,,,,,,,,,,,,,,,,,,,,,,,,,,,,,,,,,,,,,,,,,,,,,,,,,,,,,,,,,,,,,,,,,,,,,,
,,,,600444,001,2023-07-28_03h08.34.295,fluency,2022.2.4,Win32,143.7401179,space,95.6209,,,,,,,,,,,,,,,,,,,,,,,,,,,,,,,,,,,,,,,,,,,,,,,,,,,,,,,,,,,,,,,,,,,,,,,,,,,,,,,,,,,,,,,,,,,,,,,,,,,,,,,,,,,,,,,,,,,,,,,,,,,,,,,,,,,,,,,,,,,,,,,,,,,,,
,,,,600444,001,2023-07-28_03h08.34.295,fluency,2022.2.4,Win32,143.7401179,,,space,0.388,,,,,,,,,,,,,,,,,,,,,,,,,,,,,,,,,,,,,,,,,,,,,,,,,,,,,,,,,,,,,,,,,,,,,,,,,,,,,,,,,,,,,,,,,,,,,,,,,,,,,,,,,,,,,,,,,,,,,,,,,,,,,,,,,,,,,,,,,,,,,,,,,,,
,,,,600444,001,2023-07-28_03h08.34.295,fluency,2022.2.4,Win32,143.7401179,,,,,0.332407407,-0.333333333,1,0,0,2.9697,iAgree,,,,,,,,,,,,,,,,,,,,,,,,,,,,,,,,,,,,,,,,,,,,,,,,,,,,,,,,,,,,,,,,,,,,,,,,,,,,,,,,,,,,,,,,,,,,,,,,,,,,,,,,,,,,,,,,,,,,,,,,,,,,,,,,,,,,,,,,,,,,
,,,,600444,001,2023-07-28_03h08.34.295,fluency,2022.2.4,Win32,143.7401179,,,,,,,,,,,,space,0.6553,,,,,,,,,,,,,,,,,,,,,,,,,,,,,,,,,,,,,,,,,,,,,,,,,,,,,,,,,,,,,,,,,,,,,,,,,,,,,,,,,,,,,,,,,,,,,,,,,,,,,,,,,,,,,,,,,,,,,,,,,,,,,,,,,,,,,,,,,,
,,,,600444,001,2023-07-28_03h08.34.295,fluency,2022.2.4,Win32,143.7401179,,,,,,,,,,,,,,space,9.9176,space,6.804,0,0,0,34,1,1,4,img/B04_01.jpg,CONTROL,Press K as soon as you see a face, ,KJ,,,,,,,,,,,,,,,,,,,,,,,,,,,,,,,,,,,,,,,,,,,,,,,,,,,,,,,,,,,,,,,,,,,,,,,,,,,,,,,,,,,,,,,,,,,,,,,,,,,,,,,,,,,,,,,,,,,,,,,,,,
,,,,600444,001,2023-07-28_03h08.34.295,fluency,2022.2.4,Win32,143.7401179,,,,,,,,,,,,,,,,,,,,,,,,,,,,,,c,6.4402,0,0,0,0,1,,,,,,,,,,,,,,,,,,,,,,,,,,,,,,,,,,,,,,,,,,,,,,,,,,,,,,,,,,,,,,,,,,,,,,,,,,,,,,,,,,,,,,,,,,,,,,,,,,,,,,,,,,,,,,,,,,,
,,,,600444,001,2023-07-28_03h08.34.295,fluency,2022.2.4,Win32,143.7401179,,,,,,,,,,,,,,,,,,,,,,,,,,,,,,,,,,,,,a,5.4064,0,0,0,0,1,,,,,,,,,,,,,,,,,,,,,,,,,,,,,,,,,,,,,,,,,,,,,,,,,,,,,,,,,,,,,,,,,,,,,,,,,,,,,,,,,,,,,,,,,,,,,,,,,,,,,,,,,,,,
,,,,600444,001,2023-07-28_03h08.34.295,fluency,2022.2.4,Win32,143.7401179,,,,,,,,,,,,,,,,,,,,,,,,,,,,,,,,,,,,,,,,,,,,c,6.0068,0,0,0,0,1,,,,,,,,,,,,,,,,,,,,,,,,,,,,,,,,,,,,,,,,,,,,,,,,,,,,,,,,,,,,,,,,,,,,,,,,,,,,,,,,,,,,,,,,,,,,,,,,,,,,,
,,,,600444,001,2023-07-28_03h08.34.295,fluency,2022.2.4,Win32,143.7401179,,,,,,,,,,,,,,,,,,,,,,,,,,,,,,,,,,,,,,,,,,,,,,,,,,,space,0.9035,k,0.2363,0,0,0,0,0,1,,,,,,,,,,,,,,,,,,,,,,,,,,,,,,,,,,,,,,,,,,,,,,,,,,,,,,,,,,,,,,,,,,,,,,,,,,,,,,,,,,,,,,,,,,,
,,,,600444,001,2023-07-28_03h08.34.295,fluency,2022.2.4,Win32,143.7401179,,,,,,,,,,,,,,,,,,,,,,,,,,,,,,,,,,,,,,,,,,,,,,,,,,,,,,,,,,,,,1,3.8568,0,0,0,0,1,,,,,,,,,,,,,,,,,,,,,,,,,,,,,,,,,,,,,,,,,,,,,,,,,,,,,,,,,,,,,,,,,,,,,,,,,,,,,,,,,,,,
,,,,600444,001,2023-07-28_03h08.34.295,fluency,2022.2.4,Win32,143.7401179,,,,,,,,,,,,,,,,,,,,,,,,,,,,,,,,,,,,,,,,,,,,,,,,,,,,,,,,,,,,,,,,,,,,space,0.6074,0,0,0,0,1,,,,,,,,,,,,,,,,,,,,,,,,,,,,,,,,,,,,,,,,,,,,,,,,,,,,,,,,,,,,,,,,,,,,,,,,,,,,,
,,,,600444,001,2023-07-28_03h08.34.295,fluency,2022.2.4,Win32,143.7401179,,,,,,,,,,,,,,,,,,,,,,,,,,,,,,,,,,,,,,,,,,,,,,,,,,,,,,,,,,,,,,,,,,,,,,,,,,,"[""k""]",[0.22690000009535538],"[""k""]",[0.22690000009535538],0,0,0,0,0,1,,,,,,,,,,,,,,,,,,,,,,,,,,,,,,,,,,,,,,,,,,,,,,,,,,,,,,,,,,,,,,,,,,,
,,,,600444,001,2023-07-28_03h08.34.295,fluency,2022.2.4,Win32,143.7401179,,,,,,,,,,,,,,,,,,,,,,,2,8,img/B08_02.jpg,CONTROL,Press K as soon as you see a face, ,KJ,,,,,,,,,,,,,,,,,,,,,,,,,,,,,,,,1,0.4039,,,,,,,,,,,,,,,,,,,,,,,space,1.7619,0,0,0,79,1,,,,,,,,,,,,,,,,,,,,,,,,,,,,,,,,,,,,,,,,,,,,,,,,,,,,,,,,,,,,
,,,,600444,001,2023-07-28_03h08.34.295,fluency,2022.2.4,Win32,143.7401179,,,,,,,,,,,,,,,,,,,,,,,,,,,,,,,,,,,,,,,,,,,,,,,,,,,,,,,,,,,,,,,,,,,,,,,,,,,"[""k""]",[0.2614000000953638],"[""k"",""1""]","[0.2614000000953638,0.5702999999523115]",0,0,0,0,0,1,,,,,,,,,,,,,,,,,,,,,,,,,,,,,,,,,,,,,,,,,,,,,,,,,,,,,,,,,,,,,,,,,,,
,,,,600444,001,2023-07-28_03h08.34.295,fluency,2022.2.4,Win32,143.7401179,,,,,,,,,,,,,,,,,,,,,,,7,3,img/B03_07.jpg,CONTROL,Press K as soon as you see a face, ,KJ,,,,,,,,,,,,,,,,,,,,,,,,,,,,,,,,1,0.2596,,,,,,,,,,,,,,,,,,,,,,,space,0.8143,0,1,1,29,1,,,,,,,,,,,,,,,,,,,,,,,,,,,,,,,,,,,,,,,,,,,,,,,,,,,,,,,,,,,,
,,,,600444,001,2023-07-28_03h08.34.295,fluency,2022.2.4,Win32,143.7401179,,,,,,,,,,,,,,,,,,,,,,,,,,,,,,,,,,,,,,,,,,,,,,,,,,,,,,,,,,,,,,,,,,,,,,,,,,,"[""k""]",[0.25499999999999545],"[""k""]",[0.25499999999999545],0,0,0,0,0,1,,,,,,,,,,,,,,,,,,,,,,,,,,,,,,,,,,,,,,,,,,,,,,,,,,,,,,,,,,,,,,,,,,,
,,,,600444,001,2023-07-28_03h08.34.295,fluency,2022.2.4,Win32,143.7401179,,,,,,,,,,,,,,,,,,,,,,,1,9,img/B09_01.jpg,CONTROL,Press K as soon as you see a face, ,KJ,,,,,,,,,,,,,,,,,,,,,,,,,,,,,,,,1,0.3047,,,,,,,,,,,,,,,,,,,,,,,space,0.4026,0,2,2,89,1,,,,,,,,,,,,,,,,,,,,,,,,,,,,,,,,,,,,,,,,,,,,,,,,,,,,,,,,,,,,
,,,,600444,001,2023-07-28_03h08.34.295,fluency,2022.2.4,Win32,143.7401179,,,,,,,,,,,,,,,,,,,,,,,,,,,,,,,,,,,,,,,,,,,,,,,,,,,,,,,,,,,,,,,,,,,,,,,,,,,"[""k""]",[0.2439000000953513],"[""k""]",[0.2439000000953513],0,0,0,0,0,1,,,,,,,,,,,,,,,,,,,,,,,,,,,,,,,,,,,,,,,,,,,,,,,,,,,,,,,,,,,,,,,,,,,
,,,,600444,001,2023-07-28_03h08.34.295,fluency,2022.2.4,Win32,143.7401179,,,,,,,,,,,,,,,,,,,,,,,5,8,img/B08_05.jpg,CONTROL,Press K as soon as you see a face, ,KJ,,,,,,,,,,,,,,,,,,,,,,,,,,,,,,,,1,0.2591,,,,,,,,,,,,,,,,,,,,,,,space,0.2467,0,3,3,82,1,,,,,,,,,,,,,,,,,,,,,,,,,,,,,,,,,,,,,,,,,,,,,,,,,,,,,,,,,,,,
,,,,600444,001,2023-07-28_03h08.34.295,fluency,2022.2.4,Win32,143.7401179,,,,,,,,,,,,,,,,,,,,,,,,,,,,,,,,,,,,,,,,,,,,,,,,,,,,,,,,,,,,,,,,,,,,,,,,,,,"[""k""]",[0.24020000004770736],"[""k""]",[0.24020000004770736],0,0,0,0,0,1,,,,,,,,,,,,,,,,,,,,,,,,,,,,,,,,,,,,,,,,,,,,,,,,,,,,,,,,,,,,,,,,,,,
,,,,600444,001,2023-07-28_03h08.34.295,fluency,2022.2.4,Win32,143.7401179,,,,,,,,,,,,,,,,,,,,,,,8,3,img/B03_08.jpg,CONTROL,Press K as soon as you see a face, ,KJ,,,,,,,,,,,,,,,,,,,,,,,,,,,,,,,,1,0.31,,,,,,,,,,,,,,,,,,,,,,,space,0.248,0,4,4,30,1,,,,,,,,,,,,,,,,,,,,,,,,,,,,,,,,,,,,,,,,,,,,,,,,,,,,,,,,,,,,
,,,,600444,001,2023-07-28_03h08.34.295,fluency,2022.2.4,Win32,143.7401179,,,,,,,,,,,,,,,,,,,,,,,,,,,,,,,,,,,,,,,,,,,,,,,,,,,,,,,,,,,,,,,,,,,,,,,,,,,"[""k""]",[0.38400000000001455],"[""k""]",[0.38400000000001455],0,0,0,0,0,1,,,,,,,,,,,,,,,,,,,,,,,,,,,,,,,,,,,,,,,,,,,,,,,,,,,,,,,,,,,,,,,,,,,
,,,,600444,001,2023-07-28_03h08.34.295,fluency,2022.2.4,Win32,143.7401179,,,,,,,,,,,,,,,,,,,,,,,8,8,img/B08_08.jpg,CONTROL,Press K as soon as you see a face, ,KJ,,,,,,,,,,,,,,,,,,,,,,,,,,,,,,,,1,0.3019,,,,,,,,,,,,,,,,,,,,,,,space,0.1845,0,5,5,85,1,,,,,,,,,,,,,,,,,,,,,,,,,,,,,,,,,,,,,,,,,,,,,,,,,,,,,,,,,,,,
,,,,600444,001,2023-07-28_03h08.34.295,fluency,2022.2.4,Win32,143.7401179,,,,,,,,,,,,,,,,,,,,,,,,,,,,,,,,,,,,,,,,,,,,,,,,,,,,,,,,,,,,,,,,,,,,,,,,,,,"[""k""]",[0.39089999985694135],"[""k""]",[0.39089999985694135],0,0,0,0,0,1,,,,,,,,,,,,,,,,,,,,,,,,,,,,,,,,,,,,,,,,,,,,,,,,,,,,,,,,,,,,,,,,,,,
,,,,600444,001,2023-07-28_03h08.34.295,fluency,2022.2.4,Win32,143.7401179,,,,,,,,,,,,,,,,,,,,,,,7,4,img/B04_07.jpg,CONTROL,Press K as soon as you see a face, ,KJ,,,,,,,,,,,,,,,,,,,,,,,,,,,,,,,,2,0.2864,,,,,,,,,,,,,,,,,,,,,,,space,0.2653,0,6,6,40,1,,,,,,,,,,,,,,,,,,,,,,,,,,,,,,,,,,,,,,,,,,,,,,,,,,,,,,,,,,,,
,,,,600444,001,2023-07-28_03h08.34.295,fluency,2022.2.4,Win32,143.7401179,,,,,,,,,,,,,,,,,,,,,,,,,,,,,,,,,,,,,,,,,,,,,,,,,,,,,,,,,,,,,,,,,,,,,,,,,,,"[""k""]",[0.2676000001430623],"[""k""]",[0.2676000001430623],0,0,0,0,0,1,,,,,,,,,,,,,,,,,,,,,,,,,,,,,,,,,,,,,,,,,,,,,,,,,,,,,,,,,,,,,,,,,,,
,,,,600444,001,2023-07-28_03h08.34.295,fluency,2022.2.4,Win32,143.7401179,,,,,,,,,,,,,,,,,,,,,,,1,2,img/B02_01.jpg,CONTROL,Press K as soon as you see a face, ,KJ,,,,,,,,,,,,,,,,,,,,,,,,,,,,,,,,1,0.3101,,,,,,,,,,,,,,,,,,,,,,,space,0.1945,0,7,7,12,1,,,,,,,,,,,,,,,,,,,,,,,,,,,,,,,,,,,,,,,,,,,,,,,,,,,,,,,,,,,,
,,,,600444,001,2023-07-28_03h08.34.295,fluency,2022.2.4,Win32,143.7401179,,,,,,,,,,,,,,,,,,,,,,,,,,,,,,,,,,,,,,,,,,,,,,,,,,,,,,,,,,,,,,,,,,,,,,,,,,,"[""k""]",[0.25060000014303796],"[""k""]",[0.25060000014303796],0,0,0,0,0,1,,,,,,,,,,,,,,,,,,,,,,,,,,,,,,,,,,,,,,,,,,,,,,,,,,,,,,,,,,,,,,,,,,,
,,,,600444,001,2023-07-28_03h08.34.295,fluency,2022.2.4,Win32,143.7401179,,,,,,,,,,,,,,,,,,,,,,,1,7,img/B07_01.jpg,CONTROL,Press K as soon as you see a face, ,KJ,,,,,,,,,,,,,,,,,,,,,,,,,,,,,,,,1,0.2464,,,,,,,,,,,,,,,,,,,,,,,space,0.1252,0,8,8,67,1,,,,,,,,,,,,,,,,,,,,,,,,,,,,,,,,,,,,,,,,,,,,,,,,,,,,,,,,,,,,
,,,,600444,001,2023-07-28_03h08.34.295,fluency,2022.2.4,Win32,143.7401179,,,,,,,,,,,,,,,,,,,,,,,,,,,,,,,,,,,,,,,,,,,,,,,,,,,,,,,,,,,,,,,,,,,,,,,,,,,"[""k""]",[0.2063000001907369],"[""k""]",[0.2063000001907369],0,0,0,0,0,1,,,,,,,,,,,,,,,,,,,,,,,,,,,,,,,,,,,,,,,,,,,,,,,,,,,,,,,,,,,,,,,,,,,
,,,,600444,001,2023-07-28_03h08.34.295,fluency,2022.2.4,Win32,143.7401179,,,,,,,,,,,,,,,,,,,,,,,6,6,img/B06_06.jpg,CONTROL,Press K as soon as you see a face, ,KJ,,,,,,,,,,,,,,,,,,,,,,,,,,,,,,,,1,0.2685,,,,,,,,,,,,,,,,,,,,,,,space,0.2016,0,9,9,61,1,,,,,,,,,,,,,,,,,,,,,,,,,,,,,,,,,,,,,,,,,,,,,,,,,,,,,,,,,,,,
,,,,600444,001,2023-07-28_03h08.34.295,fluency,2022.2.4,Win32,143.7401179,,,,,,,,,,,,,,,,,,,,,,,,,,,,,,,,,,,,,,,,,,,,,,,,,,,,,,,,,,,,,,,,,,,,,,,,,,,"[""k""]",[0.34850000000000136],"[""k""]",[0.34849999999997294],0,0,0,0,0,1,,,,,,,,,,,,,,,,,,,,,,,,,,,,,,,,,,,,,,,,,,,,,,,,,,,,,,,,,,,,,,,,,,,
,,,,600444,001,2023-07-28_03h08.34.295,fluency,2022.2.4,Win32,143.7401179,,,,,,,,,,,,,,,,,,,,,,,9,8,img/B08_09.jpg,CONTROL,Press K as soon as you see a face, ,KJ,,,,,,,,,,,,,,,,,,,,,,,,,,,,,,,,1,0.3008,,,,,,,,,,,,,,,,,,,,,,,space,0.1146,0,10,10,86,1,,,,,,,,,,,,,,,,,,,,,,,,,,,,,,,,,,,,,,,,,,,,,,,,,,,,,,,,,,,,
,,,,600444,001,2023-07-28_03h08.34.295,fluency,2022.2.4,Win32,143.7401179,,,,,,,,,,,,,,,,,,,,,,,,,,,,,,,,,,,,,,,,,,,,,,,,,,,,,,,,,,,,,,,,,,,,,,,,,,,"[""k""]",[0.27499999999997726],"[""k""]",[0.27499999999997726],0,0,0,0,0,1,,,,,,,,,,,,,,,,,,,,,,,,,,,,,,,,,,,,,,,,,,,,,,,,,,,,,,,,,,,,,,,,,,,
,,,,600444,001,2023-07-28_03h08.34.295,fluency,2022.2.4,Win32,143.7401179,,,,,,,,,,,,,,,,,,,,,,,9,7,img/B07_09.jpg,CONTROL,Press K as soon as you see a face, ,KJ,,,,,,,,,,,,,,,,,,,,,,,,,,,,,,,,2,0.2523,,,,,,,,,,,,,,,,,,,,,,,space,0.143,0,11,11,75,1,,,,,,,,,,,,,,,,,,,,,,,,,,,,,,,,,,,,,,,,,,,,,,,,,,,,,,,,,,,,
,,,,600444,001,2023-07-28_03h08.34.295,fluency,2022.2.4,Win32,143.7401179,,,,,,,,,,,,,,,,,,,,,,,,,,,,,,,,,,,,,,,,,,,,,,,,,,,,,,,,,,,,,,,,,,,,,,,,,,,"[""k""]",[0.21909999990464257],"[""k""]",[0.21909999990464257],0,0,0,0,0,1,,,,,,,,,,,,,,,,,,,,,,,,,,,,,,,,,,,,,,,,,,,,,,,,,,,,,,,,,,,,,,,,,,,
,,,,600444,001,2023-07-28_03h08.34.295,fluency,2022.2.4,Win32,143.7401179,,,,,,,,,,,,,,,,,,,,,,,2,2,img/B02_02.jpg,CONTROL,Press K as soon as you see a face, ,KJ,,,,,,,,,,,,,,,,,,,,,,,,,,,,,,,,1,0.2808,,,,,,,,,,,,,,,,,,,,,,,space,0.1963,0,12,12,13,1,,,,,,,,,,,,,,,,,,,,,,,,,,,,,,,,,,,,,,,,,,,,,,,,,,,,,,,,,,,,
,,,,600444,001,2023-07-28_03h08.34.295,fluency,2022.2.4,Win32,143.7401179,,,,,,,,,,,,,,,,,,,,,,,,,,,,,,,,,,,,,,,,,,,,,,,,,,,,,,,,,,,,,,,,,,,,,,,,,,,"[""k""]",[0.32200000000000273],"[""k""]",[0.32200000000000273],0,0,0,0,0,1,,,,,,,,,,,,,,,,,,,,,,,,,,,,,,,,,,,,,,,,,,,,,,,,,,,,,,,,,,,,,,,,,,,
,,,,600444,001,2023-07-28_03h08.34.295,fluency,2022.2.4,Win32,143.7401179,,,,,,,,,,,,,,,,,,,,,,,10,9,img/B09_10.jpg,CONTROL,Press K as soon as you see a face, ,KJ,,,,,,,,,,,,,,,,,,,,,,,,,,,,,,,,1,0.2528,,,,,,,,,,,,,,,,,,,,,,,space,0.1346,0,13,13,98,1,,,,,,,,,,,,,,,,,,,,,,,,,,,,,,,,,,,,,,,,,,,,,,,,,,,,,,,,,,,,
,,,,600444,001,2023-07-28_03h08.34.295,fluency,2022.2.4,Win32,143.7401179,,,,,,,,,,,,,,,,,,,,,,,,,,,,,,,,,,,,,,,,,,,,,,,,,,,,,,,,,,,,,,,,,,,,,,,,,,,"[""k""]",[0.1948999998569434],"[""k""]",[0.1948999998569434],0,0,0,0,0,1,,,,,,,,,,,,,,,,,,,,,,,,,,,,,,,,,,,,,,,,,,,,,,,,,,,,,,,,,,,,,,,,,,,
,,,,600444,001,2023-07-28_03h08.34.295,fluency,2022.2.4,Win32,143.7401179,,,,,,,,,,,,,,,,,,,,,,,5,5,img/B05_05.jpg,CONTROL,Press K as soon as you see a face, ,KJ,,,,,,,,,,,,,,,,,,,,,,,,,,,,,,,,1,0.2901,,,,,,,,,,,,,,,,,,,,,,,space,0.1348,0,14,14,49,1,,,,,,,,,,,,,,,,,,,,,,,,,,,,,,,,,,,,,,,,,,,,,,,,,,,,,,,,,,,,
,,,,600444,001,2023-07-28_03h08.34.295,fluency,2022.2.4,Win32,143.7401179,,,,,,,,,,,,,,,,,,,,,,,,,,,,,,,,,,,,,,,,,,,,,,,,,,,,,,,,,,,,,,,,,,,,,,,,,,,"[""k""]",[0.23569999980924194],"[""k""]",[0.23569999980924194],0,0,0,0,0,1,,,,,,,,,,,,,,,,,,,,,,,,,,,,,,,,,,,,,,,,,,,,,,,,,,,,,,,,,,,,,,,,,,,
,,,,600444,001,2023-07-28_03h08.34.295,fluency,2022.2.4,Win32,143.7401179,,,,,,,,,,,,,,,,,,,,,,,0,1,img/B01_00.jpg,CONTROL,Press K as soon as you see a face, ,KJ,,,,,,,,,,,,,,,,,,,,,,,,,,,,,,,,1,0.3161,,,,,,,,,,,,,,,,,,,,,,,space,0.1446,0,15,15,0,1,,,,,,,,,,,,,,,,,,,,,,,,,,,,,,,,,,,,,,,,,,,,,,,,,,,,,,,,,,,,
,,,,600444,001,2023-07-28_03h08.34.295,fluency,2022.2.4,Win32,143.7401179,,,,,,,,,,,,,,,,,,,,,,,,,,,,,,,,,,,,,,,,,,,,,,,,,,,,,,,,,,,,,,,,,,,,,,,,,,,"[""k""]",[0.2206000001430084],"[""k""]",[0.2206000001430084],0,0,0,0,0,1,,,,,,,,,,,,,,,,,,,,,,,,,,,,,,,,,,,,,,,,,,,,,,,,,,,,,,,,,,,,,,,,,,,
,,,,600444,001,2023-07-28_03h08.34.295,fluency,2022.2.4,Win32,143.7401179,,,,,,,,,,,,,,,,,,,,,,,9,2,img/B02_09.jpg,CONTROL,Press K as soon as you see a face, ,KJ,,,,,,,,,,,,,,,,,,,,,,,,,,,,,,,,2,0.2664,,,,,,,,,,,,,,,,,,,,,,,space,0.1486,0,16,16,20,1,,,,,,,,,,,,,,,,,,,,,,,,,,,,,,,,,,,,,,,,,,,,,,,,,,,,,,,,,,,,
,,,,600444,001,2023-07-28_03h08.34.295,fluency,2022.2.4,Win32,143.7401179,,,,,,,,,,,,,,,,,,,,,,,,,,,,,,,,,,,,,,,,,,,,,,,,,,,,,,,,,,,,,,,,,,,,,,,,,,,"[""k""]",[0.29599999999999227],"[""k""]",[0.29599999999999227],0,0,0,0,0,1,,,,,,,,,,,,,,,,,,,,,,,,,,,,,,,,,,,,,,,,,,,,,,,,,,,,,,,,,,,,,,,,,,,
,,,,600444,001,2023-07-28_03h08.34.295,fluency,2022.2.4,Win32,143.7401179,,,,,,,,,,,,,,,,,,,,,,,3,1,img/B01_03.jpg,CONTROL,Press K as soon as you see a face, ,KJ,,,,,,,,,,,,,,,,,,,,,,,,,,,,,,,,1,0.4047,,,,,,,,,,,,,,,,,,,,,,,space,0.3044,0,17,17,3,1,,,,,,,,,,,,,,,,,,,,,,,,,,,,,,,,,,,,,,,,,,,,,,,,,,,,,,,,,,,,
,,,,600444,001,2023-07-28_03h08.34.295,fluency,2022.2.4,Win32,143.7401179,,,,,,,,,,,,,,,,,,,,,,,,,,,,,,,,,,,,,,,,,,,,,,,,,,,,,,,,,,,,,,,,,,,,,,,,,,,"[""k""]",[0.46350000000001046],"[""k""]",[0.46350000000001046],0,0,0,0,0,1,,,,,,,,,,,,,,,,,,,,,,,,,,,,,,,,,,,,,,,,,,,,,,,,,,,,,,,,,,,,,,,,,,,
,,,,600444,001,2023-07-28_03h08.34.295,fluency,2022.2.4,Win32,143.7401179,,,,,,,,,,,,,,,,,,,,,,,6,9,img/B09_06.jpg,CONTROL,Press K as soon as you see a face, ,KJ,,,,,,,,,,,,,,,,,,,,,,,,,,,,,,,,1,0.334,,,,,,,,,,,,,,,,,,,,,,,space,0.1318,0,18,18,94,1,,,,,,,,,,,,,,,,,,,,,,,,,,,,,,,,,,,,,,,,,,,,,,,,,,,,,,,,,,,,
,,,,600444,001,2023-07-28_03h08.34.295,fluency,2022.2.4,Win32,143.7401179,,,,,,,,,,,,,,,,,,,,,,,,,,,,,,,,,,,,,,,,,,,,,,,,,,,,,,,,,,,,,,,,,,,,,,,,,,,"[""k""]",[0.38470000004764415],"[""k""]",[0.38470000004764415],0,0,0,0,0,1,,,,,,,,,,,,,,,,,,,,,,,,,,,,,,,,,,,,,,,,,,,,,,,,,,,,,,,,,,,,,,,,,,,
,,,,600444,001,2023-07-28_03h08.34.295,fluency,2022.2.4,Win32,143.7401179,,,,,,,,,,,,,,,,,,,,,,,10,6,img/B06_10.jpg,CONTROL,Press K as soon as you see a face, ,KJ,,,,,,,,,,,,,,,,,,,,,,,,,,,,,,,,1,0.3886,,,,,,,,,,,,,,,,,,,,,,,space,0.1118,0,19,19,65,1,,,,,,,,,,,,,,,,,,,,,,,,,,,,,,,,,,,,,,,,,,,,,,,,,,,,,,,,,,,,
,,,,600444,001,2023-07-28_03h08.34.295,fluency,2022.2.4,Win32,143.7401179,,,,,,,,,,,,,,,,,,,,,,,,,,,,,,,,,,,,,,,,,,,,,,,,,,,,,,,,,,,,,,,,,,,,,,,,,,,"[""k""]",[0.34820000004771146],"[""k""]",[0.34809999990466167],0,0,0,0,0,1,,,,,,,,,,,,,,,,,,,,,,,,,,,,,,,,,,,,,,,,,,,,,,,,,,,,,,,,,,,,,,,,,,,
,,,,600444,001,2023-07-28_03h08.34.295,fluency,2022.2.4,Win32,143.7401179,,,,,,,,,,,,,,,,,,,,,,,4,10,img/B10_04.jpg,CONTROL,Press K as soon as you see a face, ,KJ,,,,,,,,,,,,,,,,,,,,,,,,,,,,,,,,2,0.362,,,,,,,,,,,,,,,,,,,,,,,space,0.1042,0,20,20,103,1,,,,,,,,,,,,,,,,,,,,,,,,,,,,,,,,,,,,,,,,,,,,,,,,,,,,,,,,,,,,
,,,,600444,001,2023-07-28_03h08.34.295,fluency,2022.2.4,Win32,143.7401179,,,,,,,,,,,,,,,,,,,,,,,,,,,,,,,,,,,,,,,,,,,,,,,,,,,,,,,,,,,,,,,,,,,,,,,,,,,"[""k""]",[0.26279999995227854],"[""k""]",[0.2629000000953283],0,0,0,0,0,1,,,,,,,,,,,,,,,,,,,,,,,,,,,,,,,,,,,,,,,,,,,,,,,,,,,,,,,,,,,,,,,,,,,
,,,,600444,001,2023-07-28_03h08.34.295,fluency,2022.2.4,Win32,143.7401179,,,,,,,,,,,,,,,,,,,,,,,3,4,img/B04_03.jpg,CONTROL,Press K as soon as you see a face, ,KJ,,,,,,,,,,,,,,,,,,,,,,,,,,,,,,,,1,0.2814,,,,,,,,,,,,,,,,,,,,,,,space,0.1362,0,21,21,36,1,,,,,,,,,,,,,,,,,,,,,,,,,,,,,,,,,,,,,,,,,,,,,,,,,,,,,,,,,,,,
,,,,600444,001,2023-07-28_03h08.34.295,fluency,2022.2.4,Win32,143.7401179,,,,,,,,,,,,,,,,,,,,,,,,,,,,,,,,,,,,,,,,,,,,,,,,,,,,,,,,,,,,,,,,,,,,,,,,,,,"[""k""]",[0.2853999998569634],"[""k""]",[0.2853999998569634],0,0,0,0,0,1,,,,,,,,,,,,,,,,,,,,,,,,,,,,,,,,,,,,,,,,,,,,,,,,,,,,,,,,,,,,,,,,,,,
,,,,600444,001,2023-07-28_03h08.34.295,fluency,2022.2.4,Win32,143.7401179,,,,,,,,,,,,,,,,,,,,,,,7,7,img/B07_07.jpg,CONTROL,Press K as soon as you see a face, ,KJ,,,,,,,,,,,,,,,,,,,,,,,,,,,,,,,,1,0.3907,,,,,,,,,,,,,,,,,,,,,,,space,0.1187,0,22,22,73,1,,,,,,,,,,,,,,,,,,,,,,,,,,,,,,,,,,,,,,,,,,,,,,,,,,,,,,,,,,,,
,,,,600444,001,2023-07-28_03h08.34.295,fluency,2022.2.4,Win32,143.7401179,,,,,,,,,,,,,,,,,,,,,,,,,,,,,,,,,,,,,,,,,,,,,,,,,,,,,,,,,,,,,,,,,,,,,,,,,,,"[""k""]",[0.48670000004767644],"[""k""]",[0.48670000004767644],0,0,0,0,0,1,,,,,,,,,,,,,,,,,,,,,,,,,,,,,,,,,,,,,,,,,,,,,,,,,,,,,,,,,,,,,,,,,,,
,,,,600444,001,2023-07-28_03h08.34.295,fluency,2022.2.4,Win32,143.7401179,,,,,,,,,,,,,,,,,,,,,,,0,9,img/B09_00.jpg,CONTROL,Press K as soon as you see a face, ,KJ,,,,,,,,,,,,,,,,,,,,,,,,,,,,,,,,1,0.3648,,,,,,,,,,,,,,,,,,,,,,,space,0.1323,0,23,23,88,1,,,,,,,,,,,,,,,,,,,,,,,,,,,,,,,,,,,,,,,,,,,,,,,,,,,,,,,,,,,,
,,,,600444,001,2023-07-28_03h08.34.295,fluency,2022.2.4,Win32,143.7401179,,,,,,,,,,,,,,,,,,,,,,,,,,,,,,,,,,,,,,,,,,,,,,,,,,,,,,,,,,,,,,,,,,,,,,,,,,,"[""k""]",[0.45469999980923603],"[""k""]",[0.4547000000476942],0,0,0,0,0,1,,,,,,,,,,,,,,,,,,,,,,,,,,,,,,,,,,,,,,,,,,,,,,,,,,,,,,,,,,,,,,,,,,,
,,,,600444,001,2023-07-28_03h08.34.295,fluency,2022.2.4,Win32,143.7401179,,,,,,,,,,,,,,,,,,,,,,,4,9,img/B09_04.jpg,CONTROL,Press K as soon as you see a face, ,KJ,,,,,,,,,,,,,,,,,,,,,,,,,,,,,,,,1,0.5769,,,,,,,,,,,,,,,,,,,,,,,space,0.1059,0,24,24,92,1,,,,,,,,,,,,,,,,,,,,,,,,,,,,,,,,,,,,,,,,,,,,,,,,,,,,,,,,,,,,
,,,,600444,001,2023-07-28_03h08.34.295,fluency,2022.2.4,Win32,143.7401179,,,,,,,,,,,,,,,,,,,,,,,,,,,,,,,,,,,,,,,,,,,,,,,,,,,,,,,,,,,,,,,,,,,,,,,,,,,"[""k""]",[0.4862999999522799],"[""k""]",[0.4862999999522799],0,0,0,0,0,1,,,,,,,,,,,,,,,,,,,,,,,,,,,,,,,,,,,,,,,,,,,,,,,,,,,,,,,,,,,,,,,,,,,
,,,,600444,001,2023-07-28_03h08.34.295,fluency,2022.2.4,Win32,143.7401179,,,,,,,,,,,,,,,,,,,,,,,4,7,img/B07_04.jpg,CONTROL,Press K as soon as you see a face, ,KJ,,,,,,,,,,,,,,,,,,,,,,,,,,,,,,,,1,0.2694,,,,,,,,,,,,,,,,,,,,,,,space,0.1199,0,25,25,70,1,,,,,,,,,,,,,,,,,,,,,,,,,,,,,,,,,,,,,,,,,,,,,,,,,,,,,,,,,,,,
,,,,600444,001,2023-07-28_03h08.34.295,fluency,2022.2.4,Win32,143.7401179,,,,,,,,,,,,,,,,,,,,,,,,,,,,,,,,,,,,,,,,,,,,,,,,,,,,,,,,,,,,,,,,,,,,,,,,,,,"[""k""]",[0.23579999995229173],"[""k""]",[0.23579999995229173],0,0,0,0,0,1,,,,,,,,,,,,,,,,,,,,,,,,,,,,,,,,,,,,,,,,,,,,,,,,,,,,,,,,,,,,,,,,,,,
,,,,600444,001,2023-07-28_03h08.34.295,fluency,2022.2.4,Win32,143.7401179,,,,,,,,,,,,,,,,,,,,,,,8,1,img/B01_08.jpg,CONTROL,Press K as soon as you see a face, ,KJ,,,,,,,,,,,,,,,,,,,,,,,,,,,,,,,,1,0.3635,,,,,,,,,,,,,,,,,,,,,,,space,0.106,0,26,26,8,1,,,,,,,,,,,,,,,,,,,,,,,,,,,,,,,,,,,,,,,,,,,,,,,,,,,,,,,,,,,,
,,,,600444,001,2023-07-28_03h08.34.295,fluency,2022.2.4,Win32,143.7401179,,,,,,,,,,,,,,,,,,,,,,,,,,,,,,,,,,,,,,,,,,,,,,,,,,,,,,,,,,,,,,,,,,,,,,,,,,,"[""k""]",[0.23980000019076897],"[""k""]",[0.23970000004771919],0,0,0,0,0,1,,,,,,,,,,,,,,,,,,,,,,,,,,,,,,,,,,,,,,,,,,,,,,,,,,,,,,,,,,,,,,,,,,,
,,,,600444,001,2023-07-28_03h08.34.295,fluency,2022.2.4,Win32,143.7401179,,,,,,,,,,,,,,,,,,,,,,,3,7,img/B07_03.jpg,CONTROL,Press K as soon as you see a face, ,KJ,,,,,,,,,,,,,,,,,,,,,,,,,,,,,,,,1,0.2958,,,,,,,,,,,,,,,,,,,,,,,space,0.1375,0,27,27,69,1,,,,,,,,,,,,,,,,,,,,,,,,,,,,,,,,,,,,,,,,,,,,,,,,,,,,,,,,,,,,
,,,,600444,001,2023-07-28_03h08.34.295,fluency,2022.2.4,Win32,143.7401179,,,,,,,,,,,,,,,,,,,,,,,,,,,,,,,,,,,,,,,,,,,,,,,,,,,,,,,,,,,,,,,,,,,,,,,,,,,"[""k""]",[0.2701000001430316],"[""k""]",[0.2699999999999818],0,0,0,0,0,1,,,,,,,,,,,,,,,,,,,,,,,,,,,,,,,,,,,,,,,,,,,,,,,,,,,,,,,,,,,,,,,,,,,
,,,,600444,001,2023-07-28_03h08.34.295,fluency,2022.2.4,Win32,143.7401179,,,,,,,,,,,,,,,,,,,,,,,7,6,img/B06_07.jpg,CONTROL,Press K as soon as you see a face, ,KJ,,,,,,,,,,,,,,,,,,,,,,,,,,,,,,,,1,0.351,,,,,,,,,,,,,,,,,,,,,,,space,0.1747,0,28,28,62,1,,,,,,,,,,,,,,,,,,,,,,,,,,,,,,,,,,,,,,,,,,,,,,,,,,,,,,,,,,,,
,,,,600444,001,2023-07-28_03h08.34.295,fluency,2022.2.4,Win32,143.7401179,,,,,,,,,,,,,,,,,,,,,,,,,,,,,,,,,,,,,,,,,,,,,,,,,,,,,,,,,,,,,,,,,,,,,,,,,,,"[""k""]",[0.25600000000002865],"[""k""]",[0.25600000000002865],0,0,0,0,0,1,,,,,,,,,,,,,,,,,,,,,,,,,,,,,,,,,,,,,,,,,,,,,,,,,,,,,,,,,,,,,,,,,,,
,,,,600444,001,2023-07-28_03h08.34.295,fluency,2022.2.4,Win32,143.7401179,,,,,,,,,,,,,,,,,,,,,,,5,4,img/B04_05.jpg,CONTROL,Press K as soon as you see a face, ,KJ,,,,,,,,,,,,,,,,,,,,,,,,,,,,,,,,2,0.3062,,,,,,,,,,,,,,,,,,,,,,,space,0.3891,0,29,29,38,1,,,,,,,,,,,,,,,,,,,,,,,,,,,,,,,,,,,,,,,,,,,,,,,,,,,,,,,,,,,,
,,,,600444,001,2023-07-28_03h08.34.295,fluency,2022.2.4,Win32,143.7401179,,,,,,,,,,,,,,,,,,,,,,,,,,,,,,,,,,,,,,,,,,,,,,,,,,,,,,,,,,,,,,,,,,,,,,,,,,,"[""k""]",[0.43470000004771236],"[""k""]",[0.43470000004771236],0,0,0,0,0,1,,,,,,,,,,,,,,,,,,,,,,,,,,,,,,,,,,,,,,,,,,,,,,,,,,,,,,,,,,,,,,,,,,,
,,,,600444,001,2023-07-28_03h08.34.295,fluency,2022.2.4,Win32,143.7401179,,,,,,,,,,,,,,,,,,,,,,,4,6,img/B06_04.jpg,CONTROL,Press K as soon as you see a face, ,KJ,,,,,,,,,,,,,,,,,,,,,,,,,,,,,,,,1,0.2386,,,,,,,,,,,,,,,,,,,,,,,space,0.1426,0,30,30,59,1,,,,,,,,,,,,,,,,,,,,,,,,,,,,,,,,,,,,,,,,,,,,,,,,,,,,,,,,,,,,
,,,,600444,001,2023-07-28_03h08.34.295,fluency,2022.2.4,Win32,143.7401179,,,,,,,,,,,,,,,,,,,,,,,,,,,,,,,,,,,,,,,,,,,,,,,,,,,,,,,,,,,,,,,,,,,,,,,,,,,"[""k""]",[0.2489999999999668],"[""k""]",[0.2489999999999668],0,0,0,0,0,1,,,,,,,,,,,,,,,,,,,,,,,,,,,,,,,,,,,,,,,,,,,,,,,,,,,,,,,,,,,,,,,,,,,
,,,,600444,001,2023-07-28_03h08.34.295,fluency,2022.2.4,Win32,143.7401179,,,,,,,,,,,,,,,,,,,,,,,10,10,img/B10_10.jpg,CONTROL,Press K as soon as you see a face, ,KJ,,,,,,,,,,,,,,,,,,,,,,,,,,,,,,,,1,0.2693,,,,,,,,,,,,,,,,,,,,,,,space,0.1039,0,31,31,109,1,,,,,,,,,,,,,,,,,,,,,,,,,,,,,,,,,,,,,,,,,,,,,,,,,,,,,,,,,,,,
,,,,600444,001,2023-07-28_03h08.34.295,fluency,2022.2.4,Win32,143.7401179,,,,,,,,,,,,,,,,,,,,,,,,,,,,,,,,,,,,,,,,,,,,,,,,,,,,,,,,,,,,,,,,,,,,,,,,,,,"[""k""]",[0.34210000014309117],"[""k""]",[0.34210000014309117],0,0,0,0,0,1,,,,,,,,,,,,,,,,,,,,,,,,,,,,,,,,,,,,,,,,,,,,,,,,,,,,,,,,,,,,,,,,,,,
,,,,600444,001,2023-07-28_03h08.34.295,fluency,2022.2.4,Win32,143.7401179,,,,,,,,,,,,,,,,,,,,,,,10,2,img/B02_10.jpg,CONTROL,Press K as soon as you see a face, ,KJ,,,,,,,,,,,,,,,,,,,,,,,,,,,,,,,,2,0.2916,,,,,,,,,,,,,,,,,,,,,,,space,0.1859,0,32,32,21,1,,,,,,,,,,,,,,,,,,,,,,,,,,,,,,,,,,,,,,,,,,,,,,,,,,,,,,,,,,,,
,,,,600444,001,2023-07-28_03h08.34.295,fluency,2022.2.4,Win32,143.7401179,,,,,,,,,,,,,,,,,,,,,,,,,,,,,,,,,,,,,,,,,,,,,,,,,,,,,,,,,,,,,,,,,,,,,,,,,,,"[""k""]",[0.2542000000476605],"[""k""]",[0.25360000014302386],0,0,0,0,0,1,,,,,,,,,,,,,,,,,,,,,,,,,,,,,,,,,,,,,,,,,,,,,,,,,,,,,,,,,,,,,,,,,,,
,,,,600444,001,2023-07-28_03h08.34.295,fluency,2022.2.4,Win32,143.7401179,,,,,,,,,,,,,,,,,,,,,,,10,5,img/B05_10.jpg,CONTROL,Press K as soon as you see a face, ,KJ,,,,,,,,,,,,,,,,,,,,,,,,,,,,,,,,1,0.3633,,,,,,,,,,,,,,,,,,,,,,,space,0.0989,0,33,33,54,1,,,,,,,,,,,,,,,,,,,,,,,,,,,,,,,,,,,,,,,,,,,,,,,,,,,,,,,,,,,,
,,,,600444,001,2023-07-28_03h08.34.295,fluency,2022.2.4,Win32,143.7401179,,,,,,,,,,,,,,,,,,,,,,,,,,,,,,,,,,,,,,,,,,,,,,,,,,,,,,,,,,,,,,,,,,,,,,,,,,,"[""k""]",[0.26230000019069166],"[""k""]",[0.26230000019069166],0,0,0,0,0,1,,,,,,,,,,,,,,,,,,,,,,,,,,,,,,,,,,,,,,,,,,,,,,,,,,,,,,,,,,,,,,,,,,,
,,,,600444,001,2023-07-28_03h08.34.295,fluency,2022.2.4,Win32,143.7401179,,,,,,,,,,,,,,,,,,,,,,,3,10,img/B10_03.jpg,CONTROL,Press K as soon as you see a face, ,KJ,,,,,,,,,,,,,,,,,,,,,,,,,,,,,,,,2,0.305,,,,,,,,,,,,,,,,,,,,,,,space,0.2231,0,34,34,102,1,,,,,,,,,,,,,,,,,,,,,,,,,,,,,,,,,,,,,,,,,,,,,,,,,,,,,,,,,,,,
,,,,600444,001,2023-07-28_03h08.34.295,fluency,2022.2.4,Win32,143.7401179,,,,,,,,,,,,,,,,,,,,,,,,,,,,,,,,,,,,,,,,,,,,,,,,,,,,,,,,,,,,,,,,,,,,,,,,,,,"[""k""]",[0.25549999999998363],"[""k""]",[0.2555999999046321],0,0,0,0,0,1,,,,,,,,,,,,,,,,,,,,,,,,,,,,,,,,,,,,,,,,,,,,,,,,,,,,,,,,,,,,,,,,,,,
,,,,600444,001,2023-07-28_03h08.34.295,fluency,2022.2.4,Win32,143.7401179,,,,,,,,,,,,,,,,,,,,,,,7,5,img/B05_07.jpg,CONTROL,Press K as soon as you see a face, ,KJ,,,,,,,,,,,,,,,,,,,,,,,,,,,,,,,,1,0.4692,,,,,,,,,,,,,,,,,,,,,,,space,0.0647,0,35,35,51,1,,,,,,,,,,,,,,,,,,,,,,,,,,,,,,,,,,,,,,,,,,,,,,,,,,,,,,,,,,,,
,,,,600444,001,2023-07-28_03h08.34.295,fluency,2022.2.4,Win32,143.7401179,,,,,,,,,,,,,,,,,,,,,,,,,,,,,,,,,,,,,,,,,,,,,,,,,,,,,,,,,,,,,,,,,,,,,,,,,,,"[""k""]",[0.3834000000953779],"[""k""]",[0.3833000001907294],0,0,0,0,0,1,,,,,,,,,,,,,,,,,,,,,,,,,,,,,,,,,,,,,,,,,,,,,,,,,,,,,,,,,,,,,,,,,,,
,,,,600444,001,2023-07-28_03h08.34.295,fluency,2022.2.4,Win32,143.7401179,,,,,,,,,,,,,,,,,,,,,,,8,7,img/B07_08.jpg,CONTROL,Press K as soon as you see a face, ,KJ,,,,,,,,,,,,,,,,,,,,,,,,,,,,,,,,2,0.2623,,,,,,,,,,,,,,,,,,,,,,,space,0.1698,0,36,36,74,1,,,,,,,,,,,,,,,,,,,,,,,,,,,,,,,,,,,,,,,,,,,,,,,,,,,,,,,,,,,,
,,,,600444,001,2023-07-28_03h08.34.295,fluency,2022.2.4,Win32,143.7401179,,,,,,,,,,,,,,,,,,,,,,,,,,,,,,,,,,,,,,,,,,,,,,,,,,,,,,,,,,,,,,,,,,,,,,,,,,,"[""k""]",[0.26910000014305524],"[""k""]",[0.26910000014305524],0,0,0,0,0,1,,,,,,,,,,,,,,,,,,,,,,,,,,,,,,,,,,,,,,,,,,,,,,,,,,,,,,,,,,,,,,,,,,,
,,,,600444,001,2023-07-28_03h08.34.295,fluency,2022.2.4,Win32,143.7401179,,,,,,,,,,,,,,,,,,,,,,,2,6,img/B06_02.jpg,CONTROL,Press K as soon as you see a face, ,KJ,,,,,,,,,,,,,,,,,,,,,,,,,,,,,,,,1,0.3149,,,,,,,,,,,,,,,,,,,,,,,space,0.1209,0,37,37,57,1,,,,,,,,,,,,,,,,,,,,,,,,,,,,,,,,,,,,,,,,,,,,,,,,,,,,,,,,,,,,
,,,,600444,001,2023-07-28_03h08.34.295,fluency,2022.2.4,Win32,143.7401179,,,,,,,,,,,,,,,,,,,,,,,,,,,,,,,,,,,,,,,,,,,,,,,,,,,,,,,,,,,,,,,,,,,,,,,,,,,"[""k""]",[0.23270000004771418],"[""k""]",[0.2325999999046644],0,0,0,0,0,1,,,,,,,,,,,,,,,,,,,,,,,,,,,,,,,,,,,,,,,,,,,,,,,,,,,,,,,,,,,,,,,,,,,
,,,,600444,001,2023-07-28_03h08.34.295,fluency,2022.2.4,Win32,143.7401179,,,,,,,,,,,,,,,,,,,,,,,9,6,img/B06_09.jpg,CONTROL,Press K as soon as you see a face, ,KJ,,,,,,,,,,,,,,,,,,,,,,,,,,,,,,,,2,0.4699,,,,,,,,,,,,,,,,,,,,,,,space,0.1728,0,38,38,64,1,,,,,,,,,,,,,,,,,,,,,,,,,,,,,,,,,,,,,,,,,,,,,,,,,,,,,,,,,,,,
,,,,600444,001,2023-07-28_03h08.34.295,fluency,2022.2.4,Win32,143.7401179,,,,,,,,,,,,,,,,,,,,,,,,,,,,,,,,,,,,,,,,,,,,,,,,,,,,,,,,,,,,,,,,,,,,,,,,,,,"[""k""]",[0.3059000000953347],"[""k""]",[0.3057999999522849],0,0,0,0,0,1,,,,,,,,,,,,,,,,,,,,,,,,,,,,,,,,,,,,,,,,,,,,,,,,,,,,,,,,,,,,,,,,,,,
,,,,600444,001,2023-07-28_03h08.34.295,fluency,2022.2.4,Win32,143.7401179,,,,,,,,,,,,,,,,,,,,,,,0,3,img/B03_00.jpg,CONTROL,Press K as soon as you see a face, ,KJ,,,,,,,,,,,,,,,,,,,,,,,,,,,,,,,,1,0.3579,,,,,,,,,,,,,,,,,,,,,,,space,0.1266,0,39,39,22,1,,,,,,,,,,,,,,,,,,,,,,,,,,,,,,,,,,,,,,,,,,,,,,,,,,,,,,,,,,,,
,,,,600444,001,2023-07-28_03h08.34.295,fluency,2022.2.4,Win32,143.7401179,,,,,,,,,,,,,,,,,,,,,,,,,,,,,,,,,,,,,,,,,,,,,,,,,,,,,,,,,,,,,,,,,,,,,,,,,,,"[""k""]",[0.31479999995229946],"[""k""]",[0.314099999904613],0,0,0,0,0,1,,,,,,,,,,,,,,,,,,,,,,,,,,,,,,,,,,,,,,,,,,,,,,,,,,,,,,,,,,,,,,,,,,,
,,,,600444,001,2023-07-28_03h08.34.295,fluency,2022.2.4,Win32,143.7401179,,,,,,,,,,,,,,,,,,,,,,,9,3,img/B03_09.jpg,CONTROL,Press K as soon as you see a face, ,KJ,,,,,,,,,,,,,,,,,,,,,,,,,,,,,,,,1,0.3139,,,,,,,,,,,,,,,,,,,,,,,space,0.1387,0,40,40,31,1,,,,,,,,,,,,,,,,,,,,,,,,,,,,,,,,,,,,,,,,,,,,,,,,,,,,,,,,,,,,
,,,,600444,001,2023-07-28_03h08.34.295,fluency,2022.2.4,Win32,143.7401179,,,,,,,,,,,,,,,,,,,,,,,,,,,,,,,,,,,,,,,,,,,,,,,,,,,,,,,,,,,,,,,,,,,,,,,,,,,"[""k""]",[0.2692000000476469],"[""k""]",[0.2692000000476469],0,0,0,0,0,1,,,,,,,,,,,,,,,,,,,,,,,,,,,,,,,,,,,,,,,,,,,,,,,,,,,,,,,,,,,,,,,,,,,
,,,,600444,001,2023-07-28_03h08.34.295,fluency,2022.2.4,Win32,143.7401179,,,,,,,,,,,,,,,,,,,,,,,0,10,img/B10_00.jpg,CONTROL,Press K as soon as you see a face, ,KJ,,,,,,,,,,,,,,,,,,,,,,,,,,,,,,,,2,0.3282,,,,,,,,,,,,,,,,,,,,,,,space,0.2029,0,41,41,99,1,,,,,,,,,,,,,,,,,,,,,,,,,,,,,,,,,,,,,,,,,,,,,,,,,,,,,,,,,,,,
,,,,600444,001,2023-07-28_03h08.34.295,fluency,2022.2.4,Win32,143.7401179,,,,,,,,,,,,,,,,,,,,,,,,,,,,,,,,,,,,,,,,,,,,,,,,,,,,,,,,,,,,,,,,,,,,,,,,,,,"[""k""]",[0.4672000000476828],"[""k""]",[0.467099999904633],0,0,0,0,0,1,,,,,,,,,,,,,,,,,,,,,,,,,,,,,,,,,,,,,,,,,,,,,,,,,,,,,,,,,,,,,,,,,,,
,,,,600444,001,2023-07-28_03h08.34.295,fluency,2022.2.4,Win32,143.7401179,,,,,,,,,,,,,,,,,,,,,,,2,9,img/B09_02.jpg,CONTROL,Press K as soon as you see a face, ,KJ,,,,,,,,,,,,,,,,,,,,,,,,,,,,,,,,1,0.3455,,,,,,,,,,,,,,,,,,,,,,,space,0.1412,0,42,42,90,1,,,,,,,,,,,,,,,,,,,,,,,,,,,,,,,,,,,,,,,,,,,,,,,,,,,,,,,,,,,,
,,,,600444,001,2023-07-28_03h08.34.295,fluency,2022.2.4,Win32,143.7401179,,,,,,,,,,,,,,,,,,,,,,,,,,,,,,,,,,,,,,,,,,,,,,,,,,,,,,,,,,,,,,,,,,,,,,,,,,,"[""k""]",[0.2715000000000032],"[""k""]",[0.2715000000000032],0,0,0,0,0,1,,,,,,,,,,,,,,,,,,,,,,,,,,,,,,,,,,,,,,,,,,,,,,,,,,,,,,,,,,,,,,,,,,,
,,,,600444,001,2023-07-28_03h08.34.295,fluency,2022.2.4,Win32,143.7401179,,,,,,,,,,,,,,,,,,,,,,,2,5,img/B05_02.jpg,CONTROL,Press K as soon as you see a face, ,KJ,,,,,,,,,,,,,,,,,,,,,,,,,,,,,,,,1,0.2937,,,,,,,,,,,,,,,,,,,,,,,space,0.1541,0,43,43,46,1,,,,,,,,,,,,,,,,,,,,,,,,,,,,,,,,,,,,,,,,,,,,,,,,,,,,,,,,,,,,
,,,,600444,001,2023-07-28_03h08.34.295,fluency,2022.2.4,Win32,143.7401179,,,,,,,,,,,,,,,,,,,,,,,,,,,,,,,,,,,,,,,,,,,,,,,,,,,,,,,,,,,,,,,,,,,,,,,,,,,"[""k""]",[0.6235999999046271],"[""k""]",[0.6235999999046271],0,0,0,0,0,1,,,,,,,,,,,,,,,,,,,,,,,,,,,,,,,,,,,,,,,,,,,,,,,,,,,,,,,,,,,,,,,,,,,
,,,,600444,001,2023-07-28_03h08.34.295,fluency,2022.2.4,Win32,143.7401179,,,,,,,,,,,,,,,,,,,,,,,5,6,img/B06_05.jpg,CONTROL,Press K as soon as you see a face, ,KJ,,,,,,,,,,,,,,,,,,,,,,,,,,,,,,,,1,0.3182,,,,,,,,,,,,,,,,,,,,,,,space,0.1818,0,44,44,60,1,,,,,,,,,,,,,,,,,,,,,,,,,,,,,,,,,,,,,,,,,,,,,,,,,,,,,,,,,,,,
,,,,600444,001,2023-07-28_03h08.34.295,fluency,2022.2.4,Win32,143.7401179,,,,,,,,,,,,,,,,,,,,,,,,,,,,,,,,,,,,,,,,,,,,,,,,,,,,,,,,,,,,,,,,,,,,,,,,,,,"[""k""]",[0.28649999999998954],"[""k""]",[0.28649999999998954],0,0,0,0,0,1,,,,,,,,,,,,,,,,,,,,,,,,,,,,,,,,,,,,,,,,,,,,,,,,,,,,,,,,,,,,,,,,,,,
,,,,600444,001,2023-07-28_03h08.34.295,fluency,2022.2.4,Win32,143.7401179,,,,,,,,,,,,,,,,,,,,,,,6,5,img/B05_06.jpg,CONTROL,Press K as soon as you see a face, ,KJ,,,,,,,,,,,,,,,,,,,,,,,,,,,,,,,,1,0.3177,,,,,,,,,,,,,,,,,,,,,,,space,0.1447,0,45,45,50,1,,,,,,,,,,,,,,,,,,,,,,,,,,,,,,,,,,,,,,,,,,,,,,,,,,,,,,,,,,,,
,,,,600444,001,2023-07-28_03h08.34.295,fluency,2022.2.4,Win32,143.7401179,,,,,,,,,,,,,,,,,,,,,,,,,,,,,,,,,,,,,,,,,,,,,,,,,,,,,,,,,,,,,,,,,,,,,,,,,,,"[""k""]",[0.3054000000953465],"[""k""]",[0.3054000000953465],0,0,0,0,0,1,,,,,,,,,,,,,,,,,,,,,,,,,,,,,,,,,,,,,,,,,,,,,,,,,,,,,,,,,,,,,,,,,,,
,,,,600444,001,2023-07-28_03h08.34.295,fluency,2022.2.4,Win32,143.7401179,,,,,,,,,,,,,,,,,,,,,,,1,6,img/B06_01.jpg,CONTROL,Press K as soon as you see a face, ,KJ,,,,,,,,,,,,,,,,,,,,,,,,,,,,,,,,1,0.363,,,,,,,,,,,,,,,,,,,,,,,space,0.4758,0,46,46,56,1,,,,,,,,,,,,,,,,,,,,,,,,,,,,,,,,,,,,,,,,,,,,,,,,,,,,,,,,,,,,
,,,,600444,001,2023-07-28_03h08.34.295,fluency,2022.2.4,Win32,143.7401179,,,,,,,,,,,,,,,,,,,,,,,,,,,,,,,,,,,,,,,,,,,,,,,,,,,,,,,,,,,,,,,,,,,,,,,,,,,"[""k""]",[0.31270000004769827],"[""k""]",[0.31270000004769827],0,0,0,0,0,1,,,,,,,,,,,,,,,,,,,,,,,,,,,,,,,,,,,,,,,,,,,,,,,,,,,,,,,,,,,,,,,,,,,
,,,,600444,001,2023-07-28_03h08.34.295,fluency,2022.2.4,Win32,143.7401179,,,,,,,,,,,,,,,,,,,,,,,10,3,img/B03_10.jpg,CONTROL,Press K as soon as you see a face, ,KJ,,,,,,,,,,,,,,,,,,,,,,,,,,,,,,,,1,0.3909,,,,,,,,,,,,,,,,,,,,,,,space,0.4039,0,47,47,32,1,,,,,,,,,,,,,,,,,,,,,,,,,,,,,,,,,,,,,,,,,,,,,,,,,,,,,,,,,,,,
,,,,600444,001,2023-07-28_03h08.34.295,fluency,2022.2.4,Win32,143.7401179,,,,,,,,,,,,,,,,,,,,,,,,,,,,,,,,,,,,,,,,,,,,,,,,,,,,,,,,,,,,,,,,,,,,,,,,,,,"[""k""]",[0.30400000000003047],"[""k""]",[0.30410000014308025],0,0,0,0,0,1,,,,,,,,,,,,,,,,,,,,,,,,,,,,,,,,,,,,,,,,,,,,,,,,,,,,,,,,,,,,,,,,,,,
,,,,600444,001,2023-07-28_03h08.34.295,fluency,2022.2.4,Win32,143.7401179,,,,,,,,,,,,,,,,,,,,,,,10,1,img/B01_10.jpg,CONTROL,Press K as soon as you see a face, ,KJ,,,,,,,,,,,,,,,,,,,,,,,,,,,,,,,,1,0.5258,,,,,,,,,,,,,,,,,,,,,,,space,0.1335,0,48,48,10,1,,,,,,,,,,,,,,,,,,,,,,,,,,,,,,,,,,,,,,,,,,,,,,,,,,,,,,,,,,,,
,,,,600444,001,2023-07-28_03h08.34.295,fluency,2022.2.4,Win32,143.7401179,,,,,,,,,,,,,,,,,,,,,,,,,,,,,,,,,,,,,,,,,,,,,,,,,,,,,,,,,,,,,,,,,,,,,,,,,,,"[""k""]",[0.2444000000953679],"[""k""]",[0.2444000000953679],0,0,0,0,0,1,,,,,,,,,,,,,,,,,,,,,,,,,,,,,,,,,,,,,,,,,,,,,,,,,,,,,,,,,,,,,,,,,,,
,,,,600444,001,2023-07-28_03h08.34.295,fluency,2022.2.4,Win32,143.7401179,,,,,,,,,,,,,,,,,,,,,,,7,1,img/B01_07.jpg,CONTROL,Press K as soon as you see a face, ,KJ,,,,,,,,,,,,,,,,,,,,,,,,,,,,,,,,1,0.32,,,,,,,,,,,,,,,,,,,,,,,space,0.1265,0,49,49,7,1,,,,,,,,,,,,,,,,,,,,,,,,,,,,,,,,,,,,,,,,,,,,,,,,,,,,,,,,,,,,
,,,,600444,001,2023-07-28_03h08.34.295,fluency,2022.2.4,Win32,143.7401179,,,,,,,,,,,,,,,,,,,,,,,,,,,,,,,,,,,,,,,,,,,,,,,,,,,,,,,,,,,,,,,,,,,,,,,,,,,"[""k""]",[0.2779000000953715],"[""k""]",[0.2779000000953715],0,0,0,0,0,1,,,,,,,,,,,,,,,,,,,,,,,,,,,,,,,,,,,,,,,,,,,,,,,,,,,,,,,,,,,,,,,,,,,
,,,,600444,001,2023-07-28_03h08.34.295,fluency,2022.2.4,Win32,143.7401179,,,,,,,,,,,,,,,,,,,,,,,9,4,img/B04_09.jpg,CONTROL,Press K as soon as you see a face, ,KJ,,,,,,,,,,,,,,,,,,,,,,,,,,,,,,,,2,0.3036,,,,,,,,,,,,,,,,,,,,,,,space,0.1687,0,50,50,42,1,,,,,,,,,,,,,,,,,,,,,,,,,,,,,,,,,,,,,,,,,,,,,,,,,,,,,,,,,,,,
,,,,600444,001,2023-07-28_03h08.34.295,fluency,2022.2.4,Win32,143.7401179,,,,,,,,,,,,,,,,,,,,,,,,,,,,,,,,,,,,,,,,,,,,,,,,,,,,,,,,,,,,,,,,,,,,,,,,,,,"[""k""]",[0.23670000004767644],"[""k""]",[0.23659999990462666],0,0,0,0,0,1,,,,,,,,,,,,,,,,,,,,,,,,,,,,,,,,,,,,,,,,,,,,,,,,,,,,,,,,,,,,,,,,,,,
,,,,600444,001,2023-07-28_03h08.34.295,fluency,2022.2.4,Win32,143.7401179,,,,,,,,,,,,,,,,,,,,,,,7,2,img/B02_07.jpg,CONTROL,Press K as soon as you see a face, ,KJ,,,,,,,,,,,,,,,,,,,,,,,,,,,,,,,,2,0.3865,,,,,,,,,,,,,,,,,,,,,,,space,0.1435,0,51,51,18,1,,,,,,,,,,,,,,,,,,,,,,,,,,,,,,,,,,,,,,,,,,,,,,,,,,,,,,,,,,,,
,,,,600444,001,2023-07-28_03h08.34.295,fluency,2022.2.4,Win32,143.7401179,,,,,,,,,,,,,,,,,,,,,,,,,,,,,,,,,,,,,,,,,,,,,,,,,,,,,,,,,,,,,,,,,,,,,,,,,,,"[""k""]",[0.40420000004769463],"[""k""]",[0.40420000004769463],0,0,0,0,0,1,,,,,,,,,,,,,,,,,,,,,,,,,,,,,,,,,,,,,,,,,,,,,,,,,,,,,,,,,,,,,,,,,,,
,,,,600444,001,2023-07-28_03h08.34.295,fluency,2022.2.4,Win32,143.7401179,,,,,,,,,,,,,,,,,,,,,,,8,2,img/B02_08.jpg,CONTROL,Press K as soon as you see a face, ,KJ,,,,,,,,,,,,,,,,,,,,,,,,,,,,,,,,2,0.3214,,,,,,,,,,,,,,,,,,,,,,,space,0.1902,0,52,52,19,1,,,,,,,,,,,,,,,,,,,,,,,,,,,,,,,,,,,,,,,,,,,,,,,,,,,,,,,,,,,,
,,,,600444,001,2023-07-28_03h08.34.295,fluency,2022.2.4,Win32,143.7401179,,,,,,,,,,,,,,,,,,,,,,,,,,,,,,,,,,,,,,,,,,,,,,,,,,,,,,,,,,,,,,,,,,,,,,,,,,,"[""k""]",[0.3613999998569284],"[""k""]",[0.3613999998569284],0,0,0,0,0,1,,,,,,,,,,,,,,,,,,,,,,,,,,,,,,,,,,,,,,,,,,,,,,,,,,,,,,,,,,,,,,,,,,,
,,,,600444,001,2023-07-28_03h08.34.295,fluency,2022.2.4,Win32,143.7401179,,,,,,,,,,,,,,,,,,,,,,,10,8,img/B08_10.jpg,CONTROL,Press K as soon as you see a face, ,KJ,,,,,,,,,,,,,,,,,,,,,,,,,,,,,,,,1,0.3001,,,,,,,,,,,,,,,,,,,,,,,space,0.1273,0,53,53,87,1,,,,,,,,,,,,,,,,,,,,,,,,,,,,,,,,,,,,,,,,,,,,,,,,,,,,,,,,,,,,
,,,,600444,001,2023-07-28_03h08.34.295,fluency,2022.2.4,Win32,143.7401179,,,,,,,,,,,,,,,,,,,,,,,,,,,,,,,,,,,,,,,,,,,,,,,,,,,,,,,,,,,,,,,,,,,,,,,,,,,"[""k""]",[0.2896000001430252],"[""k""]",[0.2896000001430252],0,0,0,0,0,1,,,,,,,,,,,,,,,,,,,,,,,,,,,,,,,,,,,,,,,,,,,,,,,,,,,,,,,,,,,,,,,,,,,
,,,,600444,001,2023-07-28_03h08.34.295,fluency,2022.2.4,Win32,143.7401179,,,,,,,,,,,,,,,,,,,,,,,8,4,img/B04_08.jpg,CONTROL,Press K as soon as you see a face, ,KJ,,,,,,,,,,,,,,,,,,,,,,,,,,,,,,,,2,0.3249,,,,,,,,,,,,,,,,,,,,,,,space,0.1718,0,54,54,41,1,,,,,,,,,,,,,,,,,,,,,,,,,,,,,,,,,,,,,,,,,,,,,,,,,,,,,,,,,,,,
,,,,600444,001,2023-07-28_03h08.34.295,fluency,2022.2.4,Win32,143.7401179,,,,,,,,,,,,,,,,,,,,,,,,,,,,,,,,,,,,,,,,,,,,,,,,,,,,,,,,,,,,,,,,,,,,,,,,,,,"[""k""]",[0.24459999990466486],"[""k""]",[0.24459999990466486],0,0,0,0,0,1,,,,,,,,,,,,,,,,,,,,,,,,,,,,,,,,,,,,,,,,,,,,,,,,,,,,,,,,,,,,,,,,,,,
,,,,600444,001,2023-07-28_03h08.34.295,fluency,2022.2.4,Win32,143.7401179,,,,,,,,,,,,,,,,,,,,,,,7,8,img/B08_07.jpg,CONTROL,Press K as soon as you see a face, ,KJ,,,,,,,,,,,,,,,,,,,,,,,,,,,,,,,,1,0.3676,,,,,,,,,,,,,,,,,,,,,,,space,0.0915,0,55,55,84,1,,,,,,,,,,,,,,,,,,,,,,,,,,,,,,,,,,,,,,,,,,,,,,,,,,,,,,,,,,,,
,,,,600444,001,2023-07-28_03h08.34.295,fluency,2022.2.4,Win32,143.7401179,,,,,,,,,,,,,,,,,,,,,,,,,,,,,,,,,,,,,,,,,,,,,,,,,,,,,,,,,,,,,,,,,,,,,,,,,,,"[""k""]",[0.2853000001907162],"[""k""]",[0.2853000001907162],0,0,0,0,0,1,,,,,,,,,,,,,,,,,,,,,,,,,,,,,,,,,,,,,,,,,,,,,,,,,,,,,,,,,,,,,,,,,,,
,,,,600444,001,2023-07-28_03h08.34.295,fluency,2022.2.4,Win32,143.7401179,,,,,,,,,,,,,,,,,,,,,,,1,10,img/B10_01.jpg,CONTROL,Press K as soon as you see a face, ,KJ,,,,,,,,,,,,,,,,,,,,,,,,,,,,,,,,2,0.2608,,,,,,,,,,,,,,,,,,,,,,,space,0.1601,0,56,56,100,1,,,,,,,,,,,,,,,,,,,,,,,,,,,,,,,,,,,,,,,,,,,,,,,,,,,,,,,,,,,,
,,,,600444,001,2023-07-28_03h08.34.295,fluency,2022.2.4,Win32,143.7401179,,,,,,,,,,,,,,,,,,,,,,,,,,,,,,,,,,,,,,,,,,,,,,,,,,,,,,,,,,,,,,,,,,,,,,,,,,,"[""k""]",[0.2369000000953747],"[""k""]",[0.2370000000000232],0,0,0,0,0,1,,,,,,,,,,,,,,,,,,,,,,,,,,,,,,,,,,,,,,,,,,,,,,,,,,,,,,,,,,,,,,,,,,,
,,,,600444,001,2023-07-28_03h08.34.295,fluency,2022.2.4,Win32,143.7401179,,,,,,,,,,,,,,,,,,,,,,,9,9,img/B09_09.jpg,CONTROL,Press K as soon as you see a face, ,KJ,,,,,,,,,,,,,,,,,,,,,,,,,,,,,,,,2,0.4439,,,,,,,,,,,,,,,,,,,,,,,space,0.2105,0,57,57,97,1,,,,,,,,,,,,,,,,,,,,,,,,,,,,,,,,,,,,,,,,,,,,,,,,,,,,,,,,,,,,
,,,,600444,001,2023-07-28_03h08.34.295,fluency,2022.2.4,Win32,143.7401179,,,,,,,,,,,,,,,,,,,,,,,,,,,,,,,,,,,,,,,,,,,,,,,,,,,,,,,,,,,,,,,,,,,,,,,,,,,"[""k""]",[0.46779999995231947],"[""k""]",[0.46779999995231947],0,0,0,0,0,1,,,,,,,,,,,,,,,,,,,,,,,,,,,,,,,,,,,,,,,,,,,,,,,,,,,,,,,,,,,,,,,,,,,
,,,,600444,001,2023-07-28_03h08.34.295,fluency,2022.2.4,Win32,143.7401179,,,,,,,,,,,,,,,,,,,,,,,8,6,img/B06_08.jpg,CONTROL,Press K as soon as you see a face, ,KJ,,,,,,,,,,,,,,,,,,,,,,,,,,,,,,,,1,0.3537,,,,,,,,,,,,,,,,,,,,,,,space,0.1002,0,58,58,63,1,,,,,,,,,,,,,,,,,,,,,,,,,,,,,,,,,,,,,,,,,,,,,,,,,,,,,,,,,,,,
,,,,600444,001,2023-07-28_03h08.34.295,fluency,2022.2.4,Win32,143.7401179,,,,,,,,,,,,,,,,,,,,,,,,,,,,,,,,,,,,,,,,,,,,,,,,,,,,,,,,,,,,,,,,,,,,,,,,,,,"[""k""]",[0.28480000019072804],"[""k""]",[0.28480000019072804],0,0,0,0,0,1,,,,,,,,,,,,,,,,,,,,,,,,,,,,,,,,,,,,,,,,,,,,,,,,,,,,,,,,,,,,,,,,,,,
,,,,600444,001,2023-07-28_03h08.34.295,fluency,2022.2.4,Win32,143.7401179,,,,,,,,,,,,,,,,,,,,,,,3,2,img/B02_03.jpg,CONTROL,Press K as soon as you see a face, ,KJ,,,,,,,,,,,,,,,,,,,,,,,,,,,,,,,,1,0.3033,,,,,,,,,,,,,,,,,,,,,,,space,0.1531,0,59,59,14,1,,,,,,,,,,,,,,,,,,,,,,,,,,,,,,,,,,,,,,,,,,,,,,,,,,,,,,,,,,,,
,,,,600444,001,2023-07-28_03h08.34.295,fluency,2022.2.4,Win32,143.7401179,,,,,,,,,,,,,,,,,,,,,,,,,,,,,,,,,,,,,,,,,,,,,,,,,,,,,,,,,,,,,,,,,,,,,,,,,,,"[""k""]",[0.4959999999999809],"[""k""]",[0.4961000001430307],0,0,0,0,0,1,,,,,,,,,,,,,,,,,,,,,,,,,,,,,,,,,,,,,,,,,,,,,,,,,,,,,,,,,,,,,,,,,,,
,,,,600444,001,2023-07-28_03h08.34.295,fluency,2022.2.4,Win32,143.7401179,,,,,,,,,,,,,,,,,,,,,,,4,4,img/B04_04.jpg,CONTROL,Press K as soon as you see a face, ,KJ,,,,,,,,,,,,,,,,,,,,,,,,,,,,,,,,1,0.4163,,,,,,,,,,,,,,,,,,,,,,,space,0.119,0,60,60,37,1,,,,,,,,,,,,,,,,,,,,,,,,,,,,,,,,,,,,,,,,,,,,,,,,,,,,,,,,,,,,
,,,,600444,001,2023-07-28_03h08.34.295,fluency,2022.2.4,Win32,143.7401179,,,,,,,,,,,,,,,,,,,,,,,,,,,,,,,,,,,,,,,,,,,,,,,,,,,,,,,,,,,,,,,,,,,,,,,,,,,"[""k""]",[0.2669000000953474],"[""k""]",[0.2669000000953474],0,0,0,0,0,1,,,,,,,,,,,,,,,,,,,,,,,,,,,,,,,,,,,,,,,,,,,,,,,,,,,,,,,,,,,,,,,,,,,
,,,,600444,001,2023-07-28_03h08.34.295,fluency,2022.2.4,Win32,143.7401179,,,,,,,,,,,,,,,,,,,,,,,3,5,img/B05_03.jpg,CONTROL,Press K as soon as you see a face, ,KJ,,,,,,,,,,,,,,,,,,,,,,,,,,,,,,,,1,0.3229,,,,,,,,,,,,,,,,,,,,,,,space,0.1055,0,61,61,47,1,,,,,,,,,,,,,,,,,,,,,,,,,,,,,,,,,,,,,,,,,,,,,,,,,,,,,,,,,,,,
,,,,600444,001,2023-07-28_03h08.34.295,fluency,2022.2.4,Win32,143.7401179,,,,,,,,,,,,,,,,,,,,,,,,,,,,,,,,,,,,,,,,,,,,,,,,,,,,,,,,,,,,,,,,,,,,,,,,,,,"[""k""]",[0.2893000001906785],"[""k""]",[0.2893000001906785],0,0,0,0,0,1,,,,,,,,,,,,,,,,,,,,,,,,,,,,,,,,,,,,,,,,,,,,,,,,,,,,,,,,,,,,,,,,,,,
,,,,600444,001,2023-07-28_03h08.34.295,fluency,2022.2.4,Win32,143.7401179,,,,,,,,,,,,,,,,,,,,,,,5,10,img/B10_05.jpg,CONTROL,Press K as soon as you see a face, ,KJ,,,,,,,,,,,,,,,,,,,,,,,,,,,,,,,,1,0.4616,,,,,,,,,,,,,,,,,,,,,,,space,0.1239,0,62,62,104,1,,,,,,,,,,,,,,,,,,,,,,,,,,,,,,,,,,,,,,,,,,,,,,,,,,,,,,,,,,,,
,,,,600444,001,2023-07-28_03h08.34.295,fluency,2022.2.4,Win32,143.7401179,,,,,,,,,,,,,,,,,,,,,,,,,,,,,,,,,,,,,,,,,,,,,,,,,,,,,,,,,,,,,,,,,,,,,,,,,,,"[""k""]",[0.26359999990461347],"[""k""]",[0.26349999999990814],0,0,0,0,0,1,,,,,,,,,,,,,,,,,,,,,,,,,,,,,,,,,,,,,,,,,,,,,,,,,,,,,,,,,,,,,,,,,,,
,,,,600444,001,2023-07-28_03h08.34.295,fluency,2022.2.4,Win32,143.7401179,,,,,,,,,,,,,,,,,,,,,,,0,4,img/B04_00.jpg,CONTROL,Press K as soon as you see a face, ,KJ,,,,,,,,,,,,,,,,,,,,,,,,,,,,,,,,1,0.3227,,,,,,,,,,,,,,,,,,,,,,,space,0.1359,0,63,63,33,1,,,,,,,,,,,,,,,,,,,,,,,,,,,,,,,,,,,,,,,,,,,,,,,,,,,,,,,,,,,,
,,,,600444,001,2023-07-28_03h08.34.295,fluency,2022.2.4,Win32,143.7401179,,,,,,,,,,,,,,,,,,,,,,,,,,,,,,,,,,,,,,,,,,,,,,,,,,,,,,,,,,,,,,,,,,,,,,,,,,,"[""k""]",[0.3956000001429629],"[""k""]",[0.39570000004766825],0,0,0,0,0,1,,,,,,,,,,,,,,,,,,,,,,,,,,,,,,,,,,,,,,,,,,,,,,,,,,,,,,,,,,,,,,,,,,,
,,,,600444,001,2023-07-28_03h08.34.295,fluency,2022.2.4,Win32,143.7401179,,,,,,,,,,,,,,,,,,,,,,,1,3,img/B03_01.jpg,CONTROL,Press K as soon as you see a face, ,KJ,,,,,,,,,,,,,,,,,,,,,,,,,,,,,,,,2,0.7312,,,,,,,,,,,,,,,,,,,,,,,space,0.5448,0,64,64,23,1,,,,,,,,,,,,,,,,,,,,,,,,,,,,,,,,,,,,,,,,,,,,,,,,,,,,,,,,,,,,
,,,,600444,001,2023-07-28_03h08.34.295,fluency,2022.2.4,Win32,143.7401179,,,,,,,,,,,,,,,,,,,,,,,,,,,,,,,,,,,,,,,,,,,,,,,,,,,,,,,,,,,,,,,,,,,,,,,,,,,"[""k""]",[0.42590000009533924],"[""k""]",[0.42590000009533924],0,0,0,0,0,1,,,,,,,,,,,,,,,,,,,,,,,,,,,,,,,,,,,,,,,,,,,,,,,,,,,,,,,,,,,,,,,,,,,
,,,,600444,001,2023-07-28_03h08.34.295,fluency,2022.2.4,Win32,143.7401179,,,,,,,,,,,,,,,,,,,,,,,10,4,img/B04_10.jpg,CONTROL,Press K as soon as you see a face, ,KJ,,,,,,,,,,,,,,,,,,,,,,,,,,,,,,,,1,0.4452,,,,,,,,,,,,,,,,,,,,,,,space,0.1007,0,65,65,43,1,,,,,,,,,,,,,,,,,,,,,,,,,,,,,,,,,,,,,,,,,,,,,,,,,,,,,,,,,,,,
,,,,600444,001,2023-07-28_03h08.34.295,fluency,2022.2.4,Win32,143.7401179,,,,,,,,,,,,,,,,,,,,,,,,,,,,,,,,,,,,,,,,,,,,,,,,,,,,,,,,,,,,,,,,,,,,,,,,,,,"[""k""]",[0.6268000001906557],"[""k""]",[0.6268000001906557],0,0,0,0,0,1,,,,,,,,,,,,,,,,,,,,,,,,,,,,,,,,,,,,,,,,,,,,,,,,,,,,,,,,,,,,,,,,,,,
,,,,600444,001,2023-07-28_03h08.34.295,fluency,2022.2.4,Win32,143.7401179,,,,,,,,,,,,,,,,,,,,,,,5,9,img/B09_05.jpg,CONTROL,Press K as soon as you see a face, ,KJ,,,,,,,,,,,,,,,,,,,,,,,,,,,,,,,,1,0.5645,,,,,,,,,,,,,,,,,,,,,,,space,0.1253,0,66,66,93,1,,,,,,,,,,,,,,,,,,,,,,,,,,,,,,,,,,,,,,,,,,,,,,,,,,,,,,,,,,,,
,,,,600444,001,2023-07-28_03h08.34.295,fluency,2022.2.4,Win32,143.7401179,,,,,,,,,,,,,,,,,,,,,,,,,,,,,,,,,,,,,,,,,,,,,,,,,,,,,,,,,,,,,,,,,,,,,,,,,,,"[""k""]",[0.41940000009537926],"[""k""]",[0.4192999999523863],0,0,0,0,0,1,,,,,,,,,,,,,,,,,,,,,,,,,,,,,,,,,,,,,,,,,,,,,,,,,,,,,,,,,,,,,,,,,,,
,,,,600444,001,2023-07-28_03h08.34.295,fluency,2022.2.4,Win32,143.7401179,,,,,,,,,,,,,,,,,,,,,,,2,7,img/B07_02.jpg,CONTROL,Press K as soon as you see a face, ,KJ,,,,,,,,,,,,,,,,,,,,,,,,,,,,,,,,1,0.3178,,,,,,,,,,,,,,,,,,,,,,,space,0.0994,0,67,67,68,1,,,,,,,,,,,,,,,,,,,,,,,,,,,,,,,,,,,,,,,,,,,,,,,,,,,,,,,,,,,,
,,,,600444,001,2023-07-28_03h08.34.295,fluency,2022.2.4,Win32,143.7401179,,,,,,,,,,,,,,,,,,,,,,,,,,,,,,,,,,,,,,,,,,,,,,,,,,,,,,,,,,,,,,,,,,,,,,,,,,,"[""k""]",[0.6674000000954265],"[""k""]",[0.6674000000954265],0,0,0,0,0,1,,,,,,,,,,,,,,,,,,,,,,,,,,,,,,,,,,,,,,,,,,,,,,,,,,,,,,,,,,,,,,,,,,,
,,,,600444,001,2023-07-28_03h08.34.295,fluency,2022.2.4,Win32,143.7401179,,,,,,,,,,,,,,,,,,,,,,,1,8,img/B08_01.jpg,CONTROL,Press K as soon as you see a face, ,KJ,,,,,,,,,,,,,,,,,,,,,,,,,,,,,,,,1,0.4577,,,,,,,,,,,,,,,,,,,,,,,space,0.1232,0,68,68,78,1,,,,,,,,,,,,,,,,,,,,,,,,,,,,,,,,,,,,,,,,,,,,,,,,,,,,,,,,,,,,
,,,,600444,001,2023-07-28_03h08.34.295,fluency,2022.2.4,Win32,143.7401179,,,,,,,,,,,,,,,,,,,,,,,,,,,,,,,,,,,,,,,,,,,,,,,,,,,,,,,,,,,,,,,,,,,,,,,,,,,"[""k""]",[1.390400000095383],"[""k""]",[1.390400000095383],0,0,0,0,0,1,,,,,,,,,,,,,,,,,,,,,,,,,,,,,,,,,,,,,,,,,,,,,,,,,,,,,,,,,,,,,,,,,,,
,,,,600444,001,2023-07-28_03h08.34.295,fluency,2022.2.4,Win32,143.7401179,,,,,,,,,,,,,,,,,,,,,,,5,2,img/B02_05.jpg,CONTROL,Press K as soon as you see a face, ,KJ,,,,,,,,,,,,,,,,,,,,,,,,,,,,,,,,2,0.3351,,,,,,,,,,,,,,,,,,,,,,,space,0.1949,0,69,69,16,1,,,,,,,,,,,,,,,,,,,,,,,,,,,,,,,,,,,,,,,,,,,,,,,,,,,,,,,,,,,,
,,,,600444,001,2023-07-28_03h08.34.295,fluency,2022.2.4,Win32,143.7401179,,,,,,,,,,,,,,,,,,,,,,,,,,,,,,,,,,,,,,,,,,,,,,,,,,,,,,,,,,,,,,,,,,,,,,,,,,,"[""k""]",[0.37109999990457254],"[""k""]",[0.37109999990457254],0,0,0,0,0,1,,,,,,,,,,,,,,,,,,,,,,,,,,,,,,,,,,,,,,,,,,,,,,,,,,,,,,,,,,,,,,,,,,,
,,,,600444,001,2023-07-28_03h08.34.295,fluency,2022.2.4,Win32,143.7401179,,,,,,,,,,,,,,,,,,,,,,,3,9,img/B09_03.jpg,CONTROL,Press K as soon as you see a face, ,KJ,,,,,,,,,,,,,,,,,,,,,,,,,,,,,,,,1,0.2768,,,,,,,,,,,,,,,,,,,,,,,space,0.0917,0,70,70,91,1,,,,,,,,,,,,,,,,,,,,,,,,,,,,,,,,,,,,,,,,,,,,,,,,,,,,,,,,,,,,
,,,,600444,001,2023-07-28_03h08.34.295,fluency,2022.2.4,Win32,143.7401179,,,,,,,,,,,,,,,,,,,,,,,,,,,,,,,,,,,,,,,,,,,,,,,,,,,,,,,,,,,,,,,,,,,,,,,,,,,"[""k""]",[0.22080000019070667],"[""k""]",[0.22070000004771373],0,0,0,0,0,1,,,,,,,,,,,,,,,,,,,,,,,,,,,,,,,,,,,,,,,,,,,,,,,,,,,,,,,,,,,,,,,,,,,
,,,,600444,001,2023-07-28_03h08.34.295,fluency,2022.2.4,Win32,143.7401179,,,,,,,,,,,,,,,,,,,,,,,9,10,img/B10_09.jpg,CONTROL,Press K as soon as you see a face, ,KJ,,,,,,,,,,,,,,,,,,,,,,,,,,,,,,,,1,0.2961,,,,,,,,,,,,,,,,,,,,,,,space,0.0873,0,71,71,108,1,,,,,,,,,,,,,,,,,,,,,,,,,,,,,,,,,,,,,,,,,,,,,,,,,,,,,,,,,,,,
,,,,600444,001,2023-07-28_03h08.34.295,fluency,2022.2.4,Win32,143.7401179,,,,,,,,,,,,,,,,,,,,,,,,,,,,,,,,,,,,,,,,,,,,,,,,,,,,,,,,,,,,,,,,,,,,,,,,,,,"[""k""]",[0.2689000000954138],"[""k""]",[0.2689000000954138],0,0,0,0,0,1,,,,,,,,,,,,,,,,,,,,,,,,,,,,,,,,,,,,,,,,,,,,,,,,,,,,,,,,,,,,,,,,,,,
,,,,600444,001,2023-07-28_03h08.34.295,fluency,2022.2.4,Win32,143.7401179,,,,,,,,,,,,,,,,,,,,,,,8,9,img/B09_08.jpg,CONTROL,Press K as soon as you see a face, ,KJ,,,,,,,,,,,,,,,,,,,,,,,,,,,,,,,,2,0.2659,,,,,,,,,,,,,,,,,,,,,,,space,0.1887,0,72,72,96,1,,,,,,,,,,,,,,,,,,,,,,,,,,,,,,,,,,,,,,,,,,,,,,,,,,,,,,,,,,,,
,,,,600444,001,2023-07-28_03h08.34.295,fluency,2022.2.4,Win32,143.7401179,,,,,,,,,,,,,,,,,,,,,,,,,,,,,,,,,,,,,,,,,,,,,,,,,,,,,,,,,,,,,,,,,,,,,,,,,,,"[""k""]",[0.6444999999999936],"[""k""]",[0.6444999999999936],0,0,0,0,0,1,,,,,,,,,,,,,,,,,,,,,,,,,,,,,,,,,,,,,,,,,,,,,,,,,,,,,,,,,,,,,,,,,,,
,,,,600444,001,2023-07-28_03h08.34.295,fluency,2022.2.4,Win32,143.7401179,,,,,,,,,,,,,,,,,,,,,,,8,10,img/B10_08.jpg,CONTROL,Press K as soon as you see a face, ,KJ,,,,,,,,,,,,,,,,,,,,,,,,,,,,,,,,1,0.3207,,,,,,,,,,,,,,,,,,,,,,,space,0.0696,0,73,73,107,1,,,,,,,,,,,,,,,,,,,,,,,,,,,,,,,,,,,,,,,,,,,,,,,,,,,,,,,,,,,,
,,,,600444,001,2023-07-28_03h08.34.295,fluency,2022.2.4,Win32,143.7401179,,,,,,,,,,,,,,,,,,,,,,,,,,,,,,,,,,,,,,,,,,,,,,,,,,,,,,,,,,,,,,,,,,,,,,,,,,,"[""k""]",[0.24679999995225899],"[""k""]",[0.2469000000953656],0,0,0,0,0,1,,,,,,,,,,,,,,,,,,,,,,,,,,,,,,,,,,,,,,,,,,,,,,,,,,,,,,,,,,,,,,,,,,,
,,,,600444,001,2023-07-28_03h08.34.295,fluency,2022.2.4,Win32,143.7401179,,,,,,,,,,,,,,,,,,,,,,,6,7,img/B07_06.jpg,CONTROL,Press K as soon as you see a face, ,KJ,,,,,,,,,,,,,,,,,,,,,,,,,,,,,,,,2,0.3695,,,,,,,,,,,,,,,,,,,,,,,space,0.2461,0,74,74,72,1,,,,,,,,,,,,,,,,,,,,,,,,,,,,,,,,,,,,,,,,,,,,,,,,,,,,,,,,,,,,
,,,,600444,001,2023-07-28_03h08.34.295,fluency,2022.2.4,Win32,143.7401179,,,,,,,,,,,,,,,,,,,,,,,,,,,,,,,,,,,,,,,,,,,,,,,,,,,,,,,,,,,,,,,,,,,,,,,,,,,"[""k""]",[0.25410000014301204],"[""k""]",[0.25409999990461074],0,0,0,0,0,1,,,,,,,,,,,,,,,,,,,,,,,,,,,,,,,,,,,,,,,,,,,,,,,,,,,,,,,,,,,,,,,,,,,
,,,,600444,001,2023-07-28_03h08.34.295,fluency,2022.2.4,Win32,143.7401179,,,,,,,,,,,,,,,,,,,,,,,4,3,img/B03_04.jpg,CONTROL,Press K as soon as you see a face, ,KJ,,,,,,,,,,,,,,,,,,,,,,,,,,,,,,,,1,0.3208,,,,,,,,,,,,,,,,,,,,,,,space,0.119,0,75,75,26,1,,,,,,,,,,,,,,,,,,,,,,,,,,,,,,,,,,,,,,,,,,,,,,,,,,,,,,,,,,,,
,,,,600444,001,2023-07-28_03h08.34.295,fluency,2022.2.4,Win32,143.7401179,,,,,,,,,,,,,,,,,,,,,,,,,,,,,,,,,,,,,,,,,,,,,,,,,,,,,,,,,,,,,,,,,,,,,,,,,,,"[""k""]",[0.31439999985695977],"[""k""]",[0.3142999999523681],0,0,0,0,0,1,,,,,,,,,,,,,,,,,,,,,,,,,,,,,,,,,,,,,,,,,,,,,,,,,,,,,,,,,,,,,,,,,,,
,,,,600444,001,2023-07-28_03h08.34.295,fluency,2022.2.4,Win32,143.7401179,,,,,,,,,,,,,,,,,,,,,,,1,4,img/B04_01.jpg,CONTROL,Press K as soon as you see a face, ,KJ,,,,,,,,,,,,,,,,,,,,,,,,,,,,,,,,1,0.4097,,,,,,,,,,,,,,,,,,,,,,,space,0.1056,0,76,76,34,1,,,,,,,,,,,,,,,,,,,,,,,,,,,,,,,,,,,,,,,,,,,,,,,,,,,,,,,,,,,,
,,,,600444,001,2023-07-28_03h08.34.295,fluency,2022.2.4,Win32,143.7401179,,,,,,,,,,,,,,,,,,,,,,,,,,,,,,,,,,,,,,,,,,,,,,,,,,,,,,,,,,,,,,,,,,,,,,,,,,,"[""k""]",[0.3452999999523172],"[""k""]",[0.34520000004772555],0,0,0,0,0,1,,,,,,,,,,,,,,,,,,,,,,,,,,,,,,,,,,,,,,,,,,,,,,,,,,,,,,,,,,,,,,,,,,,
,,,,600444,001,2023-07-28_03h08.34.295,fluency,2022.2.4,Win32,143.7401179,,,,,,,,,,,,,,,,,,,,,,,2,4,img/B04_02.jpg,CONTROL,Press K as soon as you see a face, ,KJ,,,,,,,,,,,,,,,,,,,,,,,,,,,,,,,,1,0.3947,,,,,,,,,,,,,,,,,,,,,,,space,0.105,0,77,77,35,1,,,,,,,,,,,,,,,,,,,,,,,,,,,,,,,,,,,,,,,,,,,,,,,,,,,,,,,,,,,,
,,,,600444,001,2023-07-28_03h08.34.295,fluency,2022.2.4,Win32,143.7401179,,,,,,,,,,,,,,,,,,,,,,,,,,,,,,,,,,,,,,,,,,,,,,,,,,,,,,,,,,,,,,,,,,,,,,,,,,,"[""k""]",[0.23620000004768826],"[""k""]",[0.23620000004768826],0,0,0,0,0,1,,,,,,,,,,,,,,,,,,,,,,,,,,,,,,,,,,,,,,,,,,,,,,,,,,,,,,,,,,,,,,,,,,,
,,,,600444,001,2023-07-28_03h08.34.295,fluency,2022.2.4,Win32,143.7401179,,,,,,,,,,,,,,,,,,,,,,,6,2,img/B02_06.jpg,CONTROL,Press K as soon as you see a face, ,KJ,,,,,,,,,,,,,,,,,,,,,,,,,,,,,,,,2,0.3879,,,,,,,,,,,,,,,,,,,,,,,space,0.2213,0,78,78,17,1,,,,,,,,,,,,,,,,,,,,,,,,,,,,,,,,,,,,,,,,,,,,,,,,,,,,,,,,,,,,
,,,,600444,001,2023-07-28_03h08.34.295,fluency,2022.2.4,Win32,143.7401179,,,,,,,,,,,,,,,,,,,,,,,,,,,,,,,,,,,,,,,,,,,,,,,,,,,,,,,,,,,,,,,,,,,,,,,,,,,"[""k""]",[0.3741999998093206],"[""k""]",[0.3741999998093206],0,0,0,0,0,1,,,,,,,,,,,,,,,,,,,,,,,,,,,,,,,,,,,,,,,,,,,,,,,,,,,,,,,,,,,,,,,,,,,
,,,,600444,001,2023-07-28_03h08.34.295,fluency,2022.2.4,Win32,143.7401179,,,,,,,,,,,,,,,,,,,,,,,0,7,img/B07_00.jpg,CONTROL,Press K as soon as you see a face, ,KJ,,,,,,,,,,,,,,,,,,,,,,,,,,,,,,,,1,0.3703,,,,,,,,,,,,,,,,,,,,,,,space,0.1064,0,79,79,66,1,,,,,,,,,,,,,,,,,,,,,,,,,,,,,,,,,,,,,,,,,,,,,,,,,,,,,,,,,,,,
,,,,600444,001,2023-07-28_03h08.34.295,fluency,2022.2.4,Win32,143.7401179,,,,,,,,,,,,,,,,,,,,,,,,,,,,,,,,,,,,,,,,,,,,,,,,,,,,,,,,,,,,,,,,,,,,,,,,,,,"[""k""]",[0.24640000009537744],"[""k""]",[0.2462999999522708],0,0,0,0,0,1,,,,,,,,,,,,,,,,,,,,,,,,,,,,,,,,,,,,,,,,,,,,,,,,,,,,,,,,,,,,,,,,,,,
,,,,600444,001,2023-07-28_03h08.34.295,fluency,2022.2.4,Win32,143.7401179,,,,,,,,,,,,,,,,,,,,,,,2,10,img/B10_02.jpg,CONTROL,Press K as soon as you see a face, ,KJ,,,,,,,,,,,,,,,,,,,,,,,,,,,,,,,,2,0.2498,,,,,,,,,,,,,,,,,,,,,,,space,0.1946,0,80,80,101,1,,,,,,,,,,,,,,,,,,,,,,,,,,,,,,,,,,,,,,,,,,,,,,,,,,,,,,,,,,,,
,,,,600444,001,2023-07-28_03h08.34.295,fluency,2022.2.4,Win32,143.7401179,,,,,,,,,,,,,,,,,,,,,,,,,,,,,,,,,,,,,,,,,,,,,,,,,,,,,,,,,,,,,,,,,,,,,,,,,,,"[""k""]",[0.38800000000003365],"[""k""]",[0.387900000095442],0,0,0,0,0,1,,,,,,,,,,,,,,,,,,,,,,,,,,,,,,,,,,,,,,,,,,,,,,,,,,,,,,,,,,,,,,,,,,,
,,,,600444,001,2023-07-28_03h08.34.295,fluency,2022.2.4,Win32,143.7401179,,,,,,,,,,,,,,,,,,,,,,,3,3,img/B03_03.jpg,CONTROL,Press K as soon as you see a face, ,KJ,,,,,,,,,,,,,,,,,,,,,,,,,,,,,,,,1,0.3176,,,,,,,,,,,,,,,,,,,,,,,space,0.1047,0,81,81,25,1,,,,,,,,,,,,,,,,,,,,,,,,,,,,,,,,,,,,,,,,,,,,,,,,,,,,,,,,,,,,
,,,,600444,001,2023-07-28_03h08.34.295,fluency,2022.2.4,Win32,143.7401179,,,,,,,,,,,,,,,,,,,,,,,,,,,,,,,,,,,,,,,,,,,,,,,,,,,,,,,,,,,,,,,,,,,,,,,,,,,"[""k""]",[0.33920000004764006],"[""k""]",[0.3390999999046471],0,0,0,0,0,1,,,,,,,,,,,,,,,,,,,,,,,,,,,,,,,,,,,,,,,,,,,,,,,,,,,,,,,,,,,,,,,,,,,
,,,,600444,001,2023-07-28_03h08.34.295,fluency,2022.2.4,Win32,143.7401179,,,,,,,,,,,,,,,,,,,,,,,2,1,img/B01_02.jpg,CONTROL,Press K as soon as you see a face, ,KJ,,,,,,,,,,,,,,,,,,,,,,,,,,,,,,,,1,0.5694,,,,,,,,,,,,,,,,,,,,,,,space,0.1811,0,82,82,2,1,,,,,,,,,,,,,,,,,,,,,,,,,,,,,,,,,,,,,,,,,,,,,,,,,,,,,,,,,,,,
,,,,600444,001,2023-07-28_03h08.34.295,fluency,2022.2.4,Win32,143.7401179,,,,,,,,,,,,,,,,,,,,,,,,,,,,,,,,,,,,,,,,,,,,,,,,,,,,,,,,,,,,,,,,,,,,,,,,,,,"[""k""]",[0.34550000000001546],"[""k""]",[0.34540000009531013],0,0,0,0,0,1,,,,,,,,,,,,,,,,,,,,,,,,,,,,,,,,,,,,,,,,,,,,,,,,,,,,,,,,,,,,,,,,,,,
,,,,600444,001,2023-07-28_03h08.34.295,fluency,2022.2.4,Win32,143.7401179,,,,,,,,,,,,,,,,,,,,,,,3,8,img/B08_03.jpg,CONTROL,Press K as soon as you see a face, ,KJ,,,,,,,,,,,,,,,,,,,,,,,,,,,,,,,,1,0.3015,,,,,,,,,,,,,,,,,,,,,,,space,0.1475,0,83,83,80,1,,,,,,,,,,,,,,,,,,,,,,,,,,,,,,,,,,,,,,,,,,,,,,,,,,,,,,,,,,,,
,,,,600444,001,2023-07-28_03h08.34.295,fluency,2022.2.4,Win32,143.7401179,,,,,,,,,,,,,,,,,,,,,,,,,,,,,,,,,,,,,,,,,,,,,,,,,,,,,,,,,,,,,,,,,,,,,,,,,,,"[""k""]",[0.260800000190784],"[""k""]",[0.260800000190784],0,0,0,0,0,1,,,,,,,,,,,,,,,,,,,,,,,,,,,,,,,,,,,,,,,,,,,,,,,,,,,,,,,,,,,,,,,,,,,
,,,,600444,001,2023-07-28_03h08.34.295,fluency,2022.2.4,Win32,143.7401179,,,,,,,,,,,,,,,,,,,,,,,3,6,img/B06_03.jpg,CONTROL,Press K as soon as you see a face, ,KJ,,,,,,,,,,,,,,,,,,,,,,,,,,,,,,,,1,0.4053,,,,,,,,,,,,,,,,,,,,,,,space,0.1535,0,84,84,58,1,,,,,,,,,,,,,,,,,,,,,,,,,,,,,,,,,,,,,,,,,,,,,,,,,,,,,,,,,,,,
,,,,600444,001,2023-07-28_03h08.34.295,fluency,2022.2.4,Win32,143.7401179,,,,,,,,,,,,,,,,,,,,,,,,,,,,,,,,,,,,,,,,,,,,,,,,,,,,,,,,,,,,,,,,,,,,,,,,,,,"[""k""]",[0.311400000095432],"[""k""]",[0.311400000095432],0,0,0,0,0,1,,,,,,,,,,,,,,,,,,,,,,,,,,,,,,,,,,,,,,,,,,,,,,,,,,,,,,,,,,,,,,,,,,,
,,,,600444,001,2023-07-28_03h08.34.295,fluency,2022.2.4,Win32,143.7401179,,,,,,,,,,,,,,,,,,,,,,,9,5,img/B05_09.jpg,CONTROL,Press K as soon as you see a face, ,KJ,,,,,,,,,,,,,,,,,,,,,,,,,,,,,,,,1,0.3104,,,,,,,,,,,,,,,,,,,,,,,space,0.1127,0,85,85,53,1,,,,,,,,,,,,,,,,,,,,,,,,,,,,,,,,,,,,,,,,,,,,,,,,,,,,,,,,,,,,
,,,,600444,001,2023-07-28_03h08.34.295,fluency,2022.2.4,Win32,143.7401179,,,,,,,,,,,,,,,,,,,,,,,,,,,,,,,,,,,,,,,,,,,,,,,,,,,,,,,,,,,,,,,,,,,,,,,,,,,"[""k""]",[0.43160000014302113],"[""k""]",[0.4315000000000282],0,0,0,0,0,1,,,,,,,,,,,,,,,,,,,,,,,,,,,,,,,,,,,,,,,,,,,,,,,,,,,,,,,,,,,,,,,,,,,
,,,,600444,001,2023-07-28_03h08.34.295,fluency,2022.2.4,Win32,143.7401179,,,,,,,,,,,,,,,,,,,,,,,1,5,img/B05_01.jpg,CONTROL,Press K as soon as you see a face, ,KJ,,,,,,,,,,,,,,,,,,,,,,,,,,,,,,,,1,0.341,,,,,,,,,,,,,,,,,,,,,,,space,0.6292,0,86,86,45,1,,,,,,,,,,,,,,,,,,,,,,,,,,,,,,,,,,,,,,,,,,,,,,,,,,,,,,,,,,,,
,,,,600444,001,2023-07-28_03h08.34.295,fluency,2022.2.4,Win32,143.7401179,,,,,,,,,,,,,,,,,,,,,,,,,,,,,,,,,,,,,,,,,,,,,,,,,,,,,,,,,,,,,,,,,,,,,,,,,,,"[""k""]",[0.32209999990470806],"[""k""]",[0.32209999990470806],0,0,0,0,0,1,,,,,,,,,,,,,,,,,,,,,,,,,,,,,,,,,,,,,,,,,,,,,,,,,,,,,,,,,,,,,,,,,,,
,,,,600444,001,2023-07-28_03h08.34.295,fluency,2022.2.4,Win32,143.7401179,,,,,,,,,,,,,,,,,,,,,,,4,2,img/B02_04.jpg,CONTROL,Press K as soon as you see a face, ,KJ,,,,,,,,,,,,,,,,,,,,,,,,,,,,,,,,1,0.4385,,,,,,,,,,,,,,,,,,,,,,,space,0.004,0,87,87,15,1,,,,,,,,,,,,,,,,,,,,,,,,,,,,,,,,,,,,,,,,,,,,,,,,,,,,,,,,,,,,
,,,,600444,001,2023-07-28_03h08.34.295,fluency,2022.2.4,Win32,143.7401179,,,,,,,,,,,,,,,,,,,,,,,,,,,,,,,,,,,,,,,,,,,,,,,,,,,,,,,,,,,,,,,,,,,,,,,,,,,"[""k""]",[0.396599999904538],"[""k""]",[0.396599999904538],0,0,0,0,0,1,,,,,,,,,,,,,,,,,,,,,,,,,,,,,,,,,,,,,,,,,,,,,,,,,,,,,,,,,,,,,,,,,,,
,,,,600444,001,2023-07-28_03h08.34.295,fluency,2022.2.4,Win32,143.7401179,,,,,,,,,,,,,,,,,,,,,,,6,10,img/B10_06.jpg,CONTROL,Press K as soon as you see a face, ,KJ,,,,,,,,,,,,,,,,,,,,,,,,,,,,,,,,1,0.4004,,,,,,,,,,,,,,,,,,,,,,,space,0.0104,0,88,88,105,1,,,,,,,,,,,,,,,,,,,,,,,,,,,,,,,,,,,,,,,,,,,,,,,,,,,,,,,,,,,,
,,,,600444,001,2023-07-28_03h08.34.295,fluency,2022.2.4,Win32,143.7401179,,,,,,,,,,,,,,,,,,,,,,,,,,,,,,,,,,,,,,,,,,,,,,,,,,,,,,,,,,,,,,,,,,,,,,,,,,,"[""k""]",[0.5620999999046035],"[""k""]",[0.5620999999046035],0,0,0,0,0,1,,,,,,,,,,,,,,,,,,,,,,,,,,,,,,,,,,,,,,,,,,,,,,,,,,,,,,,,,,,,,,,,,,,
,,,,600444,001,2023-07-28_03h08.34.295,fluency,2022.2.4,Win32,143.7401179,,,,,,,,,,,,,,,,,,,,,,,0,2,img/B02_00.jpg,CONTROL,Press K as soon as you see a face, ,KJ,,,,,,,,,,,,,,,,,,,,,,,,,,,,,,,,1,0.3041,,,,,,,,,,,,,,,,,,,,,,,space,0.0644,0,89,89,11,1,,,,,,,,,,,,,,,,,,,,,,,,,,,,,,,,,,,,,,,,,,,,,,,,,,,,,,,,,,,,
,,,,600444,001,2023-07-28_03h08.34.295,fluency,2022.2.4,Win32,143.7401179,,,,,,,,,,,,,,,,,,,,,,,,,,,,,,,,,,,,,,,,,,,,,,,,,,,,,,,,,,,,,,,,,,,,,,,,,,,"[""k""]",[0.24480000019070758],"[""k""]",[0.24480000019070758],0,0,0,0,0,1,,,,,,,,,,,,,,,,,,,,,,,,,,,,,,,,,,,,,,,,,,,,,,,,,,,,,,,,,,,,,,,,,,,
,,,,600444,001,2023-07-28_03h08.34.295,fluency,2022.2.4,Win32,143.7401179,,,,,,,,,,,,,,,,,,,,,,,5,3,img/B03_05.jpg,CONTROL,Press K as soon as you see a face, ,KJ,,,,,,,,,,,,,,,,,,,,,,,,,,,,,,,,1,0.3143,,,,,,,,,,,,,,,,,,,,,,,space,0.1266,0,90,90,27,1,,,,,,,,,,,,,,,,,,,,,,,,,,,,,,,,,,,,,,,,,,,,,,,,,,,,,,,,,,,,
,,,,600444,001,2023-07-28_03h08.34.295,fluency,2022.2.4,Win32,143.7401179,,,,,,,,,,,,,,,,,,,,,,,,,,,,,,,,,,,,,,,,,,,,,,,,,,,,,,,,,,,,,,,,,,,,,,,,,,,"[""k""]",[0.8243999998569507],"[""k""]",[0.824299999952359],0,0,0,0,0,1,,,,,,,,,,,,,,,,,,,,,,,,,,,,,,,,,,,,,,,,,,,,,,,,,,,,,,,,,,,,,,,,,,,
,,,,600444,001,2023-07-28_03h08.34.295,fluency,2022.2.4,Win32,143.7401179,,,,,,,,,,,,,,,,,,,,,,,4,8,img/B08_04.jpg,CONTROL,Press K as soon as you see a face, ,KJ,,,,,,,,,,,,,,,,,,,,,,,,,,,,,,,,1,0.2793,,,,,,,,,,,,,,,,,,,,,,,space,0.0802,0,91,91,81,1,,,,,,,,,,,,,,,,,,,,,,,,,,,,,,,,,,,,,,,,,,,,,,,,,,,,,,,,,,,,
,,,,600444,001,2023-07-28_03h08.34.295,fluency,2022.2.4,Win32,143.7401179,,,,,,,,,,,,,,,,,,,,,,,,,,,,,,,,,,,,,,,,,,,,,,,,,,,,,,,,,,,,,,,,,,,,,,,,,,,"[""k""]",[0.37119999980927787],"[""k""]",[0.37119999980927787],0,0,0,0,0,1,,,,,,,,,,,,,,,,,,,,,,,,,,,,,,,,,,,,,,,,,,,,,,,,,,,,,,,,,,,,,,,,,,,
,,,,600444,001,2023-07-28_03h08.34.295,fluency,2022.2.4,Win32,143.7401179,,,,,,,,,,,,,,,,,,,,,,,4,1,img/B01_04.jpg,CONTROL,Press K as soon as you see a face, ,KJ,,,,,,,,,,,,,,,,,,,,,,,,,,,,,,,,1,0.2688,,,,,,,,,,,,,,,,,,,,,,,space,0.1044,0,92,92,4,1,,,,,,,,,,,,,,,,,,,,,,,,,,,,,,,,,,,,,,,,,,,,,,,,,,,,,,,,,,,,
,,,,600444,001,2023-07-28_03h08.34.295,fluency,2022.2.4,Win32,143.7401179,,,,,,,,,,,,,,,,,,,,,,,,,,,,,,,,,,,,,,,,,,,,,,,,,,,,,,,,,,,,,,,,,,,,,,,,,,,"[""k""]",[0.32229999995229264],"[""k""]",[0.32229999995229264],0,0,0,0,0,1,,,,,,,,,,,,,,,,,,,,,,,,,,,,,,,,,,,,,,,,,,,,,,,,,,,,,,,,,,,,,,,,,,,
,,,,600444,001,2023-07-28_03h08.34.295,fluency,2022.2.4,Win32,143.7401179,,,,,,,,,,,,,,,,,,,,,,,5,7,img/B07_05.jpg,CONTROL,Press K as soon as you see a face, ,KJ,,,,,,,,,,,,,,,,,,,,,,,,,,,,,,,,1,0.354,,,,,,,,,,,,,,,,,,,,,,,space,0.1131,0,93,93,71,1,,,,,,,,,,,,,,,,,,,,,,,,,,,,,,,,,,,,,,,,,,,,,,,,,,,,,,,,,,,,
,,,,600444,001,2023-07-28_03h08.34.295,fluency,2022.2.4,Win32,143.7401179,,,,,,,,,,,,,,,,,,,,,,,,,,,,,,,,,,,,,,,,,,,,,,,,,,,,,,,,,,,,,,,,,,,,,,,,,,,"[""k""]",[0.2695999999045853],"[""k""]",[0.26949999999999363],0,0,0,0,0,1,,,,,,,,,,,,,,,,,,,,,,,,,,,,,,,,,,,,,,,,,,,,,,,,,,,,,,,,,,,,,,,,,,,
,,,,600444,001,2023-07-28_03h08.34.295,fluency,2022.2.4,Win32,143.7401179,,,,,,,,,,,,,,,,,,,,,,,6,3,img/B03_06.jpg,CONTROL,Press K as soon as you see a face, ,KJ,,,,,,,,,,,,,,,,,,,,,,,,,,,,,,,,1,0.2411,,,,,,,,,,,,,,,,,,,,,,,space,0.0972,0,94,94,28,1,,,,,,,,,,,,,,,,,,,,,,,,,,,,,,,,,,,,,,,,,,,,,,,,,,,,,,,,,,,,
,,,,600444,001,2023-07-28_03h08.34.295,fluency,2022.2.4,Win32,143.7401179,,,,,,,,,,,,,,,,,,,,,,,,,,,,,,,,,,,,,,,,,,,,,,,,,,,,,,,,,,,,,,,,,,,,,,,,,,,"[""k""]",[0.2570999999046535],"[""k""]",[0.2570999999046535],0,0,0,0,0,1,,,,,,,,,,,,,,,,,,,,,,,,,,,,,,,,,,,,,,,,,,,,,,,,,,,,,,,,,,,,,,,,,,,
,,,,600444,001,2023-07-28_03h08.34.295,fluency,2022.2.4,Win32,143.7401179,,,,,,,,,,,,,,,,,,,,,,,8,5,img/B05_08.jpg,CONTROL,Press K as soon as you see a face, ,KJ,,,,,,,,,,,,,,,,,,,,,,,,,,,,,,,,1,0.3315,,,,,,,,,,,,,,,,,,,,,,,space,0.072,0,95,95,52,1,,,,,,,,,,,,,,,,,,,,,,,,,,,,,,,,,,,,,,,,,,,,,,,,,,,,,,,,,,,,
,,,,600444,001,2023-07-28_03h08.34.295,fluency,2022.2.4,Win32,143.7401179,,,,,,,,,,,,,,,,,,,,,,,,,,,,,,,,,,,,,,,,,,,,,,,,,,,,,,,,,,,,,,,,,,,,,,,,,,,"[""k""]",[0.7650999999046917],"[""k""]",[0.7650999999046917],0,0,0,0,0,1,,,,,,,,,,,,,,,,,,,,,,,,,,,,,,,,,,,,,,,,,,,,,,,,,,,,,,,,,,,,,,,,,,,
,,,,600444,001,2023-07-28_03h08.34.295,fluency,2022.2.4,Win32,143.7401179,,,,,,,,,,,,,,,,,,,,,,,9,1,img/B01_09.jpg,CONTROL,Press K as soon as you see a face, ,KJ,,,,,,,,,,,,,,,,,,,,,,,,,,,,,,,,1,0.3094,,,,,,,,,,,,,,,,,,,,,,,space,0.1183,0,96,96,9,1,,,,,,,,,,,,,,,,,,,,,,,,,,,,,,,,,,,,,,,,,,,,,,,,,,,,,,,,,,,,
,,,,600444,001,2023-07-28_03h08.34.295,fluency,2022.2.4,Win32,143.7401179,,,,,,,,,,,,,,,,,,,,,,,,,,,,,,,,,,,,,,,,,,,,,,,,,,,,,,,,,,,,,,,,,,,,,,,,,,,"[""k""]",[0.2731000001430175],"[""k""]",[0.2731000001430175],0,0,0,0,0,1,,,,,,,,,,,,,,,,,,,,,,,,,,,,,,,,,,,,,,,,,,,,,,,,,,,,,,,,,,,,,,,,,,,
,,,,600444,001,2023-07-28_03h08.34.295,fluency,2022.2.4,Win32,143.7401179,,,,,,,,,,,,,,,,,,,,,,,7,9,img/B09_07.jpg,CONTROL,Press K as soon as you see a face, ,KJ,,,,,,,,,,,,,,,,,,,,,,,,,,,,,,,,2,0.3223,,,,,,,,,,,,,,,,,,,,,,,space,0.1529,0,97,97,95,1,,,,,,,,,,,,,,,,,,,,,,,,,,,,,,,,,,,,,,,,,,,,,,,,,,,,,,,,,,,,
,,,,600444,001,2023-07-28_03h08.34.295,fluency,2022.2.4,Win32,143.7401179,,,,,,,,,,,,,,,,,,,,,,,,,,,,,,,,,,,,,,,,,,,,,,,,,,,,,,,,,,,,,,,,,,,,,,,,,,,"[""k""]",[0.24749999999994543],"[""k""]",[0.24749999999994543],0,0,0,0,0,1,,,,,,,,,,,,,,,,,,,,,,,,,,,,,,,,,,,,,,,,,,,,,,,,,,,,,,,,,,,,,,,,,,,
,,,,600444,001,2023-07-28_03h08.34.295,fluency,2022.2.4,Win32,143.7401179,,,,,,,,,,,,,,,,,,,,,,,2,3,img/B03_02.jpg,CONTROL,Press K as soon as you see a face, ,KJ,,,,,,,,,,,,,,,,,,,,,,,,,,,,,,,,1,0.2591,,,,,,,,,,,,,,,,,,,,,,,space,0.0763,0,98,98,24,1,,,,,,,,,,,,,,,,,,,,,,,,,,,,,,,,,,,,,,,,,,,,,,,,,,,,,,,,,,,,
,,,,600444,001,2023-07-28_03h08.34.295,fluency,2022.2.4,Win32,143.7401179,,,,,,,,,,,,,,,,,,,,,,,,,,,,,,,,,,,,,,,,,,,,,,,,,,,,,,,,,,,,,,,,,,,,,,,,,,,"[""k""]",[0.35139999985688064],"[""k""]",[0.35139999985688064],0,0,0,0,0,1,,,,,,,,,,,,,,,,,,,,,,,,,,,,,,,,,,,,,,,,,,,,,,,,,,,,,,,,,,,,,,,,,,,
,,,,600444,001,2023-07-28_03h08.34.295,fluency,2022.2.4,Win32,143.7401179,,,,,,,,,,,,,,,,,,,,,,,1,1,img/B01_01.jpg,CONTROL,Press K as soon as you see a face, ,KJ,,,,,,,,,,,,,,,,,,,,,,,,,,,,,,,,1,0.3075,,,,,,,,,,,,,,,,,,,,,,,space,0.1303,0,99,99,1,1,,,,,,,,,,,,,,,,,,,,,,,,,,,,,,,,,,,,,,,,,,,,,,,,,,,,,,,,,,,,
,,,,600444,001,2023-07-28_03h08.34.295,fluency,2022.2.4,Win32,143.7401179,,,,,,,,,,,,,,,,,,,,,,,,,,,,,,,,,,,,,,,,,,,,,,,,,,,,,,,,,,,,,,,,,,,,,,,,,,,"[""k""]",[0.2511999998092733],"[""k""]",[0.2511999998092733],0,0,0,0,0,1,,,,,,,,,,,,,,,,,,,,,,,,,,,,,,,,,,,,,,,,,,,,,,,,,,,,,,,,,,,,,,,,,,,
,,,,600444,001,2023-07-28_03h08.34.295,fluency,2022.2.4,Win32,143.7401179,,,,,,,,,,,,,,,,,,,,,,,0,6,img/B06_00.jpg,CONTROL,Press K as soon as you see a face, ,KJ,,,,,,,,,,,,,,,,,,,,,,,,,,,,,,,,1,0.2915,,,,,,,,,,,,,,,,,,,,,,,space,0.1104,0,100,100,55,1,,,,,,,,,,,,,,,,,,,,,,,,,,,,,,,,,,,,,,,,,,,,,,,,,,,,,,,,,,,,
,,,,600444,001,2023-07-28_03h08.34.295,fluency,2022.2.4,Win32,143.7401179,,,,,,,,,,,,,,,,,,,,,,,,,,,,,,,,,,,,,,,,,,,,,,,,,,,,,,,,,,,,,,,,,,,,,,,,,,,"[""k""]",[0.28410000014309844],"[""k""]",[0.28410000014309844],0,0,0,0,0,1,,,,,,,,,,,,,,,,,,,,,,,,,,,,,,,,,,,,,,,,,,,,,,,,,,,,,,,,,,,,,,,,,,,
,,,,600444,001,2023-07-28_03h08.34.295,fluency,2022.2.4,Win32,143.7401179,,,,,,,,,,,,,,,,,,,,,,,10,7,img/B07_10.jpg,CONTROL,Press K as soon as you see a face, ,KJ,,,,,,,,,,,,,,,,,,,,,,,,,,,,,,,,2,0.4158,,,,,,,,,,,,,,,,,,,,,,,space,0.1752,0,101,101,76,1,,,,,,,,,,,,,,,,,,,,,,,,,,,,,,,,,,,,,,,,,,,,,,,,,,,,,,,,,,,,
,,,,600444,001,2023-07-28_03h08.34.295,fluency,2022.2.4,Win32,143.7401179,,,,,,,,,,,,,,,,,,,,,,,,,,,,,,,,,,,,,,,,,,,,,,,,,,,,,,,,,,,,,,,,,,,,,,,,,,,"[""k""]",[0.8217999999523045],"[""k""]",[0.8217999999523045],0,0,0,0,0,1,,,,,,,,,,,,,,,,,,,,,,,,,,,,,,,,,,,,,,,,,,,,,,,,,,,,,,,,,,,,,,,,,,,
,,,,600444,001,2023-07-28_03h08.34.295,fluency,2022.2.4,Win32,143.7401179,,,,,,,,,,,,,,,,,,,,,,,5,1,img/B01_05.jpg,CONTROL,Press K as soon as you see a face, ,KJ,,,,,,,,,,,,,,,,,,,,,,,,,,,,,,,,1,0.3061,,,,,,,,,,,,,,,,,,,,,,,space,0.1628,0,102,102,5,1,,,,,,,,,,,,,,,,,,,,,,,,,,,,,,,,,,,,,,,,,,,,,,,,,,,,,,,,,,,,
,,,,600444,001,2023-07-28_03h08.34.295,fluency,2022.2.4,Win32,143.7401179,,,,,,,,,,,,,,,,,,,,,,,,,,,,,,,,,,,,,,,,,,,,,,,,,,,,,,,,,,,,,,,,,,,,,,,,,,,"[""k""]",[0.24329999995222806],"[""k""]",[0.24329999995222806],0,0,0,0,0,1,,,,,,,,,,,,,,,,,,,,,,,,,,,,,,,,,,,,,,,,,,,,,,,,,,,,,,,,,,,,,,,,,,,
,,,,600444,001,2023-07-28_03h08.34.295,fluency,2022.2.4,Win32,143.7401179,,,,,,,,,,,,,,,,,,,,,,,7,10,img/B10_07.jpg,CONTROL,Press K as soon as you see a face, ,KJ,,,,,,,,,,,,,,,,,,,,,,,,,,,,,,,,1,0.3657,,,,,,,,,,,,,,,,,,,,,,,space,0.111,0,103,103,106,1,,,,,,,,,,,,,,,,,,,,,,,,,,,,,,,,,,,,,,,,,,,,,,,,,,,,,,,,,,,,
,,,,600444,001,2023-07-28_03h08.34.295,fluency,2022.2.4,Win32,143.7401179,,,,,,,,,,,,,,,,,,,,,,,,,,,,,,,,,,,,,,,,,,,,,,,,,,,,,,,,,,,,,,,,,,,,,,,,,,,"[""k""]",[0.43679999995231356],"[""k""]",[0.43679999995231356],0,0,0,0,0,1,,,,,,,,,,,,,,,,,,,,,,,,,,,,,,,,,,,,,,,,,,,,,,,,,,,,,,,,,,,,,,,,,,,
,,,,600444,001,2023-07-28_03h08.34.295,fluency,2022.2.4,Win32,143.7401179,,,,,,,,,,,,,,,,,,,,,,,6,8,img/B08_06.jpg,CONTROL,Press K as soon as you see a face, ,KJ,,,,,,,,,,,,,,,,,,,,,,,,,,,,,,,,1,0.3419,,,,,,,,,,,,,,,,,,,,,,,space,0.0755,0,104,104,83,1,,,,,,,,,,,,,,,,,,,,,,,,,,,,,,,,,,,,,,,,,,,,,,,,,,,,,,,,,,,,
,,,,600444,001,2023-07-28_03h08.34.295,fluency,2022.2.4,Win32,143.7401179,,,,,,,,,,,,,,,,,,,,,,,,,,,,,,,,,,,,,,,,,,,,,,,,,,,,,,,,,,,,,,,,,,,,,,,,,,,"[""k""]",[0.4455000000000382],"[""k""]",[0.4455000000000382],0,0,0,0,0,1,,,,,,,,,,,,,,,,,,,,,,,,,,,,,,,,,,,,,,,,,,,,,,,,,,,,,,,,,,,,,,,,,,,
,,,,600444,001,2023-07-28_03h08.34.295,fluency,2022.2.4,Win32,143.7401179,,,,,,,,,,,,,,,,,,,,,,,0,8,img/B08_00.jpg,CONTROL,Press K as soon as you see a face, ,KJ,,,,,,,,,,,,,,,,,,,,,,,,,,,,,,,,1,0.3371,,,,,,,,,,,,,,,,,,,,,,,space,0.0766,0,105,105,77,1,,,,,,,,,,,,,,,,,,,,,,,,,,,,,,,,,,,,,,,,,,,,,,,,,,,,,,,,,,,,
,,,,600444,001,2023-07-28_03h08.34.295,fluency,2022.2.4,Win32,143.7401179,,,,,,,,,,,,,,,,,,,,,,,,,,,,,,,,,,,,,,,,,,,,,,,,,,,,,,,,,,,,,,,,,,,,,,,,,,,"[""k""]",[0.33339999985685154],"[""k""]",[0.33339999985685154],0,0,0,0,0,1,,,,,,,,,,,,,,,,,,,,,,,,,,,,,,,,,,,,,,,,,,,,,,,,,,,,,,,,,,,,,,,,,,,
,,,,600444,001,2023-07-28_03h08.34.295,fluency,2022.2.4,Win32,143.7401179,,,,,,,,,,,,,,,,,,,,,,,6,4,img/B04_06.jpg,CONTROL,Press K as soon as you see a face, ,KJ,,,,,,,,,,,,,,,,,,,,,,,,,,,,,,,,1,0.3409,,,,,,,,,,,,,,,,,,,,,,,space,0.1313,0,106,106,39,1,,,,,,,,,,,,,,,,,,,,,,,,,,,,,,,,,,,,,,,,,,,,,,,,,,,,,,,,,,,,
,,,,600444,001,2023-07-28_03h08.34.295,fluency,2022.2.4,Win32,143.7401179,,,,,,,,,,,,,,,,,,,,,,,,,,,,,,,,,,,,,,,,,,,,,,,,,,,,,,,,,,,,,,,,,,,,,,,,,,,"[""k""]",[0.39849999999989905],"[""k""]",[0.39849999999989905],0,0,0,0,0,1,,,,,,,,,,,,,,,,,,,,,,,,,,,,,,,,,,,,,,,,,,,,,,,,,,,,,,,,,,,,,,,,,,,
,,,,600444,001,2023-07-28_03h08.34.295,fluency,2022.2.4,Win32,143.7401179,,,,,,,,,,,,,,,,,,,,,,,4,5,img/B05_04.jpg,CONTROL,Press K as soon as you see a face, ,KJ,,,,,,,,,,,,,,,,,,,,,,,,,,,,,,,,1,0.3491,,,,,,,,,,,,,,,,,,,,,,,space,0.0343,0,107,107,48,1,,,,,,,,,,,,,,,,,,,,,,,,,,,,,,,,,,,,,,,,,,,,,,,,,,,,,,,,,,,,
,,,,600444,001,2023-07-28_03h08.34.295,fluency,2022.2.4,Win32,143.7401179,,,,,,,,,,,,,,,,,,,,,,,,,,,,,,,,,,,,,,,,,,,,,,,,,,,,,,,,,,,,,,,,,,,,,,,,,,,"[""k""]",[0.24879999995232538],"[""k""]",[0.24879999995232538],0,0,0,0,0,1,,,,,,,,,,,,,,,,,,,,,,,,,,,,,,,,,,,,,,,,,,,,,,,,,,,,,,,,,,,,,,,,,,,
,,,,600444,001,2023-07-28_03h08.34.295,fluency,2022.2.4,Win32,143.7401179,,,,,,,,,,,,,,,,,,,,,,,6,1,img/B01_06.jpg,CONTROL,Press K as soon as you see a face, ,KJ,,,,,,,,,,,,,,,,,,,,,,,,,,,,,,,,1,0.3811,,,,,,,,,,,,,,,,,,,,,,,space,4.488,0,108,108,6,1,,,,,,,,,,,,,,,,,,,,,,,,,,,,,,,,,,,,,,,,,,,,,,,,,,,,,,,,,,,,
,,,,600444,001,2023-07-28_03h08.34.295,fluency,2022.2.4,Win32,143.7401179,,,,,,,,,,,,,,,,,,,,,,,,,,,,,,,,,,,,,,,,,,,,,,,,,,,,,,,,,,,,,,,,,,,,,,,,,,,"[""k""]",[0.2719999999999345],"[""k""]",[0.2719999999999345],0,0,0,0,0,1,,,,,,,,,,,,,,,,,,,,,,,,,,,,,,,,,,,,,,,,,,,,,,,,,,,,,,,,,,,,,,,,,,,
,,,,600444,001,2023-07-28_03h08.34.295,fluency,2022.2.4,Win32,143.7401179,,,,,,,,,,,,,,,,,,,,,,,0,5,img/B05_00.jpg,CONTROL,Press K as soon as you see a face, ,KJ,,,,,,,,,,,,,,,,,,,,,,,,,,,,,,,,1,0.2943,,,,,,,,,,,,,,,,,,,,,,,space,2.1931,0,109,109,44,1,,,,,,,,,,,,,,,,,,,,,,,,,,,,,,,,,,,,,,,,,,,,,,,,,,,,,,,,,,,,
,,,,600444,001,2023-07-28_03h08.34.295,fluency,2022.2.4,Win32,143.7401179,,,,,,,,,,,,,,,,,,,,,,,,,,,,,,,,,,,,,,,,,,,,,,,,,,,,,,,,,,,,,,,,,,,,,,,,,,,,,,,,,,,,,,,,,,,,space,7.4701,,,,,,,,,,,,,,,,,,,,,,,,,,,,,,,,,,,,,,,,,,,,,,,,,,,,,,,,,,
,,,,600444,001,2023-07-28_03h08.34.295,fluency,2022.2.4,Win32,143.7401179,,,,,,,,,,,,,,,,,,,,,,,,,,,,,,,,,,,,,,,,,,,,,,,,,,,,,,,,,,,,,,,,,,,,,,,,,,,,,,,,,,,,,,,,,,,,,,4,7.9625,3,13.1935,4,20.0906,5,25.4194,1,[0.8403999998569134],[0.8403999998569134],,,,,,,,,,,,,,,,,,,,,,,,,,,,,,,,,,,,,,,,,,,,,,,
,,,,600444,001,2023-07-28_03h08.34.295,fluency,2022.2.4,Win32,143.7401179,,,,,,,,,,,,,,,,,,,,,,,,,,,,,,,,,,,,,,,,,,,,,,,,,,,,,,,,,,,,,,,,,,,,,,,,,,,,,,,,,,,,,,,,,,,,,,,,,,,,,,,,,3,8.123,6,14.3241,4,23.7249,3,29.3837,1,[0.7917000000477401],[0.7917999999523317],,,,,,,,,,,,,,,,,,,,,,,,,,,,,,,,,,,,
,,,,600444,001,2023-07-28_03h08.34.295,fluency,2022.2.4,Win32,143.7401179,,,,,,,,,,,,,,,,,,,,,,,,,,,,,,,,,,,,,,,,,,,,,,,,,,,,,,,,,,,,,,,,,,,,,,,,,,,,,,,,,,,,,,,,,,,,,,,,,,,,,,,,,,,,,,,,,,,,4,5.8273,3,7.403,4,9.1067,2,10.8267,1,[0.5487000000476883],[0.5488000001907949],,,,,,,,,,,,,,,,,,,,,,,,,
,,,,600444,001,2023-07-28_03h08.34.295,fluency,2022.2.4,Win32,143.7401179,,,,,,,,,,,,,,,,,,,,,,,,,,,,,,,,,,,,,,,,,,,,,,,,,,,,,,,,,,,,,,,,,,,,,,,,,,,,,,,,,,,,,,,,,,,,,,,,,,,,,,,,,,,,,,,,,,,,,,,,,,,,,,,4,2.3404,5,6.2609,2,8.8622,1,[0.6527999999523217],[0.6527999999523217],,,,,,,,,,,,,,,,
,,,,600444,001,2023-07-28_03h08.34.295,fluency,2022.2.4,Win32,143.7401179,,,,,,,,,,,,,,,,,,,,,,,,,,,,,,,,,,,,,,,,,,,,,,,,,,,,,,,,,,,,,,,,,,,,,,,,,,,,,,,,,,,,,,,,,,,,,,,,,,,,,,,,,,,,,,,,,,,,,,,,,,,,,,,,,,,,,,,,3,3.268,4,4.8771,,1,[2.0555999999046435],[2.0555999999046435],,,,,,,,
,,,,600444,001,2023-07-28_03h08.34.295,fluency,2022.2.4,Win32,143.7401179,,,,,,,,,,,,,,,,,,,,,,,,,,,,,,,,,,,,,,,,,,,,,,,,,,,,,,,,,,,,,,,,,,,,,,,,,,,,,,,,,,,,,,,,,,,,,,,,,,,,,,,,,,,,,,,,,,,,,,,,,,,,,,,,,,,,,,,,,,,,,,,,,1,[4.798599999904582],[4.798599999904582],,,,
,,,,600444,001,2023-07-28_03h08.34.295,fluency,2022.2.4,Win32,143.7401179,,,,,,,,,,,,,,,,,,,,,,,,,,,,,,,,,,,,,,,,,,,,,,,,,,,,,,,,,,,,,,,,,,,,,,,,,,,,,,,,,,,,,,,,,,,,,,,,,,,,,,,,,,,,,,,,,,,,,,,,,,,,,,,,,,,,,,,,,,,,,,,,,,,,space,41.2395,,
,,,,600444,001,2023-07-28_03h08.34.295,fluency,2022.2.4,Win32,143.7401179,,,,,,,,,,,,,,,,,,,,,,,,,,,,,,,,,,,,,,,,,,,,,,,,,,,,,,,,,,,,,,,,,,,,,,,,,,,,,,,,,,,,,,,,,,,,,,,,,,,,,,,,,,,,,,,,,,,,,,,,,,,,,,,,,,,,,,,,,,,,,,,,,,,,,,tab,11.3015
