idTextbox.text,welcomeDone.numClicks,welcomeDone.timesOn,welcomeDone.timesOff,participant,session,date,expName,psychopyVersion,OS,frameRate,consent_advance.keys,consent_advance.rt,consent_advance_2.keys,consent_advance_2.rt,consentClick.x,consentClick.y,consentClick.leftButton,consentClick.midButton,consentClick.rightButton,consentClick.time,consentClick.clicked_name,instr_advance_3.keys,instr_advance_3.rt,spec_instr_adv.keys,spec_instr_adv.rt,spec_instr_adv2.keys,spec_instr_adv2.rt,instrLoop.thisRepN,instrLoop.thisTrialN,instrLoop.thisN,instrLoop.thisIndex,instrLoop.ran,steps,fams,face_file,cond,instr,term,key_map,attnKeyResp1.keys,attnKeyResp1.rt,q1.thisRepN,q1.thisTrialN,q1.thisN,q1.thisIndex,q1.ran,attnKeyResp2.keys,attnKeyResp2.rt,q2.thisRepN,q2.thisTrialN,q2.thisN,q2.thisIndex,q2.ran,attnKeyResp3.keys,attnKeyResp3.rt,q3.thisRepN,q3.thisTrialN,q3.thisN,q3.thisIndex,q3.ran,practiceStart.keys,practiceStart.rt,practiceResp.keys,timesRedone,redo_keypress.keys,redo_keypress.rt,practiceFailed.thisRepN,practiceFailed.thisTrialN,practiceFailed.thisN,practiceFailed.thisIndex,practiceFailed.ran,practiceRepeat.thisRepN,practiceRepeat.thisTrialN,practiceRepeat.thisN,practiceRepeat.thisIndex,practiceRepeat.ran,practiceResp.rt,attrRating.keys,attrRating.rt,practiceTrial.thisRepN,practiceTrial.thisTrialN,practiceTrial.thisN,practiceTrial.thisIndex,practiceTrial.ran,key_resp_3.keys,key_resp_3.rt,attnChecker.thisRepN,attnChecker.thisTrialN,attnChecker.thisN,attnChecker.thisIndex,attnChecker.ran,catResp.keys,catResp.rt,catRespPress,repeat_loop.thisRepN,repeat_loop.thisTrialN,repeat_loop.thisN,repeat_loop.thisIndex,repeat_loop.ran,contResp.keys,contResp.rt,trials.thisRepN,trials.thisTrialN,trials.thisN,trials.thisIndex,trials.ran,contResp_2.keys,contResp_2.rt,respQ1.response,respQ1.rt,respQ2.response,respQ2.rt,respQ3.response,respQ3.rt,respQ4.response,respQ4.rt,surveyContinue1.numClicks,surveyContinue1.timesOn,surveyContinue1.timesOff,respQ5.response,respQ5.rt,respQ6.response,respQ6.rt,respQ7.response,respQ7.rt,respQ8.response,respQ8.rt,surveyContinue2.numClicks,surveyContinue2.timesOn,surveyContinue2.timesOff,respQ9.response,respQ9.rt,respQ10.response,respQ10.rt,respQ11.response,respQ11.rt,respQ12.response,respQ12.rt,surveyContinue3.numClicks,surveyContinue3.timesOn,surveyContinue3.timesOff,respQ13.response,respQ13.rt,respQ14.response,respQ14.rt,respQ15.response,respQ15.rt,surveyContinue4.numClicks,surveyContinue4.timesOn,surveyContinue4.timesOff,respAge.response,respAge.rt,genderResp1.response,genderResp1.rt,genderResp2.text,demogexitClick.numClicks,demogexitClick.timesOn,demogexitClick.timesOff,textbox.text,openAnswerClick.numClicks,openAnswerClick.timesOn,openAnswerClick.timesOff,debriefEnd.keys,debriefEnd.rt,exitKey.keys,exitKey.rt
613a469755c08ab3b9d682ad,1,[124.26369999999926],[124.26410000000149],924726,001,2023-05-02_17h16.24.986,fluency,2022.2.5,Win32,64.55361177,,,,,,,,,,,,,,,,,,,,,,,,,,,,,,,,,,,,,,,,,,,,,,,,,,,,,,,,,,,,,,,,,,,,,,,,,,,,,,,,,,,,,,,,,,,,,,,,,,,,,,,,,,,,,,,,,,,,,,,,,,,,,,,,,,,,,,,,,,,,,,,,,,,,,,,,,,,,
,,,,924726,001,2023-05-02_17h16.24.986,fluency,2022.2.5,Win32,64.55361177,space,15.0595,,,,,,,,,,,,,,,,,,,,,,,,,,,,,,,,,,,,,,,,,,,,,,,,,,,,,,,,,,,,,,,,,,,,,,,,,,,,,,,,,,,,,,,,,,,,,,,,,,,,,,,,,,,,,,,,,,,,,,,,,,,,,,,,,,,,,,,,,,,,,,,,,,,,,,,,,,
,,,,924726,001,2023-05-02_17h16.24.986,fluency,2022.2.5,Win32,64.55361177,,,space,13.2914,,,,,,,,,,,,,,,,,,,,,,,,,,,,,,,,,,,,,,,,,,,,,,,,,,,,,,,,,,,,,,,,,,,,,,,,,,,,,,,,,,,,,,,,,,,,,,,,,,,,,,,,,,,,,,,,,,,,,,,,,,,,,,,,,,,,,,,,,,,,,,,,,,,,,,,,
,,,,924726,001,2023-05-02_17h16.24.986,fluency,2022.2.5,Win32,64.55361177,,,,,0.300309598,-0.330753354,1,0,0,35.1035,iAgree,,,,,,,,,,,,,,,,,,,,,,,,,,,,,,,,,,,,,,,,,,,,,,,,,,,,,,,,,,,,,,,,,,,,,,,,,,,,,,,,,,,,,,,,,,,,,,,,,,,,,,,,,,,,,,,,,,,,,,,,,,,,,,,,,,,,,,,,,,,,,,,,,
,,,,924726,001,2023-05-02_17h16.24.986,fluency,2022.2.5,Win32,64.55361177,,,,,,,,,,,,space,16.8815,,,,,,,,,,,,,,,,,,,,,,,,,,,,,,,,,,,,,,,,,,,,,,,,,,,,,,,,,,,,,,,,,,,,,,,,,,,,,,,,,,,,,,,,,,,,,,,,,,,,,,,,,,,,,,,,,,,,,,,,,,,,,,,,,,,,,,,,,,,,,,,
,,,,924726,001,2023-05-02_17h16.24.986,fluency,2022.2.5,Win32,64.55361177,,,,,,,,,,,,,,space,25.3654,space,9.4832,0,0,0,86,1,9,8,img/B08_09.jpg,GCNB,Press J if the face is NONBINARY and K if the face is GENDER-CONFORMING,Gender-conforming means that the face appears to be a typical example of its gender. Nonbinary means that the face does not conform to any particular gender norms.,KJ,,,,,,,,,,,,,,,,,,,,,,,,,,,,,,,,,,,,,,,,,,,,,,,,,,,,,,,,,,,,,,,,,,,,,,,,,,,,,,,,,,,,,,,,,,,,,,,,,,,,,,,,,,,,,,,,,,,,,,,,,,,,,,,
,,,,924726,001,2023-05-02_17h16.24.986,fluency,2022.2.5,Win32,64.55361177,,,,,,,,,,,,,,,,,,,,,,,,,,,,,,c,13.1746,0,0,0,0,1,,,,,,,,,,,,,,,,,,,,,,,,,,,,,,,,,,,,,,,,,,,,,,,,,,,,,,,,,,,,,,,,,,,,,,,,,,,,,,,,,,,,,,,,,,,,,,,,,,,,,,,,,,,,,,,,,,,,,,,,
,,,,924726,001,2023-05-02_17h16.24.986,fluency,2022.2.5,Win32,64.55361177,,,,,,,,,,,,,,,,,,,,,,,,,,,,,,,,,,,,,a,5.6724,0,0,0,0,1,,,,,,,,,,,,,,,,,,,,,,,,,,,,,,,,,,,,,,,,,,,,,,,,,,,,,,,,,,,,,,,,,,,,,,,,,,,,,,,,,,,,,,,,,,,,,,,,,,,,,,,,,,,,,,,,,
,,,,924726,001,2023-05-02_17h16.24.986,fluency,2022.2.5,Win32,64.55361177,,,,,,,,,,,,,,,,,,,,,,,,,,,,,,,,,,,,,,,,,,,,c,5.959,0,0,0,0,1,,,,,,,,,,,,,,,,,,,,,,,,,,,,,,,,,,,,,,,,,,,,,,,,,,,,,,,,,,,,,,,,,,,,,,,,,,,,,,,,,,,,,,,,,,,,,,,,,,,,,,,,,,
,,,,924726,001,2023-05-02_17h16.24.986,fluency,2022.2.5,Win32,64.55361177,,,,,,,,,,,,,,,,,,,,,,,,,,,,,,,,,,,,,,,,,,,,,,,,,,,space,1.3477,,1,space,7.4057,0,0,0,0,1,,,,,,,,,,,,,,,,,,,,,,,,,,,,,,,,,,,,,,,,,,,,,,,,,,,,,,,,,,,,,,,,,,,,,,,,,,,,,,,,,,,,,,,,,,,,,,,
,,,,924726,001,2023-05-02_17h16.24.986,fluency,2022.2.5,Win32,64.55361177,,,,,,,,,,,,,,,,,,,,,,,,,,,,,,,,,,,,,,,,,,,,,,,,,,,,,,,,,,,,,,0,0,0,0,1,,,,,,,,,,,,,,,,,,,,,,,,,,,,,,,,,,,,,,,,,,,,,,,,,,,,,,,,,,,,,,,,,,,,,,,,,,,,,,,,,,,,,,,,,,
,,,,924726,001,2023-05-02_17h16.24.986,fluency,2022.2.5,Win32,64.55361177,,,,,,,,,,,,,,,,,,,,,,,,,,,,,,,,,,,,,,,,,,,,,,,,,,,,,k,1,,,,,,,,1,0,1,0,1,0.5011,,,,,,,,,,,,,,,,,,,,,,,,,,,,,,,,,,,,,,,,,,,,,,,,,,,,,,,,,,,,,,,,,,,,,,,,,,,,,,,,,,,,,,,,,
,,,,924726,001,2023-05-02_17h16.24.986,fluency,2022.2.5,Win32,64.55361177,,,,,,,,,,,,,,,,,,,,,,,,,,,,,,,,,,,,,,,,,,,,,,,,,,,,,,,,,,,,,,,,,,,,7,14.91,0,0,0,0,1,,,,,,,,,,,,,,,,,,,,,,,,,,,,,,,,,,,,,,,,,,,,,,,,,,,,,,,,,,,,,,,,,,,,,,,,,,,,,,,,,,
,,,,924726,001,2023-05-02_17h16.24.986,fluency,2022.2.5,Win32,64.55361177,,,,,,,,,,,,,,,,,,,,,,,,,,,,,,,,,,,,,,,,,,,,,,,,,,,,,,,,,,,,,,,,,,,,,,,,,,,space,5.0942,0,0,0,0,1,,,,,,,,,,,,,,,,,,,,,,,,,,,,,,,,,,,,,,,,,,,,,,,,,,,,,,,,,,,,,,,,,,,,,,,,,,,
,,,,924726,001,2023-05-02_17h16.24.986,fluency,2022.2.5,Win32,64.55361177,,,,,,,,,,,,,,,,,,,,,,,,,,,,,,,,,,,,,,,,,,,,,,,,,,,,,,0,,,,,,,,,,,,,,,,,,,,,,,,,,,,j,1.0563,"[""space"",""7"",""space"",""j""]",0,0,0,0,1,,,,,,,,,,,,,,,,,,,,,,,,,,,,,,,,,,,,,,,,,,,,,,,,,,,,,,,,,,,,,,,,,,,
,,,,924726,001,2023-05-02_17h16.24.986,fluency,2022.2.5,Win32,64.55361177,,,,,,,,,,,,,,,,,,,,,,,3,8,img/B08_03.jpg,GCNB,Press J if the face is NONBINARY and K if the face is GENDER-CONFORMING,Gender-conforming means that the face appears to be a typical example of its gender. Nonbinary means that the face does not conform to any particular gender norms.,KJ,,,,,,,,,,,,,,,,,,,,,,,,,,,,,,,,,,,,,,,6,2.4804,,,,,,,,,,,,,,,,,,,,,space,11.2157,0,0,0,80,1,,,,,,,,,,,,,,,,,,,,,,,,,,,,,,,,,,,,,,,,,,,,,,,,,,,,,,,,,,,,
,,,,924726,001,2023-05-02_17h16.24.986,fluency,2022.2.5,Win32,64.55361177,,,,,,,,,,,,,,,,,,,,,,,,,,,,,,,,,,,,,,,,,,,,,,,,,,,,,,0,,,,,,,,,,,,,,,,,,,,,,,,,,,,j,1.0164,"[""6"",""space"",""j""]",0,0,0,0,1,,,,,,,,,,,,,,,,,,,,,,,,,,,,,,,,,,,,,,,,,,,,,,,,,,,,,,,,,,,,,,,,,,,
,,,,924726,001,2023-05-02_17h16.24.986,fluency,2022.2.5,Win32,64.55361177,,,,,,,,,,,,,,,,,,,,,,,6,8,img/B08_06.jpg,GCNB,Press J if the face is NONBINARY and K if the face is GENDER-CONFORMING,Gender-conforming means that the face appears to be a typical example of its gender. Nonbinary means that the face does not conform to any particular gender norms.,KJ,,,,,,,,,,,,,,,,,,,,,,,,,,,,,,,,,,,,,,,7,3.2045,,,,,,,,,,,,,,,,,,,,,space,1.4015,0,1,1,83,1,,,,,,,,,,,,,,,,,,,,,,,,,,,,,,,,,,,,,,,,,,,,,,,,,,,,,,,,,,,,
,,,,924726,001,2023-05-02_17h16.24.986,fluency,2022.2.5,Win32,64.55361177,,,,,,,,,,,,,,,,,,,,,,,,,,,,,,,,,,,,,,,,,,,,,,,,,,,,,,0,,,,,,,,,,,,,,,,,,,,,,,,,,,,k,1.1626,"[""7"",""space"",""k""]",0,0,0,0,1,,,,,,,,,,,,,,,,,,,,,,,,,,,,,,,,,,,,,,,,,,,,,,,,,,,,,,,,,,,,,,,,,,,
,,,,924726,001,2023-05-02_17h16.24.986,fluency,2022.2.5,Win32,64.55361177,,,,,,,,,,,,,,,,,,,,,,,8,9,img/B09_08.jpg,GCNB,Press J if the face is NONBINARY and K if the face is GENDER-CONFORMING,Gender-conforming means that the face appears to be a typical example of its gender. Nonbinary means that the face does not conform to any particular gender norms.,KJ,,,,,,,,,,,,,,,,,,,,,,,,,,,,,,,,,,,,,,,7,2.8503,,,,,,,,,,,,,,,,,,,,,space,1.2024,0,2,2,96,1,,,,,,,,,,,,,,,,,,,,,,,,,,,,,,,,,,,,,,,,,,,,,,,,,,,,,,,,,,,,
,,,,924726,001,2023-05-02_17h16.24.986,fluency,2022.2.5,Win32,64.55361177,,,,,,,,,,,,,,,,,,,,,,,,,,,,,,,,,,,,,,,,,,,,,,,,,,,,,,0,,,,,,,,,,,,,,,,,,,,,,,,,,,,k,1.0295,"[""7"",""space"",""k""]",0,0,0,0,1,,,,,,,,,,,,,,,,,,,,,,,,,,,,,,,,,,,,,,,,,,,,,,,,,,,,,,,,,,,,,,,,,,,
,,,,924726,001,2023-05-02_17h16.24.986,fluency,2022.2.5,Win32,64.55361177,,,,,,,,,,,,,,,,,,,,,,,9,10,img/B10_09.jpg,GCNB,Press J if the face is NONBINARY and K if the face is GENDER-CONFORMING,Gender-conforming means that the face appears to be a typical example of its gender. Nonbinary means that the face does not conform to any particular gender norms.,KJ,,,,,,,,,,,,,,,,,,,,,,,,,,,,,,,,,,,,,,,6,2.9448,,,,,,,,,,,,,,,,,,,,,space,1.2672,0,3,3,108,1,,,,,,,,,,,,,,,,,,,,,,,,,,,,,,,,,,,,,,,,,,,,,,,,,,,,,,,,,,,,
,,,,924726,001,2023-05-02_17h16.24.986,fluency,2022.2.5,Win32,64.55361177,,,,,,,,,,,,,,,,,,,,,,,,,,,,,,,,,,,,,,,,,,,,,,,,,,,,,,0,,,,,,,,,,,,,,,,,,,,,,,,,,,,j,1.4817,"[""6"",""space"",""j""]",0,0,0,0,1,,,,,,,,,,,,,,,,,,,,,,,,,,,,,,,,,,,,,,,,,,,,,,,,,,,,,,,,,,,,,,,,,,,
,,,,924726,001,2023-05-02_17h16.24.986,fluency,2022.2.5,Win32,64.55361177,,,,,,,,,,,,,,,,,,,,,,,5,7,img/B07_05.jpg,GCNB,Press J if the face is NONBINARY and K if the face is GENDER-CONFORMING,Gender-conforming means that the face appears to be a typical example of its gender. Nonbinary means that the face does not conform to any particular gender norms.,KJ,,,,,,,,,,,,,,,,,,,,,,,,,,,,,,,,,,,,,,,6,1.9838,,,,,,,,,,,,,,,,,,,,,space,1.118,0,4,4,71,1,,,,,,,,,,,,,,,,,,,,,,,,,,,,,,,,,,,,,,,,,,,,,,,,,,,,,,,,,,,,
,,,,924726,001,2023-05-02_17h16.24.986,fluency,2022.2.5,Win32,64.55361177,,,,,,,,,,,,,,,,,,,,,,,,,,,,,,,,,,,,,,,,,,,,,,,,,,,,,,0,,,,,,,,,,,,,,,,,,,,,,,,,,,,j,1.5845,"[""6"",""space"",""j""]",0,0,0,0,1,,,,,,,,,,,,,,,,,,,,,,,,,,,,,,,,,,,,,,,,,,,,,,,,,,,,,,,,,,,,,,,,,,,
,,,,924726,001,2023-05-02_17h16.24.986,fluency,2022.2.5,Win32,64.55361177,,,,,,,,,,,,,,,,,,,,,,,2,5,img/B05_02.jpg,GCNB,Press J if the face is NONBINARY and K if the face is GENDER-CONFORMING,Gender-conforming means that the face appears to be a typical example of its gender. Nonbinary means that the face does not conform to any particular gender norms.,KJ,,,,,,,,,,,,,,,,,,,,,,,,,,,,,,,,,,,,,,,7,1.2518,,,,,,,,,,,,,,,,,,,,,space,7.6017,0,5,5,46,1,,,,,,,,,,,,,,,,,,,,,,,,,,,,,,,,,,,,,,,,,,,,,,,,,,,,,,,,,,,,
,,,,924726,001,2023-05-02_17h16.24.986,fluency,2022.2.5,Win32,64.55361177,,,,,,,,,,,,,,,,,,,,,,,,,,,,,,,,,,,,,,,,,,,,,,,,,,,,,,0,,,,,,,,,,,,,,,,,,,,,,,,,,,,k,0.9657,"[""7"",""space"",""k""]",0,0,0,0,1,,,,,,,,,,,,,,,,,,,,,,,,,,,,,,,,,,,,,,,,,,,,,,,,,,,,,,,,,,,,,,,,,,,
,,,,924726,001,2023-05-02_17h16.24.986,fluency,2022.2.5,Win32,64.55361177,,,,,,,,,,,,,,,,,,,,,,,0,2,img/B02_00.jpg,GCNB,Press J if the face is NONBINARY and K if the face is GENDER-CONFORMING,Gender-conforming means that the face appears to be a typical example of its gender. Nonbinary means that the face does not conform to any particular gender norms.,KJ,,,,,,,,,,,,,,,,,,,,,,,,,,,,,,,,,,,,,,,6,1.4833,,,,,,,,,,,,,,,,,,,,,space,0.6852,0,6,6,11,1,,,,,,,,,,,,,,,,,,,,,,,,,,,,,,,,,,,,,,,,,,,,,,,,,,,,,,,,,,,,
,,,,924726,001,2023-05-02_17h16.24.986,fluency,2022.2.5,Win32,64.55361177,,,,,,,,,,,,,,,,,,,,,,,,,,,,,,,,,,,,,,,,,,,,,,,,,,,,,,0,,,,,,,,,,,,,,,,,,,,,,,,,,,,j,1.924,"[""6"",""space"",""j""]",0,0,0,0,1,,,,,,,,,,,,,,,,,,,,,,,,,,,,,,,,,,,,,,,,,,,,,,,,,,,,,,,,,,,,,,,,,,,
,,,,924726,001,2023-05-02_17h16.24.986,fluency,2022.2.5,Win32,64.55361177,,,,,,,,,,,,,,,,,,,,,,,0,8,img/B08_00.jpg,GCNB,Press J if the face is NONBINARY and K if the face is GENDER-CONFORMING,Gender-conforming means that the face appears to be a typical example of its gender. Nonbinary means that the face does not conform to any particular gender norms.,KJ,,,,,,,,,,,,,,,,,,,,,,,,,,,,,,,,,,,,,,,6,2.0686,,,,,,,,,,,,,,,,,,,,,space,3.1011,0,7,7,77,1,,,,,,,,,,,,,,,,,,,,,,,,,,,,,,,,,,,,,,,,,,,,,,,,,,,,,,,,,,,,
,,,,924726,001,2023-05-02_17h16.24.986,fluency,2022.2.5,Win32,64.55361177,,,,,,,,,,,,,,,,,,,,,,,,,,,,,,,,,,,,,,,,,,,,,,,,,,,,,,0,,,,,,,,,,,,,,,,,,,,,,,,,,,,j,1.8799,"[""6"",""space"",""j""]",0,0,0,0,1,,,,,,,,,,,,,,,,,,,,,,,,,,,,,,,,,,,,,,,,,,,,,,,,,,,,,,,,,,,,,,,,,,,
,,,,924726,001,2023-05-02_17h16.24.986,fluency,2022.2.5,Win32,64.55361177,,,,,,,,,,,,,,,,,,,,,,,6,6,img/B06_06.jpg,GCNB,Press J if the face is NONBINARY and K if the face is GENDER-CONFORMING,Gender-conforming means that the face appears to be a typical example of its gender. Nonbinary means that the face does not conform to any particular gender norms.,KJ,,,,,,,,,,,,,,,,,,,,,,,,,,,,,,,,,,,,,,,6,3.8675,,,,,,,,,,,,,,,,,,,,,space,0.5176,0,8,8,61,1,,,,,,,,,,,,,,,,,,,,,,,,,,,,,,,,,,,,,,,,,,,,,,,,,,,,,,,,,,,,
,,,,924726,001,2023-05-02_17h16.24.986,fluency,2022.2.5,Win32,64.55361177,,,,,,,,,,,,,,,,,,,,,,,,,,,,,,,,,,,,,,,,,,,,,,,,,,,,,,0,,,,,,,,,,,,,,,,,,,,,,,,,,,,k,1.2589,"[""6"",""space"",""k""]",0,0,0,0,1,,,,,,,,,,,,,,,,,,,,,,,,,,,,,,,,,,,,,,,,,,,,,,,,,,,,,,,,,,,,,,,,,,,
,,,,924726,001,2023-05-02_17h16.24.986,fluency,2022.2.5,Win32,64.55361177,,,,,,,,,,,,,,,,,,,,,,,10,7,img/B07_10.jpg,GCNB,Press J if the face is NONBINARY and K if the face is GENDER-CONFORMING,Gender-conforming means that the face appears to be a typical example of its gender. Nonbinary means that the face does not conform to any particular gender norms.,KJ,,,,,,,,,,,,,,,,,,,,,,,,,,,,,,,,,,,,,,,7,3.2492,,,,,,,,,,,,,,,,,,,,,space,0.7511,0,9,9,76,1,,,,,,,,,,,,,,,,,,,,,,,,,,,,,,,,,,,,,,,,,,,,,,,,,,,,,,,,,,,,
,,,,924726,001,2023-05-02_17h16.24.986,fluency,2022.2.5,Win32,64.55361177,,,,,,,,,,,,,,,,,,,,,,,,,,,,,,,,,,,,,,,,,,,,,,,,,,,,,,0,,,,,,,,,,,,,,,,,,,,,,,,,,,,k,0.8501,"[""7"",""space"",""k""]",0,0,0,0,1,,,,,,,,,,,,,,,,,,,,,,,,,,,,,,,,,,,,,,,,,,,,,,,,,,,,,,,,,,,,,,,,,,,
,,,,924726,001,2023-05-02_17h16.24.986,fluency,2022.2.5,Win32,64.55361177,,,,,,,,,,,,,,,,,,,,,,,0,7,img/B07_00.jpg,GCNB,Press J if the face is NONBINARY and K if the face is GENDER-CONFORMING,Gender-conforming means that the face appears to be a typical example of its gender. Nonbinary means that the face does not conform to any particular gender norms.,KJ,,,,,,,,,,,,,,,,,,,,,,,,,,,,,,,,,,,,,,,5,1.9516,,,,,,,,,,,,,,,,,,,,,space,0.7025,0,10,10,66,1,,,,,,,,,,,,,,,,,,,,,,,,,,,,,,,,,,,,,,,,,,,,,,,,,,,,,,,,,,,,
,,,,924726,001,2023-05-02_17h16.24.986,fluency,2022.2.5,Win32,64.55361177,,,,,,,,,,,,,,,,,,,,,,,,,,,,,,,,,,,,,,,,,,,,,,,,,,,,,,0,,,,,,,,,,,,,,,,,,,,,,,,,,,,k,1.0957,"[""5"",""space"",""k""]",0,0,0,0,1,,,,,,,,,,,,,,,,,,,,,,,,,,,,,,,,,,,,,,,,,,,,,,,,,,,,,,,,,,,,,,,,,,,
,,,,924726,001,2023-05-02_17h16.24.986,fluency,2022.2.5,Win32,64.55361177,,,,,,,,,,,,,,,,,,,,,,,8,5,img/B05_08.jpg,GCNB,Press J if the face is NONBINARY and K if the face is GENDER-CONFORMING,Gender-conforming means that the face appears to be a typical example of its gender. Nonbinary means that the face does not conform to any particular gender norms.,KJ,,,,,,,,,,,,,,,,,,,,,,,,,,,,,,,,,,,,,,,7,0.6461,,,,,,,,,,,,,,,,,,,,,space,0.7687,0,11,11,52,1,,,,,,,,,,,,,,,,,,,,,,,,,,,,,,,,,,,,,,,,,,,,,,,,,,,,,,,,,,,,
,,,,924726,001,2023-05-02_17h16.24.986,fluency,2022.2.5,Win32,64.55361177,,,,,,,,,,,,,,,,,,,,,,,,,,,,,,,,,,,,,,,,,,,,,,,,,,,,,,0,,,,,,,,,,,,,,,,,,,,,,,,,,,,j,1.6767,"[""7"",""space"",""j""]",0,0,0,0,1,,,,,,,,,,,,,,,,,,,,,,,,,,,,,,,,,,,,,,,,,,,,,,,,,,,,,,,,,,,,,,,,,,,
,,,,924726,001,2023-05-02_17h16.24.986,fluency,2022.2.5,Win32,64.55361177,,,,,,,,,,,,,,,,,,,,,,,3,2,img/B02_03.jpg,GCNB,Press J if the face is NONBINARY and K if the face is GENDER-CONFORMING,Gender-conforming means that the face appears to be a typical example of its gender. Nonbinary means that the face does not conform to any particular gender norms.,KJ,,,,,,,,,,,,,,,,,,,,,,,,,,,,,,,,,,,,,,,6,2.2994,,,,,,,,,,,,,,,,,,,,,space,0.5684,0,12,12,14,1,,,,,,,,,,,,,,,,,,,,,,,,,,,,,,,,,,,,,,,,,,,,,,,,,,,,,,,,,,,,
,,,,924726,001,2023-05-02_17h16.24.986,fluency,2022.2.5,Win32,64.55361177,,,,,,,,,,,,,,,,,,,,,,,,,,,,,,,,,,,,,,,,,,,,,,,,,,,,,,0,,,,,,,,,,,,,,,,,,,,,,,,,,,,j,2.554,"[""6"",""space"",""j""]",0,0,0,0,1,,,,,,,,,,,,,,,,,,,,,,,,,,,,,,,,,,,,,,,,,,,,,,,,,,,,,,,,,,,,,,,,,,,
,,,,924726,001,2023-05-02_17h16.24.986,fluency,2022.2.5,Win32,64.55361177,,,,,,,,,,,,,,,,,,,,,,,1,8,img/B08_01.jpg,GCNB,Press J if the face is NONBINARY and K if the face is GENDER-CONFORMING,Gender-conforming means that the face appears to be a typical example of its gender. Nonbinary means that the face does not conform to any particular gender norms.,KJ,,,,,,,,,,,,,,,,,,,,,,,,,,,,,,,,,,,,,,,6,3.2889,,,,,,,,,,,,,,,,,,,,,space,0.5512,0,13,13,78,1,,,,,,,,,,,,,,,,,,,,,,,,,,,,,,,,,,,,,,,,,,,,,,,,,,,,,,,,,,,,
,,,,924726,001,2023-05-02_17h16.24.986,fluency,2022.2.5,Win32,64.55361177,,,,,,,,,,,,,,,,,,,,,,,,,,,,,,,,,,,,,,,,,,,,,,,,,,,,,,0,,,,,,,,,,,,,,,,,,,,,,,,,,,,k,1.2989,"[""6"",""space"",""k""]",0,0,0,0,1,,,,,,,,,,,,,,,,,,,,,,,,,,,,,,,,,,,,,,,,,,,,,,,,,,,,,,,,,,,,,,,,,,,
,,,,924726,001,2023-05-02_17h16.24.986,fluency,2022.2.5,Win32,64.55361177,,,,,,,,,,,,,,,,,,,,,,,8,7,img/B07_08.jpg,GCNB,Press J if the face is NONBINARY and K if the face is GENDER-CONFORMING,Gender-conforming means that the face appears to be a typical example of its gender. Nonbinary means that the face does not conform to any particular gender norms.,KJ,,,,,,,,,,,,,,,,,,,,,,,,,,,,,,,,,,,,,,,7,4.186,,,,,,,,,,,,,,,,,,,,,space,7.3351,0,14,14,74,1,,,,,,,,,,,,,,,,,,,,,,,,,,,,,,,,,,,,,,,,,,,,,,,,,,,,,,,,,,,,
,,,,924726,001,2023-05-02_17h16.24.986,fluency,2022.2.5,Win32,64.55361177,,,,,,,,,,,,,,,,,,,,,,,,,,,,,,,,,,,,,,,,,,,,,,,,,,,,,,0,,,,,,,,,,,,,,,,,,,,,,,,,,,,k,0.7328,"[""7"",""space"",""k""]",0,0,0,0,1,,,,,,,,,,,,,,,,,,,,,,,,,,,,,,,,,,,,,,,,,,,,,,,,,,,,,,,,,,,,,,,,,,,
,,,,924726,001,2023-05-02_17h16.24.986,fluency,2022.2.5,Win32,64.55361177,,,,,,,,,,,,,,,,,,,,,,,1,4,img/B04_01.jpg,GCNB,Press J if the face is NONBINARY and K if the face is GENDER-CONFORMING,Gender-conforming means that the face appears to be a typical example of its gender. Nonbinary means that the face does not conform to any particular gender norms.,KJ,,,,,,,,,,,,,,,,,,,,,,,,,,,,,,,,,,,,,,,6,1.3793,,,,,,,,,,,,,,,,,,,,,space,0.5176,0,15,15,34,1,,,,,,,,,,,,,,,,,,,,,,,,,,,,,,,,,,,,,,,,,,,,,,,,,,,,,,,,,,,,
,,,,924726,001,2023-05-02_17h16.24.986,fluency,2022.2.5,Win32,64.55361177,,,,,,,,,,,,,,,,,,,,,,,,,,,,,,,,,,,,,,,,,,,,,,,,,,,,,,0,,,,,,,,,,,,,,,,,,,,,,,,,,,,j,2.143,"[""6"",""space"",""j""]",0,0,0,0,1,,,,,,,,,,,,,,,,,,,,,,,,,,,,,,,,,,,,,,,,,,,,,,,,,,,,,,,,,,,,,,,,,,,
,,,,924726,001,2023-05-02_17h16.24.986,fluency,2022.2.5,Win32,64.55361177,,,,,,,,,,,,,,,,,,,,,,,7,8,img/B08_07.jpg,GCNB,Press J if the face is NONBINARY and K if the face is GENDER-CONFORMING,Gender-conforming means that the face appears to be a typical example of its gender. Nonbinary means that the face does not conform to any particular gender norms.,KJ,,,,,,,,,,,,,,,,,,,,,,,,,,,,,,,,,,,,,,,6,2.0243,,,,,,,,,,,,,,,,,,,,,space,0.5513,0,16,16,84,1,,,,,,,,,,,,,,,,,,,,,,,,,,,,,,,,,,,,,,,,,,,,,,,,,,,,,,,,,,,,
,,,,924726,001,2023-05-02_17h16.24.986,fluency,2022.2.5,Win32,64.55361177,,,,,,,,,,,,,,,,,,,,,,,,,,,,,,,,,,,,,,,,,,,,,,,,,,,,,,0,,,,,,,,,,,,,,,,,,,,,,,,,,,,k,1.0785,"[""6"",""space"",""k""]",0,0,0,0,1,,,,,,,,,,,,,,,,,,,,,,,,,,,,,,,,,,,,,,,,,,,,,,,,,,,,,,,,,,,,,,,,,,,
,,,,924726,001,2023-05-02_17h16.24.986,fluency,2022.2.5,Win32,64.55361177,,,,,,,,,,,,,,,,,,,,,,,3,7,img/B07_03.jpg,GCNB,Press J if the face is NONBINARY and K if the face is GENDER-CONFORMING,Gender-conforming means that the face appears to be a typical example of its gender. Nonbinary means that the face does not conform to any particular gender norms.,KJ,,,,,,,,,,,,,,,,,,,,,,,,,,,,,,,,,,,,,,,5,0.9812,,,,,,,,,,,,,,,,,,,,,space,0.5022,0,17,17,69,1,,,,,,,,,,,,,,,,,,,,,,,,,,,,,,,,,,,,,,,,,,,,,,,,,,,,,,,,,,,,
,,,,924726,001,2023-05-02_17h16.24.986,fluency,2022.2.5,Win32,64.55361177,,,,,,,,,,,,,,,,,,,,,,,,,,,,,,,,,,,,,,,,,,,,,,,,,,,,,,0,,,,,,,,,,,,,,,,,,,,,,,,,,,,k,1.4061,"[""5"",""space"",""k""]",0,0,0,0,1,,,,,,,,,,,,,,,,,,,,,,,,,,,,,,,,,,,,,,,,,,,,,,,,,,,,,,,,,,,,,,,,,,,
,,,,924726,001,2023-05-02_17h16.24.986,fluency,2022.2.5,Win32,64.55361177,,,,,,,,,,,,,,,,,,,,,,,8,3,img/B03_08.jpg,GCNB,Press J if the face is NONBINARY and K if the face is GENDER-CONFORMING,Gender-conforming means that the face appears to be a typical example of its gender. Nonbinary means that the face does not conform to any particular gender norms.,KJ,,,,,,,,,,,,,,,,,,,,,,,,,,,,,,,,,,,,,,,6,2.0494,,,,,,,,,,,,,,,,,,,,,space,0.5344,0,18,18,30,1,,,,,,,,,,,,,,,,,,,,,,,,,,,,,,,,,,,,,,,,,,,,,,,,,,,,,,,,,,,,
,,,,924726,001,2023-05-02_17h16.24.986,fluency,2022.2.5,Win32,64.55361177,,,,,,,,,,,,,,,,,,,,,,,,,,,,,,,,,,,,,,,,,,,,,,,,,,,,,,0,,,,,,,,,,,,,,,,,,,,,,,,,,,,k,2.241,"[""6"",""space"",""k""]",0,0,0,0,1,,,,,,,,,,,,,,,,,,,,,,,,,,,,,,,,,,,,,,,,,,,,,,,,,,,,,,,,,,,,,,,,,,,
,,,,924726,001,2023-05-02_17h16.24.986,fluency,2022.2.5,Win32,64.55361177,,,,,,,,,,,,,,,,,,,,,,,3,6,img/B06_03.jpg,GCNB,Press J if the face is NONBINARY and K if the face is GENDER-CONFORMING,Gender-conforming means that the face appears to be a typical example of its gender. Nonbinary means that the face does not conform to any particular gender norms.,KJ,,,,,,,,,,,,,,,,,,,,,,,,,,,,,,,,,,,,,,,7,2.1268,,,,,,,,,,,,,,,,,,,,,space,0.4684,0,19,19,58,1,,,,,,,,,,,,,,,,,,,,,,,,,,,,,,,,,,,,,,,,,,,,,,,,,,,,,,,,,,,,
,,,,924726,001,2023-05-02_17h16.24.986,fluency,2022.2.5,Win32,64.55361177,,,,,,,,,,,,,,,,,,,,,,,,,,,,,,,,,,,,,,,,,,,,,,,,,,,,,,0,,,,,,,,,,,,,,,,,,,,,,,,,,,,k,1.7291,"[""7"",""space"",""k""]",0,0,0,0,1,,,,,,,,,,,,,,,,,,,,,,,,,,,,,,,,,,,,,,,,,,,,,,,,,,,,,,,,,,,,,,,,,,,
,,,,924726,001,2023-05-02_17h16.24.986,fluency,2022.2.5,Win32,64.55361177,,,,,,,,,,,,,,,,,,,,,,,7,9,img/B09_07.jpg,GCNB,Press J if the face is NONBINARY and K if the face is GENDER-CONFORMING,Gender-conforming means that the face appears to be a typical example of its gender. Nonbinary means that the face does not conform to any particular gender norms.,KJ,,,,,,,,,,,,,,,,,,,,,,,,,,,,,,,,,,,,,,,6,1.6863,,,,,,,,,,,,,,,,,,,,,space,0.6266,0,20,20,95,1,,,,,,,,,,,,,,,,,,,,,,,,,,,,,,,,,,,,,,,,,,,,,,,,,,,,,,,,,,,,
,,,,924726,001,2023-05-02_17h16.24.986,fluency,2022.2.5,Win32,64.55361177,,,,,,,,,,,,,,,,,,,,,,,,,,,,,,,,,,,,,,,,,,,,,,,,,,,,,,0,,,,,,,,,,,,,,,,,,,,,,,,,,,,k,1.3937,"[""6"",""space"",""k""]",0,0,0,0,1,,,,,,,,,,,,,,,,,,,,,,,,,,,,,,,,,,,,,,,,,,,,,,,,,,,,,,,,,,,,,,,,,,,
,,,,924726,001,2023-05-02_17h16.24.986,fluency,2022.2.5,Win32,64.55361177,,,,,,,,,,,,,,,,,,,,,,,1,5,img/B05_01.jpg,GCNB,Press J if the face is NONBINARY and K if the face is GENDER-CONFORMING,Gender-conforming means that the face appears to be a typical example of its gender. Nonbinary means that the face does not conform to any particular gender norms.,KJ,,,,,,,,,,,,,,,,,,,,,,,,,,,,,,,,,,,,,,,6,1.6862,,,,,,,,,,,,,,,,,,,,,space,0.8681,0,21,21,45,1,,,,,,,,,,,,,,,,,,,,,,,,,,,,,,,,,,,,,,,,,,,,,,,,,,,,,,,,,,,,
,,,,924726,001,2023-05-02_17h16.24.986,fluency,2022.2.5,Win32,64.55361177,,,,,,,,,,,,,,,,,,,,,,,,,,,,,,,,,,,,,,,,,,,,,,,,,,,,,,0,,,,,,,,,,,,,,,,,,,,,,,,,,,,k,1.1318,"[""6"",""space"",""k""]",0,0,0,0,1,,,,,,,,,,,,,,,,,,,,,,,,,,,,,,,,,,,,,,,,,,,,,,,,,,,,,,,,,,,,,,,,,,,
,,,,924726,001,2023-05-02_17h16.24.986,fluency,2022.2.5,Win32,64.55361177,,,,,,,,,,,,,,,,,,,,,,,1,6,img/B06_01.jpg,GCNB,Press J if the face is NONBINARY and K if the face is GENDER-CONFORMING,Gender-conforming means that the face appears to be a typical example of its gender. Nonbinary means that the face does not conform to any particular gender norms.,KJ,,,,,,,,,,,,,,,,,,,,,,,,,,,,,,,,,,,,,,,7,2.4331,,,,,,,,,,,,,,,,,,,,,space,0.4845,0,22,22,56,1,,,,,,,,,,,,,,,,,,,,,,,,,,,,,,,,,,,,,,,,,,,,,,,,,,,,,,,,,,,,
,,,,924726,001,2023-05-02_17h16.24.986,fluency,2022.2.5,Win32,64.55361177,,,,,,,,,,,,,,,,,,,,,,,,,,,,,,,,,,,,,,,,,,,,,,,,,,,,,,0,,,,,,,,,,,,,,,,,,,,,,,,,,,,k,0.9636,"[""7"",""space"",""k""]",0,0,0,0,1,,,,,,,,,,,,,,,,,,,,,,,,,,,,,,,,,,,,,,,,,,,,,,,,,,,,,,,,,,,,,,,,,,,
,,,,924726,001,2023-05-02_17h16.24.986,fluency,2022.2.5,Win32,64.55361177,,,,,,,,,,,,,,,,,,,,,,,9,1,img/B01_09.jpg,GCNB,Press J if the face is NONBINARY and K if the face is GENDER-CONFORMING,Gender-conforming means that the face appears to be a typical example of its gender. Nonbinary means that the face does not conform to any particular gender norms.,KJ,,,,,,,,,,,,,,,,,,,,,,,,,,,,,,,,,,,,,,,6,1.5153,,,,,,,,,,,,,,,,,,,,,space,0.4901,0,23,23,9,1,,,,,,,,,,,,,,,,,,,,,,,,,,,,,,,,,,,,,,,,,,,,,,,,,,,,,,,,,,,,
,,,,924726,001,2023-05-02_17h16.24.986,fluency,2022.2.5,Win32,64.55361177,,,,,,,,,,,,,,,,,,,,,,,,,,,,,,,,,,,,,,,,,,,,,,,,,,,,,,0,,,,,,,,,,,,,,,,,,,,,,,,,,,,k,1.9662,"[""6"",""space"",""k""]",0,0,0,0,1,,,,,,,,,,,,,,,,,,,,,,,,,,,,,,,,,,,,,,,,,,,,,,,,,,,,,,,,,,,,,,,,,,,
,,,,924726,001,2023-05-02_17h16.24.986,fluency,2022.2.5,Win32,64.55361177,,,,,,,,,,,,,,,,,,,,,,,2,9,img/B09_02.jpg,GCNB,Press J if the face is NONBINARY and K if the face is GENDER-CONFORMING,Gender-conforming means that the face appears to be a typical example of its gender. Nonbinary means that the face does not conform to any particular gender norms.,KJ,,,,,,,,,,,,,,,,,,,,,,,,,,,,,,,,,,,,,,,8,1.2045,,,,,,,,,,,,,,,,,,,,,space,0.5205,0,24,24,90,1,,,,,,,,,,,,,,,,,,,,,,,,,,,,,,,,,,,,,,,,,,,,,,,,,,,,,,,,,,,,
,,,,924726,001,2023-05-02_17h16.24.986,fluency,2022.2.5,Win32,64.55361177,,,,,,,,,,,,,,,,,,,,,,,,,,,,,,,,,,,,,,,,,,,,,,,,,,,,,,0,,,,,,,,,,,,,,,,,,,,,,,,,,,,k,1.1334,"[""8"",""space"",""k""]",0,0,0,0,1,,,,,,,,,,,,,,,,,,,,,,,,,,,,,,,,,,,,,,,,,,,,,,,,,,,,,,,,,,,,,,,,,,,
,,,,924726,001,2023-05-02_17h16.24.986,fluency,2022.2.5,Win32,64.55361177,,,,,,,,,,,,,,,,,,,,,,,10,2,img/B02_10.jpg,GCNB,Press J if the face is NONBINARY and K if the face is GENDER-CONFORMING,Gender-conforming means that the face appears to be a typical example of its gender. Nonbinary means that the face does not conform to any particular gender norms.,KJ,,,,,,,,,,,,,,,,,,,,,,,,,,,,,,,,,,,,,,,5,1.9044,,,,,,,,,,,,,,,,,,,,,space,30.852,0,25,25,21,1,,,,,,,,,,,,,,,,,,,,,,,,,,,,,,,,,,,,,,,,,,,,,,,,,,,,,,,,,,,,
,,,,924726,001,2023-05-02_17h16.24.986,fluency,2022.2.5,Win32,64.55361177,,,,,,,,,,,,,,,,,,,,,,,,,,,,,,,,,,,,,,,,,,,,,,,,,,,,,,0,,,,,,,,,,,,,,,,,,,,,,,,,,,,j,1.4396,"[""5"",""space"",""j""]",0,0,0,0,1,,,,,,,,,,,,,,,,,,,,,,,,,,,,,,,,,,,,,,,,,,,,,,,,,,,,,,,,,,,,,,,,,,,
,,,,924726,001,2023-05-02_17h16.24.986,fluency,2022.2.5,Win32,64.55361177,,,,,,,,,,,,,,,,,,,,,,,0,5,img/B05_00.jpg,GCNB,Press J if the face is NONBINARY and K if the face is GENDER-CONFORMING,Gender-conforming means that the face appears to be a typical example of its gender. Nonbinary means that the face does not conform to any particular gender norms.,KJ,,,,,,,,,,,,,,,,,,,,,,,,,,,,,,,,,,,,,,,7,1.0245,,,,,,,,,,,,,,,,,,,,,space,0.3843,0,26,26,44,1,,,,,,,,,,,,,,,,,,,,,,,,,,,,,,,,,,,,,,,,,,,,,,,,,,,,,,,,,,,,
,,,,924726,001,2023-05-02_17h16.24.986,fluency,2022.2.5,Win32,64.55361177,,,,,,,,,,,,,,,,,,,,,,,,,,,,,,,,,,,,,,,,,,,,,,,,,,,,,,0,,,,,,,,,,,,,,,,,,,,,,,,,,,,k,1.1421,"[""7"",""space"",""k""]",0,0,0,0,1,,,,,,,,,,,,,,,,,,,,,,,,,,,,,,,,,,,,,,,,,,,,,,,,,,,,,,,,,,,,,,,,,,,
,,,,924726,001,2023-05-02_17h16.24.986,fluency,2022.2.5,Win32,64.55361177,,,,,,,,,,,,,,,,,,,,,,,2,6,img/B06_02.jpg,GCNB,Press J if the face is NONBINARY and K if the face is GENDER-CONFORMING,Gender-conforming means that the face appears to be a typical example of its gender. Nonbinary means that the face does not conform to any particular gender norms.,KJ,,,,,,,,,,,,,,,,,,,,,,,,,,,,,,,,,,,,,,,5,0.6263,,,,,,,,,,,,,,,,,,,,,space,0.518,0,27,27,57,1,,,,,,,,,,,,,,,,,,,,,,,,,,,,,,,,,,,,,,,,,,,,,,,,,,,,,,,,,,,,
,,,,924726,001,2023-05-02_17h16.24.986,fluency,2022.2.5,Win32,64.55361177,,,,,,,,,,,,,,,,,,,,,,,,,,,,,,,,,,,,,,,,,,,,,,,,,,,,,,0,,,,,,,,,,,,,,,,,,,,,,,,,,,,k,1.4955,"[""5"",""space"",""k""]",0,0,0,0,1,,,,,,,,,,,,,,,,,,,,,,,,,,,,,,,,,,,,,,,,,,,,,,,,,,,,,,,,,,,,,,,,,,,
,,,,924726,001,2023-05-02_17h16.24.986,fluency,2022.2.5,Win32,64.55361177,,,,,,,,,,,,,,,,,,,,,,,6,5,img/B05_06.jpg,GCNB,Press J if the face is NONBINARY and K if the face is GENDER-CONFORMING,Gender-conforming means that the face appears to be a typical example of its gender. Nonbinary means that the face does not conform to any particular gender norms.,KJ,,,,,,,,,,,,,,,,,,,,,,,,,,,,,,,,,,,,,,,6,1.048,,,,,,,,,,,,,,,,,,,,,space,0.5664,0,28,28,50,1,,,,,,,,,,,,,,,,,,,,,,,,,,,,,,,,,,,,,,,,,,,,,,,,,,,,,,,,,,,,
,,,,924726,001,2023-05-02_17h16.24.986,fluency,2022.2.5,Win32,64.55361177,,,,,,,,,,,,,,,,,,,,,,,,,,,,,,,,,,,,,,,,,,,,,,,,,,,,,,0,,,,,,,,,,,,,,,,,,,,,,,,,,,,j,1.3053,"[""6"",""space"",""j""]",0,0,0,0,1,,,,,,,,,,,,,,,,,,,,,,,,,,,,,,,,,,,,,,,,,,,,,,,,,,,,,,,,,,,,,,,,,,,
,,,,924726,001,2023-05-02_17h16.24.986,fluency,2022.2.5,Win32,64.55361177,,,,,,,,,,,,,,,,,,,,,,,5,2,img/B02_05.jpg,GCNB,Press J if the face is NONBINARY and K if the face is GENDER-CONFORMING,Gender-conforming means that the face appears to be a typical example of its gender. Nonbinary means that the face does not conform to any particular gender norms.,KJ,,,,,,,,,,,,,,,,,,,,,,,,,,,,,,,,,,,,,,,7,2.2076,,,,,,,,,,,,,,,,,,,,,space,0.3183,0,29,29,16,1,,,,,,,,,,,,,,,,,,,,,,,,,,,,,,,,,,,,,,,,,,,,,,,,,,,,,,,,,,,,
,,,,924726,001,2023-05-02_17h16.24.986,fluency,2022.2.5,Win32,64.55361177,,,,,,,,,,,,,,,,,,,,,,,,,,,,,,,,,,,,,,,,,,,,,,,,,,,,,,0,,,,,,,,,,,,,,,,,,,,,,,,,,,,j,1.5951,"[""7"",""space"",""j""]",0,0,0,0,1,,,,,,,,,,,,,,,,,,,,,,,,,,,,,,,,,,,,,,,,,,,,,,,,,,,,,,,,,,,,,,,,,,,
,,,,924726,001,2023-05-02_17h16.24.986,fluency,2022.2.5,Win32,64.55361177,,,,,,,,,,,,,,,,,,,,,,,5,9,img/B09_05.jpg,GCNB,Press J if the face is NONBINARY and K if the face is GENDER-CONFORMING,Gender-conforming means that the face appears to be a typical example of its gender. Nonbinary means that the face does not conform to any particular gender norms.,KJ,,,,,,,,,,,,,,,,,,,,,,,,,,,,,,,,,,,,,,,6,2.0137,,,,,,,,,,,,,,,,,,,,,space,0.3021,0,30,30,93,1,,,,,,,,,,,,,,,,,,,,,,,,,,,,,,,,,,,,,,,,,,,,,,,,,,,,,,,,,,,,
,,,,924726,001,2023-05-02_17h16.24.986,fluency,2022.2.5,Win32,64.55361177,,,,,,,,,,,,,,,,,,,,,,,,,,,,,,,,,,,,,,,,,,,,,,,,,,,,,,0,,,,,,,,,,,,,,,,,,,,,,,,,,,,k,1.5111,"[""6"",""space"",""k""]",0,0,0,0,1,,,,,,,,,,,,,,,,,,,,,,,,,,,,,,,,,,,,,,,,,,,,,,,,,,,,,,,,,,,,,,,,,,,
,,,,924726,001,2023-05-02_17h16.24.986,fluency,2022.2.5,Win32,64.55361177,,,,,,,,,,,,,,,,,,,,,,,8,8,img/B08_08.jpg,GCNB,Press J if the face is NONBINARY and K if the face is GENDER-CONFORMING,Gender-conforming means that the face appears to be a typical example of its gender. Nonbinary means that the face does not conform to any particular gender norms.,KJ,,,,,,,,,,,,,,,,,,,,,,,,,,,,,,,,,,,,,,,7,0.4597,,,,,,,,,,,,,,,,,,,,,space,0.4304,0,31,31,85,1,,,,,,,,,,,,,,,,,,,,,,,,,,,,,,,,,,,,,,,,,,,,,,,,,,,,,,,,,,,,
,,,,924726,001,2023-05-02_17h16.24.986,fluency,2022.2.5,Win32,64.55361177,,,,,,,,,,,,,,,,,,,,,,,,,,,,,,,,,,,,,,,,,,,,,,,,,,,,,,0,,,,,,,,,,,,,,,,,,,,,,,,,,,,k,1.2885,"[""7"",""space"",""k""]",0,0,0,0,1,,,,,,,,,,,,,,,,,,,,,,,,,,,,,,,,,,,,,,,,,,,,,,,,,,,,,,,,,,,,,,,,,,,
,,,,924726,001,2023-05-02_17h16.24.986,fluency,2022.2.5,Win32,64.55361177,,,,,,,,,,,,,,,,,,,,,,,9,9,img/B09_09.jpg,GCNB,Press J if the face is NONBINARY and K if the face is GENDER-CONFORMING,Gender-conforming means that the face appears to be a typical example of its gender. Nonbinary means that the face does not conform to any particular gender norms.,KJ,,,,,,,,,,,,,,,,,,,,,,,,,,,,,,,,,,,,,,,6,2.1277,,,,,,,,,,,,,,,,,,,,,space,0.7846,0,32,32,97,1,,,,,,,,,,,,,,,,,,,,,,,,,,,,,,,,,,,,,,,,,,,,,,,,,,,,,,,,,,,,
,,,,924726,001,2023-05-02_17h16.24.986,fluency,2022.2.5,Win32,64.55361177,,,,,,,,,,,,,,,,,,,,,,,,,,,,,,,,,,,,,,,,,,,,,,,,,,,,,,0,,,,,,,,,,,,,,,,,,,,,,,,,,,,j,1.229,"[""6"",""space"",""j""]",0,0,0,0,1,,,,,,,,,,,,,,,,,,,,,,,,,,,,,,,,,,,,,,,,,,,,,,,,,,,,,,,,,,,,,,,,,,,
,,,,924726,001,2023-05-02_17h16.24.986,fluency,2022.2.5,Win32,64.55361177,,,,,,,,,,,,,,,,,,,,,,,6,10,img/B10_06.jpg,GCNB,Press J if the face is NONBINARY and K if the face is GENDER-CONFORMING,Gender-conforming means that the face appears to be a typical example of its gender. Nonbinary means that the face does not conform to any particular gender norms.,KJ,,,,,,,,,,,,,,,,,,,,,,,,,,,,,,,,,,,,,,,5,2.0582,,,,,,,,,,,,,,,,,,,,,space,0.4685,0,33,33,105,1,,,,,,,,,,,,,,,,,,,,,,,,,,,,,,,,,,,,,,,,,,,,,,,,,,,,,,,,,,,,
,,,,924726,001,2023-05-02_17h16.24.986,fluency,2022.2.5,Win32,64.55361177,,,,,,,,,,,,,,,,,,,,,,,,,,,,,,,,,,,,,,,,,,,,,,,,,,,,,,0,,,,,,,,,,,,,,,,,,,,,,,,,,,,k,1.0947,"[""5"",""space"",""k""]",0,0,0,0,1,,,,,,,,,,,,,,,,,,,,,,,,,,,,,,,,,,,,,,,,,,,,,,,,,,,,,,,,,,,,,,,,,,,
,,,,924726,001,2023-05-02_17h16.24.986,fluency,2022.2.5,Win32,64.55361177,,,,,,,,,,,,,,,,,,,,,,,9,3,img/B03_09.jpg,GCNB,Press J if the face is NONBINARY and K if the face is GENDER-CONFORMING,Gender-conforming means that the face appears to be a typical example of its gender. Nonbinary means that the face does not conform to any particular gender norms.,KJ,,,,,,,,,,,,,,,,,,,,,,,,,,,,,,,,,,,,,,,7,1.348,,,,,,,,,,,,,,,,,,,,,space,0.9869,0,34,34,31,1,,,,,,,,,,,,,,,,,,,,,,,,,,,,,,,,,,,,,,,,,,,,,,,,,,,,,,,,,,,,
,,,,924726,001,2023-05-02_17h16.24.986,fluency,2022.2.5,Win32,64.55361177,,,,,,,,,,,,,,,,,,,,,,,,,,,,,,,,,,,,,,,,,,,,,,,,,,,,,,0,,,,,,,,,,,,,,,,,,,,,,,,,,,,k,0.8971,"[""7"",""space"",""k""]",0,0,0,0,1,,,,,,,,,,,,,,,,,,,,,,,,,,,,,,,,,,,,,,,,,,,,,,,,,,,,,,,,,,,,,,,,,,,
,,,,924726,001,2023-05-02_17h16.24.986,fluency,2022.2.5,Win32,64.55361177,,,,,,,,,,,,,,,,,,,,,,,1,3,img/B03_01.jpg,GCNB,Press J if the face is NONBINARY and K if the face is GENDER-CONFORMING,Gender-conforming means that the face appears to be a typical example of its gender. Nonbinary means that the face does not conform to any particular gender norms.,KJ,,,,,,,,,,,,,,,,,,,,,,,,,,,,,,,,,,,,,,,8,1.7608,,,,,,,,,,,,,,,,,,,,,space,0.8179,0,35,35,23,1,,,,,,,,,,,,,,,,,,,,,,,,,,,,,,,,,,,,,,,,,,,,,,,,,,,,,,,,,,,,
,,,,924726,001,2023-05-02_17h16.24.986,fluency,2022.2.5,Win32,64.55361177,,,,,,,,,,,,,,,,,,,,,,,,,,,,,,,,,,,,,,,,,,,,,,,,,,,,,,0,,,,,,,,,,,,,,,,,,,,,,,,,,,,k,2.4433,"[""8"",""space"",""k""]",0,0,0,0,1,,,,,,,,,,,,,,,,,,,,,,,,,,,,,,,,,,,,,,,,,,,,,,,,,,,,,,,,,,,,,,,,,,,
,,,,924726,001,2023-05-02_17h16.24.986,fluency,2022.2.5,Win32,64.55361177,,,,,,,,,,,,,,,,,,,,,,,2,2,img/B02_02.jpg,GCNB,Press J if the face is NONBINARY and K if the face is GENDER-CONFORMING,Gender-conforming means that the face appears to be a typical example of its gender. Nonbinary means that the face does not conform to any particular gender norms.,KJ,,,,,,,,,,,,,,,,,,,,,,,,,,,,,,,,,,,,,,,6,1.474,,,,,,,,,,,,,,,,,,,,,space,0.3184,0,36,36,13,1,,,,,,,,,,,,,,,,,,,,,,,,,,,,,,,,,,,,,,,,,,,,,,,,,,,,,,,,,,,,
,,,,924726,001,2023-05-02_17h16.24.986,fluency,2022.2.5,Win32,64.55361177,,,,,,,,,,,,,,,,,,,,,,,,,,,,,,,,,,,,,,,,,,,,,,,,,,,,,,0,,,,,,,,,,,,,,,,,,,,,,,,,,,,k,1.9308,"[""6"",""space"",""k""]",0,0,0,0,1,,,,,,,,,,,,,,,,,,,,,,,,,,,,,,,,,,,,,,,,,,,,,,,,,,,,,,,,,,,,,,,,,,,
,,,,924726,001,2023-05-02_17h16.24.986,fluency,2022.2.5,Win32,64.55361177,,,,,,,,,,,,,,,,,,,,,,,8,4,img/B04_08.jpg,GCNB,Press J if the face is NONBINARY and K if the face is GENDER-CONFORMING,Gender-conforming means that the face appears to be a typical example of its gender. Nonbinary means that the face does not conform to any particular gender norms.,KJ,,,,,,,,,,,,,,,,,,,,,,,,,,,,,,,,,,,,,,,7,1.0802,,,,,,,,,,,,,,,,,,,,,space,0.5516,0,37,37,41,1,,,,,,,,,,,,,,,,,,,,,,,,,,,,,,,,,,,,,,,,,,,,,,,,,,,,,,,,,,,,
,,,,924726,001,2023-05-02_17h16.24.986,fluency,2022.2.5,Win32,64.55361177,,,,,,,,,,,,,,,,,,,,,,,,,,,,,,,,,,,,,,,,,,,,,,,,,,,,,,0,,,,,,,,,,,,,,,,,,,,,,,,,,,,k,1.2601,"[""7"",""space"",""k""]",0,0,0,0,1,,,,,,,,,,,,,,,,,,,,,,,,,,,,,,,,,,,,,,,,,,,,,,,,,,,,,,,,,,,,,,,,,,,
,,,,924726,001,2023-05-02_17h16.24.986,fluency,2022.2.5,Win32,64.55361177,,,,,,,,,,,,,,,,,,,,,,,0,1,img/B01_00.jpg,GCNB,Press J if the face is NONBINARY and K if the face is GENDER-CONFORMING,Gender-conforming means that the face appears to be a typical example of its gender. Nonbinary means that the face does not conform to any particular gender norms.,KJ,,,,,,,,,,,,,,,,,,,,,,,,,,,,,,,,,,,,,,,4,2.0373,,,,,,,,,,,,,,,,,,,,,space,0.4537,0,38,38,0,1,,,,,,,,,,,,,,,,,,,,,,,,,,,,,,,,,,,,,,,,,,,,,,,,,,,,,,,,,,,,
,,,,924726,001,2023-05-02_17h16.24.986,fluency,2022.2.5,Win32,64.55361177,,,,,,,,,,,,,,,,,,,,,,,,,,,,,,,,,,,,,,,,,,,,,,,,,,,,,,0,,,,,,,,,,,,,,,,,,,,,,,,,,,,k,0.9888,"[""4"",""space"",""k""]",0,0,0,0,1,,,,,,,,,,,,,,,,,,,,,,,,,,,,,,,,,,,,,,,,,,,,,,,,,,,,,,,,,,,,,,,,,,,
,,,,924726,001,2023-05-02_17h16.24.986,fluency,2022.2.5,Win32,64.55361177,,,,,,,,,,,,,,,,,,,,,,,10,10,img/B10_10.jpg,GCNB,Press J if the face is NONBINARY and K if the face is GENDER-CONFORMING,Gender-conforming means that the face appears to be a typical example of its gender. Nonbinary means that the face does not conform to any particular gender norms.,KJ,,,,,,,,,,,,,,,,,,,,,,,,,,,,,,,,,,,,,,,7,0.3474,,,,,,,,,,,,,,,,,,,,,space,0.4043,0,39,39,109,1,,,,,,,,,,,,,,,,,,,,,,,,,,,,,,,,,,,,,,,,,,,,,,,,,,,,,,,,,,,,
,,,,924726,001,2023-05-02_17h16.24.986,fluency,2022.2.5,Win32,64.55361177,,,,,,,,,,,,,,,,,,,,,,,,,,,,,,,,,,,,,,,,,,,,,,,,,,,,,,0,,,,,,,,,,,,,,,,,,,,,,,,,,,,k,0.8458,"[""7"",""space"",""k""]",0,0,0,0,1,,,,,,,,,,,,,,,,,,,,,,,,,,,,,,,,,,,,,,,,,,,,,,,,,,,,,,,,,,,,,,,,,,,
,,,,924726,001,2023-05-02_17h16.24.986,fluency,2022.2.5,Win32,64.55361177,,,,,,,,,,,,,,,,,,,,,,,9,5,img/B05_09.jpg,GCNB,Press J if the face is NONBINARY and K if the face is GENDER-CONFORMING,Gender-conforming means that the face appears to be a typical example of its gender. Nonbinary means that the face does not conform to any particular gender norms.,KJ,,,,,,,,,,,,,,,,,,,,,,,,,,,,,,,,,,,,,,,7,0.5167,,,,,,,,,,,,,,,,,,,,,space,0.4012,0,40,40,53,1,,,,,,,,,,,,,,,,,,,,,,,,,,,,,,,,,,,,,,,,,,,,,,,,,,,,,,,,,,,,
,,,,924726,001,2023-05-02_17h16.24.986,fluency,2022.2.5,Win32,64.55361177,,,,,,,,,,,,,,,,,,,,,,,,,,,,,,,,,,,,,,,,,,,,,,,,,,,,,,0,,,,,,,,,,,,,,,,,,,,,,,,,,,,j,1.5452,"[""7"",""space"",""j""]",0,0,0,0,1,,,,,,,,,,,,,,,,,,,,,,,,,,,,,,,,,,,,,,,,,,,,,,,,,,,,,,,,,,,,,,,,,,,
,,,,924726,001,2023-05-02_17h16.24.986,fluency,2022.2.5,Win32,64.55361177,,,,,,,,,,,,,,,,,,,,,,,5,5,img/B05_05.jpg,GCNB,Press J if the face is NONBINARY and K if the face is GENDER-CONFORMING,Gender-conforming means that the face appears to be a typical example of its gender. Nonbinary means that the face does not conform to any particular gender norms.,KJ,,,,,,,,,,,,,,,,,,,,,,,,,,,,,,,,,,,,,,,7,1.7722,,,,,,,,,,,,,,,,,,,,,space,0.3684,0,41,41,49,1,,,,,,,,,,,,,,,,,,,,,,,,,,,,,,,,,,,,,,,,,,,,,,,,,,,,,,,,,,,,
,,,,924726,001,2023-05-02_17h16.24.986,fluency,2022.2.5,Win32,64.55361177,,,,,,,,,,,,,,,,,,,,,,,,,,,,,,,,,,,,,,,,,,,,,,,,,,,,,,0,,,,,,,,,,,,,,,,,,,,,,,,,,,,k,1.8979,"[""7"",""space"",""k""]",0,0,0,0,1,,,,,,,,,,,,,,,,,,,,,,,,,,,,,,,,,,,,,,,,,,,,,,,,,,,,,,,,,,,,,,,,,,,
,,,,924726,001,2023-05-02_17h16.24.986,fluency,2022.2.5,Win32,64.55361177,,,,,,,,,,,,,,,,,,,,,,,7,1,img/B01_07.jpg,GCNB,Press J if the face is NONBINARY and K if the face is GENDER-CONFORMING,Gender-conforming means that the face appears to be a typical example of its gender. Nonbinary means that the face does not conform to any particular gender norms.,KJ,,,,,,,,,,,,,,,,,,,,,,,,,,,,,,,,,,,,,,,6,1.0133,,,,,,,,,,,,,,,,,,,,,space,0.4018,0,42,42,7,1,,,,,,,,,,,,,,,,,,,,,,,,,,,,,,,,,,,,,,,,,,,,,,,,,,,,,,,,,,,,
,,,,924726,001,2023-05-02_17h16.24.986,fluency,2022.2.5,Win32,64.55361177,,,,,,,,,,,,,,,,,,,,,,,,,,,,,,,,,,,,,,,,,,,,,,,,,,,,,,0,,,,,,,,,,,,,,,,,,,,,,,,,,,,j,2.0155,"[""6"",""space"",""j""]",0,0,0,0,1,,,,,,,,,,,,,,,,,,,,,,,,,,,,,,,,,,,,,,,,,,,,,,,,,,,,,,,,,,,,,,,,,,,
,,,,924726,001,2023-05-02_17h16.24.986,fluency,2022.2.5,Win32,64.55361177,,,,,,,,,,,,,,,,,,,,,,,5,6,img/B06_05.jpg,GCNB,Press J if the face is NONBINARY and K if the face is GENDER-CONFORMING,Gender-conforming means that the face appears to be a typical example of its gender. Nonbinary means that the face does not conform to any particular gender norms.,KJ,,,,,,,,,,,,,,,,,,,,,,,,,,,,,,,,,,,,,,,6,1.647,,,,,,,,,,,,,,,,,,,,,space,0.335,0,43,43,60,1,,,,,,,,,,,,,,,,,,,,,,,,,,,,,,,,,,,,,,,,,,,,,,,,,,,,,,,,,,,,
,,,,924726,001,2023-05-02_17h16.24.986,fluency,2022.2.5,Win32,64.55361177,,,,,,,,,,,,,,,,,,,,,,,,,,,,,,,,,,,,,,,,,,,,,,,,,,,,,,0,,,,,,,,,,,,,,,,,,,,,,,,,,,,k,1.4431,"[""6"",""space"",""k""]",0,0,0,0,1,,,,,,,,,,,,,,,,,,,,,,,,,,,,,,,,,,,,,,,,,,,,,,,,,,,,,,,,,,,,,,,,,,,
,,,,924726,001,2023-05-02_17h16.24.986,fluency,2022.2.5,Win32,64.55361177,,,,,,,,,,,,,,,,,,,,,,,10,5,img/B05_10.jpg,GCNB,Press J if the face is NONBINARY and K if the face is GENDER-CONFORMING,Gender-conforming means that the face appears to be a typical example of its gender. Nonbinary means that the face does not conform to any particular gender norms.,KJ,,,,,,,,,,,,,,,,,,,,,,,,,,,,,,,,,,,,,,,6,1.6582,,,,,,,,,,,,,,,,,,,,,space,0.5343,0,44,44,54,1,,,,,,,,,,,,,,,,,,,,,,,,,,,,,,,,,,,,,,,,,,,,,,,,,,,,,,,,,,,,
,,,,924726,001,2023-05-02_17h16.24.986,fluency,2022.2.5,Win32,64.55361177,,,,,,,,,,,,,,,,,,,,,,,,,,,,,,,,,,,,,,,,,,,,,,,,,,,,,,0,,,,,,,,,,,,,,,,,,,,,,,,,,,,j,1.0483,"[""6"",""space"",""j""]",0,0,0,0,1,,,,,,,,,,,,,,,,,,,,,,,,,,,,,,,,,,,,,,,,,,,,,,,,,,,,,,,,,,,,,,,,,,,
,,,,924726,001,2023-05-02_17h16.24.986,fluency,2022.2.5,Win32,64.55361177,,,,,,,,,,,,,,,,,,,,,,,7,10,img/B10_07.jpg,GCNB,Press J if the face is NONBINARY and K if the face is GENDER-CONFORMING,Gender-conforming means that the face appears to be a typical example of its gender. Nonbinary means that the face does not conform to any particular gender norms.,KJ,,,,,,,,,,,,,,,,,,,,,,,,,,,,,,,,,,,,,,,7,1.0786,,,,,,,,,,,,,,,,,,,,,space,0.368,0,45,45,106,1,,,,,,,,,,,,,,,,,,,,,,,,,,,,,,,,,,,,,,,,,,,,,,,,,,,,,,,,,,,,
,,,,924726,001,2023-05-02_17h16.24.986,fluency,2022.2.5,Win32,64.55361177,,,,,,,,,,,,,,,,,,,,,,,,,,,,,,,,,,,,,,,,,,,,,,,,,,,,,,0,,,,,,,,,,,,,,,,,,,,,,,,,,,,j,0.992,"[""7"",""space"",""j""]",0,0,0,0,1,,,,,,,,,,,,,,,,,,,,,,,,,,,,,,,,,,,,,,,,,,,,,,,,,,,,,,,,,,,,,,,,,,,
,,,,924726,001,2023-05-02_17h16.24.986,fluency,2022.2.5,Win32,64.55361177,,,,,,,,,,,,,,,,,,,,,,,6,2,img/B02_06.jpg,GCNB,Press J if the face is NONBINARY and K if the face is GENDER-CONFORMING,Gender-conforming means that the face appears to be a typical example of its gender. Nonbinary means that the face does not conform to any particular gender norms.,KJ,,,,,,,,,,,,,,,,,,,,,,,,,,,,,,,,,,,,,,,7,0.7048,,,,,,,,,,,,,,,,,,,,,space,0.4005,0,46,46,17,1,,,,,,,,,,,,,,,,,,,,,,,,,,,,,,,,,,,,,,,,,,,,,,,,,,,,,,,,,,,,
,,,,924726,001,2023-05-02_17h16.24.986,fluency,2022.2.5,Win32,64.55361177,,,,,,,,,,,,,,,,,,,,,,,,,,,,,,,,,,,,,,,,,,,,,,,,,,,,,,0,,,,,,,,,,,,,,,,,,,,,,,,,,,,k,1.3562,"[""7"",""space"",""k""]",0,0,0,0,1,,,,,,,,,,,,,,,,,,,,,,,,,,,,,,,,,,,,,,,,,,,,,,,,,,,,,,,,,,,,,,,,,,,
,,,,924726,001,2023-05-02_17h16.24.986,fluency,2022.2.5,Win32,64.55361177,,,,,,,,,,,,,,,,,,,,,,,7,7,img/B07_07.jpg,GCNB,Press J if the face is NONBINARY and K if the face is GENDER-CONFORMING,Gender-conforming means that the face appears to be a typical example of its gender. Nonbinary means that the face does not conform to any particular gender norms.,KJ,,,,,,,,,,,,,,,,,,,,,,,,,,,,,,,,,,,,,,,6,0.8698,,,,,,,,,,,,,,,,,,,,,space,0.351,0,47,47,73,1,,,,,,,,,,,,,,,,,,,,,,,,,,,,,,,,,,,,,,,,,,,,,,,,,,,,,,,,,,,,
,,,,924726,001,2023-05-02_17h16.24.986,fluency,2022.2.5,Win32,64.55361177,,,,,,,,,,,,,,,,,,,,,,,,,,,,,,,,,,,,,,,,,,,,,,,,,,,,,,0,,,,,,,,,,,,,,,,,,,,,,,,,,,,k,1.2876,"[""6"",""space"",""k""]",0,0,0,0,1,,,,,,,,,,,,,,,,,,,,,,,,,,,,,,,,,,,,,,,,,,,,,,,,,,,,,,,,,,,,,,,,,,,
,,,,924726,001,2023-05-02_17h16.24.986,fluency,2022.2.5,Win32,64.55361177,,,,,,,,,,,,,,,,,,,,,,,7,4,img/B04_07.jpg,GCNB,Press J if the face is NONBINARY and K if the face is GENDER-CONFORMING,Gender-conforming means that the face appears to be a typical example of its gender. Nonbinary means that the face does not conform to any particular gender norms.,KJ,,,,,,,,,,,,,,,,,,,,,,,,,,,,,,,,,,,,,,,7,1.6084,,,,,,,,,,,,,,,,,,,,,space,0.5509,0,48,48,40,1,,,,,,,,,,,,,,,,,,,,,,,,,,,,,,,,,,,,,,,,,,,,,,,,,,,,,,,,,,,,
,,,,924726,001,2023-05-02_17h16.24.986,fluency,2022.2.5,Win32,64.55361177,,,,,,,,,,,,,,,,,,,,,,,,,,,,,,,,,,,,,,,,,,,,,,,,,,,,,,0,,,,,,,,,,,,,,,,,,,,,,,,,,,,j,2.0429,"[""7"",""space"",""j""]",0,0,0,0,1,,,,,,,,,,,,,,,,,,,,,,,,,,,,,,,,,,,,,,,,,,,,,,,,,,,,,,,,,,,,,,,,,,,
,,,,924726,001,2023-05-02_17h16.24.986,fluency,2022.2.5,Win32,64.55361177,,,,,,,,,,,,,,,,,,,,,,,9,2,img/B02_09.jpg,GCNB,Press J if the face is NONBINARY and K if the face is GENDER-CONFORMING,Gender-conforming means that the face appears to be a typical example of its gender. Nonbinary means that the face does not conform to any particular gender norms.,KJ,,,,,,,,,,,,,,,,,,,,,,,,,,,,,,,,,,,,,,,7,6.9752,,,,,,,,,,,,,,,,,,,,,space,0.5674,0,49,49,20,1,,,,,,,,,,,,,,,,,,,,,,,,,,,,,,,,,,,,,,,,,,,,,,,,,,,,,,,,,,,,
,,,,924726,001,2023-05-02_17h16.24.986,fluency,2022.2.5,Win32,64.55361177,,,,,,,,,,,,,,,,,,,,,,,,,,,,,,,,,,,,,,,,,,,,,,,,,,,,,,0,,,,,,,,,,,,,,,,,,,,,,,,,,,,k,0.963,"[""7"",""space"",""k""]",0,0,0,0,1,,,,,,,,,,,,,,,,,,,,,,,,,,,,,,,,,,,,,,,,,,,,,,,,,,,,,,,,,,,,,,,,,,,
,,,,924726,001,2023-05-02_17h16.24.986,fluency,2022.2.5,Win32,64.55361177,,,,,,,,,,,,,,,,,,,,,,,2,1,img/B01_02.jpg,GCNB,Press J if the face is NONBINARY and K if the face is GENDER-CONFORMING,Gender-conforming means that the face appears to be a typical example of its gender. Nonbinary means that the face does not conform to any particular gender norms.,KJ,,,,,,,,,,,,,,,,,,,,,,,,,,,,,,,,,,,,,,,4,2.0659,,,,,,,,,,,,,,,,,,,,,space,0.7846,0,50,50,2,1,,,,,,,,,,,,,,,,,,,,,,,,,,,,,,,,,,,,,,,,,,,,,,,,,,,,,,,,,,,,
,,,,924726,001,2023-05-02_17h16.24.986,fluency,2022.2.5,Win32,64.55361177,,,,,,,,,,,,,,,,,,,,,,,,,,,,,,,,,,,,,,,,,,,,,,,,,,,,,,0,,,,,,,,,,,,,,,,,,,,,,,,,,,,k,0.9561,"[""4"",""space"",""k""]",0,0,0,0,1,,,,,,,,,,,,,,,,,,,,,,,,,,,,,,,,,,,,,,,,,,,,,,,,,,,,,,,,,,,,,,,,,,,
,,,,924726,001,2023-05-02_17h16.24.986,fluency,2022.2.5,Win32,64.55361177,,,,,,,,,,,,,,,,,,,,,,,10,8,img/B08_10.jpg,GCNB,Press J if the face is NONBINARY and K if the face is GENDER-CONFORMING,Gender-conforming means that the face appears to be a typical example of its gender. Nonbinary means that the face does not conform to any particular gender norms.,KJ,,,,,,,,,,,,,,,,,,,,,,,,,,,,,,,,,,,,,,,6,0.5525,,,,,,,,,,,,,,,,,,,,,space,0.5106,0,51,51,87,1,,,,,,,,,,,,,,,,,,,,,,,,,,,,,,,,,,,,,,,,,,,,,,,,,,,,,,,,,,,,
,,,,924726,001,2023-05-02_17h16.24.986,fluency,2022.2.5,Win32,64.55361177,,,,,,,,,,,,,,,,,,,,,,,,,,,,,,,,,,,,,,,,,,,,,,,,,,,,,,0,,,,,,,,,,,,,,,,,,,,,,,,,,,,j,1.3473,"[""6"",""space"",""j""]",0,0,0,0,1,,,,,,,,,,,,,,,,,,,,,,,,,,,,,,,,,,,,,,,,,,,,,,,,,,,,,,,,,,,,,,,,,,,
,,,,924726,001,2023-05-02_17h16.24.986,fluency,2022.2.5,Win32,64.55361177,,,,,,,,,,,,,,,,,,,,,,,5,10,img/B10_05.jpg,GCNB,Press J if the face is NONBINARY and K if the face is GENDER-CONFORMING,Gender-conforming means that the face appears to be a typical example of its gender. Nonbinary means that the face does not conform to any particular gender norms.,KJ,,,,,,,,,,,,,,,,,,,,,,,,,,,,,,,,,,,,,,,6,1.0511,,,,,,,,,,,,,,,,,,,,,space,0.4523,0,52,52,104,1,,,,,,,,,,,,,,,,,,,,,,,,,,,,,,,,,,,,,,,,,,,,,,,,,,,,,,,,,,,,
,,,,924726,001,2023-05-02_17h16.24.986,fluency,2022.2.5,Win32,64.55361177,,,,,,,,,,,,,,,,,,,,,,,,,,,,,,,,,,,,,,,,,,,,,,,,,,,,,,0,,,,,,,,,,,,,,,,,,,,,,,,,,,,k,1.4238,"[""6"",""space"",""k""]",0,0,0,0,1,,,,,,,,,,,,,,,,,,,,,,,,,,,,,,,,,,,,,,,,,,,,,,,,,,,,,,,,,,,,,,,,,,,
,,,,924726,001,2023-05-02_17h16.24.986,fluency,2022.2.5,Win32,64.55361177,,,,,,,,,,,,,,,,,,,,,,,0,9,img/B09_00.jpg,GCNB,Press J if the face is NONBINARY and K if the face is GENDER-CONFORMING,Gender-conforming means that the face appears to be a typical example of its gender. Nonbinary means that the face does not conform to any particular gender norms.,KJ,,,,,,,,,,,,,,,,,,,,,,,,,,,,,,,,,,,,,,,5,1.3601,,,,,,,,,,,,,,,,,,,,,space,0.3679,0,53,53,88,1,,,,,,,,,,,,,,,,,,,,,,,,,,,,,,,,,,,,,,,,,,,,,,,,,,,,,,,,,,,,
,,,,924726,001,2023-05-02_17h16.24.986,fluency,2022.2.5,Win32,64.55361177,,,,,,,,,,,,,,,,,,,,,,,,,,,,,,,,,,,,,,,,,,,,,,,,,,,,,,0,,,,,,,,,,,,,,,,,,,,,,,,,,,,j,1.8585,"[""5"",""space"",""j""]",0,0,0,0,1,,,,,,,,,,,,,,,,,,,,,,,,,,,,,,,,,,,,,,,,,,,,,,,,,,,,,,,,,,,,,,,,,,,
,,,,924726,001,2023-05-02_17h16.24.986,fluency,2022.2.5,Win32,64.55361177,,,,,,,,,,,,,,,,,,,,,,,6,3,img/B03_06.jpg,GCNB,Press J if the face is NONBINARY and K if the face is GENDER-CONFORMING,Gender-conforming means that the face appears to be a typical example of its gender. Nonbinary means that the face does not conform to any particular gender norms.,KJ,,,,,,,,,,,,,,,,,,,,,,,,,,,,,,,,,,,,,,,7,1.064,,,,,,,,,,,,,,,,,,,,,space,0.4523,0,54,54,28,1,,,,,,,,,,,,,,,,,,,,,,,,,,,,,,,,,,,,,,,,,,,,,,,,,,,,,,,,,,,,
,,,,924726,001,2023-05-02_17h16.24.986,fluency,2022.2.5,Win32,64.55361177,,,,,,,,,,,,,,,,,,,,,,,,,,,,,,,,,,,,,,,,,,,,,,,,,,,,,,0,,,,,,,,,,,,,,,,,,,,,,,,,,,,k,2.1382,"[""7"",""space"",""k""]",0,0,0,0,1,,,,,,,,,,,,,,,,,,,,,,,,,,,,,,,,,,,,,,,,,,,,,,,,,,,,,,,,,,,,,,,,,,,
,,,,924726,001,2023-05-02_17h16.24.986,fluency,2022.2.5,Win32,64.55361177,,,,,,,,,,,,,,,,,,,,,,,3,10,img/B10_03.jpg,GCNB,Press J if the face is NONBINARY and K if the face is GENDER-CONFORMING,Gender-conforming means that the face appears to be a typical example of its gender. Nonbinary means that the face does not conform to any particular gender norms.,KJ,,,,,,,,,,,,,,,,,,,,,,,,,,,,,,,,,,,,,,,7,1.3352,,,,,,,,,,,,,,,,,,,,,space,0.4178,0,55,55,102,1,,,,,,,,,,,,,,,,,,,,,,,,,,,,,,,,,,,,,,,,,,,,,,,,,,,,,,,,,,,,
,,,,924726,001,2023-05-02_17h16.24.986,fluency,2022.2.5,Win32,64.55361177,,,,,,,,,,,,,,,,,,,,,,,,,,,,,,,,,,,,,,,,,,,,,,,,,,,,,,0,,,,,,,,,,,,,,,,,,,,,,,,,,,,k,1.9623,"[""7"",""space"",""k""]",0,0,0,0,1,,,,,,,,,,,,,,,,,,,,,,,,,,,,,,,,,,,,,,,,,,,,,,,,,,,,,,,,,,,,,,,,,,,
,,,,924726,001,2023-05-02_17h16.24.986,fluency,2022.2.5,Win32,64.55361177,,,,,,,,,,,,,,,,,,,,,,,3,1,img/B01_03.jpg,GCNB,Press J if the face is NONBINARY and K if the face is GENDER-CONFORMING,Gender-conforming means that the face appears to be a typical example of its gender. Nonbinary means that the face does not conform to any particular gender norms.,KJ,,,,,,,,,,,,,,,,,,,,,,,,,,,,,,,,,,,,,,,6,1.6413,,,,,,,,,,,,,,,,,,,,,space,0.452,0,56,56,3,1,,,,,,,,,,,,,,,,,,,,,,,,,,,,,,,,,,,,,,,,,,,,,,,,,,,,,,,,,,,,
,,,,924726,001,2023-05-02_17h16.24.986,fluency,2022.2.5,Win32,64.55361177,,,,,,,,,,,,,,,,,,,,,,,,,,,,,,,,,,,,,,,,,,,,,,,,,,,,,,0,,,,,,,,,,,,,,,,,,,,,,,,,,,,k,2.0884,"[""6"",""space"",""k""]",0,0,0,0,1,,,,,,,,,,,,,,,,,,,,,,,,,,,,,,,,,,,,,,,,,,,,,,,,,,,,,,,,,,,,,,,,,,,
,,,,924726,001,2023-05-02_17h16.24.986,fluency,2022.2.5,Win32,64.55361177,,,,,,,,,,,,,,,,,,,,,,,4,10,img/B10_04.jpg,GCNB,Press J if the face is NONBINARY and K if the face is GENDER-CONFORMING,Gender-conforming means that the face appears to be a typical example of its gender. Nonbinary means that the face does not conform to any particular gender norms.,KJ,,,,,,,,,,,,,,,,,,,,,,,,,,,,,,,,,,,,,,,7,0.7526,,,,,,,,,,,,,,,,,,,,,space,0.4178,0,57,57,103,1,,,,,,,,,,,,,,,,,,,,,,,,,,,,,,,,,,,,,,,,,,,,,,,,,,,,,,,,,,,,
,,,,924726,001,2023-05-02_17h16.24.986,fluency,2022.2.5,Win32,64.55361177,,,,,,,,,,,,,,,,,,,,,,,,,,,,,,,,,,,,,,,,,,,,,,,,,,,,,,0,,,,,,,,,,,,,,,,,,,,,,,,,,,,k,1.8665,"[""7"",""space"",""k""]",0,0,0,0,1,,,,,,,,,,,,,,,,,,,,,,,,,,,,,,,,,,,,,,,,,,,,,,,,,,,,,,,,,,,,,,,,,,,
,,,,924726,001,2023-05-02_17h16.24.986,fluency,2022.2.5,Win32,64.55361177,,,,,,,,,,,,,,,,,,,,,,,8,1,img/B01_08.jpg,GCNB,Press J if the face is NONBINARY and K if the face is GENDER-CONFORMING,Gender-conforming means that the face appears to be a typical example of its gender. Nonbinary means that the face does not conform to any particular gender norms.,KJ,,,,,,,,,,,,,,,,,,,,,,,,,,,,,,,,,,,,,,,7,0.8581,,,,,,,,,,,,,,,,,,,,,space,0.454,0,58,58,8,1,,,,,,,,,,,,,,,,,,,,,,,,,,,,,,,,,,,,,,,,,,,,,,,,,,,,,,,,,,,,
,,,,924726,001,2023-05-02_17h16.24.986,fluency,2022.2.5,Win32,64.55361177,,,,,,,,,,,,,,,,,,,,,,,,,,,,,,,,,,,,,,,,,,,,,,,,,,,,,,0,,,,,,,,,,,,,,,,,,,,,,,,,,,,k,1.7716,"[""7"",""space"",""k""]",0,0,0,0,1,,,,,,,,,,,,,,,,,,,,,,,,,,,,,,,,,,,,,,,,,,,,,,,,,,,,,,,,,,,,,,,,,,,
,,,,924726,001,2023-05-02_17h16.24.986,fluency,2022.2.5,Win32,64.55361177,,,,,,,,,,,,,,,,,,,,,,,7,6,img/B06_07.jpg,GCNB,Press J if the face is NONBINARY and K if the face is GENDER-CONFORMING,Gender-conforming means that the face appears to be a typical example of its gender. Nonbinary means that the face does not conform to any particular gender norms.,KJ,,,,,,,,,,,,,,,,,,,,,,,,,,,,,,,,,,,,,,,7,0.7047,,,,,,,,,,,,,,,,,,,,,space,0.6347,0,59,59,62,1,,,,,,,,,,,,,,,,,,,,,,,,,,,,,,,,,,,,,,,,,,,,,,,,,,,,,,,,,,,,
,,,,924726,001,2023-05-02_17h16.24.986,fluency,2022.2.5,Win32,64.55361177,,,,,,,,,,,,,,,,,,,,,,,,,,,,,,,,,,,,,,,,,,,,,,,,,,,,,,0,,,,,,,,,,,,,,,,,,,,,,,,,,,,k,1.7728,"[""7"",""space"",""k""]",0,0,0,0,1,,,,,,,,,,,,,,,,,,,,,,,,,,,,,,,,,,,,,,,,,,,,,,,,,,,,,,,,,,,,,,,,,,,
,,,,924726,001,2023-05-02_17h16.24.986,fluency,2022.2.5,Win32,64.55361177,,,,,,,,,,,,,,,,,,,,,,,8,10,img/B10_08.jpg,GCNB,Press J if the face is NONBINARY and K if the face is GENDER-CONFORMING,Gender-conforming means that the face appears to be a typical example of its gender. Nonbinary means that the face does not conform to any particular gender norms.,KJ,,,,,,,,,,,,,,,,,,,,,,,,,,,,,,,,,,,,,,,6,0.5706,,,,,,,,,,,,,,,,,,,,,space,0.3343,0,60,60,107,1,,,,,,,,,,,,,,,,,,,,,,,,,,,,,,,,,,,,,,,,,,,,,,,,,,,,,,,,,,,,
,,,,924726,001,2023-05-02_17h16.24.986,fluency,2022.2.5,Win32,64.55361177,,,,,,,,,,,,,,,,,,,,,,,,,,,,,,,,,,,,,,,,,,,,,,,,,,,,,,0,,,,,,,,,,,,,,,,,,,,,,,,,,,,k,1.1231,"[""6"",""space"",""k""]",0,0,0,0,1,,,,,,,,,,,,,,,,,,,,,,,,,,,,,,,,,,,,,,,,,,,,,,,,,,,,,,,,,,,,,,,,,,,
,,,,924726,001,2023-05-02_17h16.24.986,fluency,2022.2.5,Win32,64.55361177,,,,,,,,,,,,,,,,,,,,,,,8,6,img/B06_08.jpg,GCNB,Press J if the face is NONBINARY and K if the face is GENDER-CONFORMING,Gender-conforming means that the face appears to be a typical example of its gender. Nonbinary means that the face does not conform to any particular gender norms.,KJ,,,,,,,,,,,,,,,,,,,,,,,,,,,,,,,,,,,,,,,7,0.3416,,,,,,,,,,,,,,,,,,,,,space,0.2677,0,61,61,63,1,,,,,,,,,,,,,,,,,,,,,,,,,,,,,,,,,,,,,,,,,,,,,,,,,,,,,,,,,,,,
,,,,924726,001,2023-05-02_17h16.24.986,fluency,2022.2.5,Win32,64.55361177,,,,,,,,,,,,,,,,,,,,,,,,,,,,,,,,,,,,,,,,,,,,,,,,,,,,,,0,,,,,,,,,,,,,,,,,,,,,,,,,,,,k,1.1285,"[""7"",""space"",""k""]",0,0,0,0,1,,,,,,,,,,,,,,,,,,,,,,,,,,,,,,,,,,,,,,,,,,,,,,,,,,,,,,,,,,,,,,,,,,,
,,,,924726,001,2023-05-02_17h16.24.986,fluency,2022.2.5,Win32,64.55361177,,,,,,,,,,,,,,,,,,,,,,,9,4,img/B04_09.jpg,GCNB,Press J if the face is NONBINARY and K if the face is GENDER-CONFORMING,Gender-conforming means that the face appears to be a typical example of its gender. Nonbinary means that the face does not conform to any particular gender norms.,KJ,,,,,,,,,,,,,,,,,,,,,,,,,,,,,,,,,,,,,,,7,0.5094,,,,,,,,,,,,,,,,,,,,,space,0.2823,0,62,62,42,1,,,,,,,,,,,,,,,,,,,,,,,,,,,,,,,,,,,,,,,,,,,,,,,,,,,,,,,,,,,,
,,,,924726,001,2023-05-02_17h16.24.986,fluency,2022.2.5,Win32,64.55361177,,,,,,,,,,,,,,,,,,,,,,,,,,,,,,,,,,,,,,,,,,,,,,,,,,,,,,0,,,,,,,,,,,,,,,,,,,,,,,,,,,,j,1.1668,"[""7"",""space"",""j""]",0,0,0,0,1,,,,,,,,,,,,,,,,,,,,,,,,,,,,,,,,,,,,,,,,,,,,,,,,,,,,,,,,,,,,,,,,,,,
,,,,924726,001,2023-05-02_17h16.24.986,fluency,2022.2.5,Win32,64.55361177,,,,,,,,,,,,,,,,,,,,,,,4,9,img/B09_04.jpg,GCNB,Press J if the face is NONBINARY and K if the face is GENDER-CONFORMING,Gender-conforming means that the face appears to be a typical example of its gender. Nonbinary means that the face does not conform to any particular gender norms.,KJ,,,,,,,,,,,,,,,,,,,,,,,,,,,,,,,,,,,,,,,7,1.6108,,,,,,,,,,,,,,,,,,,,,space,0.4176,0,63,63,92,1,,,,,,,,,,,,,,,,,,,,,,,,,,,,,,,,,,,,,,,,,,,,,,,,,,,,,,,,,,,,
,,,,924726,001,2023-05-02_17h16.24.986,fluency,2022.2.5,Win32,64.55361177,,,,,,,,,,,,,,,,,,,,,,,,,,,,,,,,,,,,,,,,,,,,,,,,,,,,,,0,,,,,,,,,,,,,,,,,,,,,,,,,,,,k,1.9555,"[""7"",""space"",""k""]",0,0,0,0,1,,,,,,,,,,,,,,,,,,,,,,,,,,,,,,,,,,,,,,,,,,,,,,,,,,,,,,,,,,,,,,,,,,,
,,,,924726,001,2023-05-02_17h16.24.986,fluency,2022.2.5,Win32,64.55361177,,,,,,,,,,,,,,,,,,,,,,,4,1,img/B01_04.jpg,GCNB,Press J if the face is NONBINARY and K if the face is GENDER-CONFORMING,Gender-conforming means that the face appears to be a typical example of its gender. Nonbinary means that the face does not conform to any particular gender norms.,KJ,,,,,,,,,,,,,,,,,,,,,,,,,,,,,,,,,,,,,,,6,1.9778,,,,,,,,,,,,,,,,,,,,,space,0.3844,0,64,64,4,1,,,,,,,,,,,,,,,,,,,,,,,,,,,,,,,,,,,,,,,,,,,,,,,,,,,,,,,,,,,,
,,,,924726,001,2023-05-02_17h16.24.986,fluency,2022.2.5,Win32,64.55361177,,,,,,,,,,,,,,,,,,,,,,,,,,,,,,,,,,,,,,,,,,,,,,,,,,,,,,0,,,,,,,,,,,,,,,,,,,,,,,,,,,,k,1.5057,"[""6"",""space"",""k""]",0,0,0,0,1,,,,,,,,,,,,,,,,,,,,,,,,,,,,,,,,,,,,,,,,,,,,,,,,,,,,,,,,,,,,,,,,,,,
,,,,924726,001,2023-05-02_17h16.24.986,fluency,2022.2.5,Win32,64.55361177,,,,,,,,,,,,,,,,,,,,,,,10,9,img/B09_10.jpg,GCNB,Press J if the face is NONBINARY and K if the face is GENDER-CONFORMING,Gender-conforming means that the face appears to be a typical example of its gender. Nonbinary means that the face does not conform to any particular gender norms.,KJ,,,,,,,,,,,,,,,,,,,,,,,,,,,,,,,,,,,,,,,5,2.0339,,,,,,,,,,,,,,,,,,,,,space,0.3524,0,65,65,98,1,,,,,,,,,,,,,,,,,,,,,,,,,,,,,,,,,,,,,,,,,,,,,,,,,,,,,,,,,,,,
,,,,924726,001,2023-05-02_17h16.24.986,fluency,2022.2.5,Win32,64.55361177,,,,,,,,,,,,,,,,,,,,,,,,,,,,,,,,,,,,,,,,,,,,,,,,,,,,,,0,,,,,,,,,,,,,,,,,,,,,,,,,,,,k,1.1795,"[""5"",""space"",""k""]",0,0,0,0,1,,,,,,,,,,,,,,,,,,,,,,,,,,,,,,,,,,,,,,,,,,,,,,,,,,,,,,,,,,,,,,,,,,,
,,,,924726,001,2023-05-02_17h16.24.986,fluency,2022.2.5,Win32,64.55361177,,,,,,,,,,,,,,,,,,,,,,,0,4,img/B04_00.jpg,GCNB,Press J if the face is NONBINARY and K if the face is GENDER-CONFORMING,Gender-conforming means that the face appears to be a typical example of its gender. Nonbinary means that the face does not conform to any particular gender norms.,KJ,,,,,,,,,,,,,,,,,,,,,,,,,,,,,,,,,,,,,,,4,0.5573,,,,,,,,,,,,,,,,,,,,,space,0.4844,0,66,66,33,1,,,,,,,,,,,,,,,,,,,,,,,,,,,,,,,,,,,,,,,,,,,,,,,,,,,,,,,,,,,,
,,,,924726,001,2023-05-02_17h16.24.986,fluency,2022.2.5,Win32,64.55361177,,,,,,,,,,,,,,,,,,,,,,,,,,,,,,,,,,,,,,,,,,,,,,,,,,,,,,0,,,,,,,,,,,,,,,,,,,,,,,,,,,,j,1.3223,"[""4"",""space"",""j""]",0,0,0,0,1,,,,,,,,,,,,,,,,,,,,,,,,,,,,,,,,,,,,,,,,,,,,,,,,,,,,,,,,,,,,,,,,,,,
,,,,924726,001,2023-05-02_17h16.24.986,fluency,2022.2.5,Win32,64.55361177,,,,,,,,,,,,,,,,,,,,,,,5,3,img/B03_05.jpg,GCNB,Press J if the face is NONBINARY and K if the face is GENDER-CONFORMING,Gender-conforming means that the face appears to be a typical example of its gender. Nonbinary means that the face does not conform to any particular gender norms.,KJ,,,,,,,,,,,,,,,,,,,,,,,,,,,,,,,,,,,,,,,8,1.2917,,,,,,,,,,,,,,,,,,,,,space,0.4178,0,67,67,27,1,,,,,,,,,,,,,,,,,,,,,,,,,,,,,,,,,,,,,,,,,,,,,,,,,,,,,,,,,,,,
,,,,924726,001,2023-05-02_17h16.24.986,fluency,2022.2.5,Win32,64.55361177,,,,,,,,,,,,,,,,,,,,,,,,,,,,,,,,,,,,,,,,,,,,,,,,,,,,,,0,,,,,,,,,,,,,,,,,,,,,,,,,,,,j,2.588,"[""8"",""space"",""j""]",0,0,0,0,1,,,,,,,,,,,,,,,,,,,,,,,,,,,,,,,,,,,,,,,,,,,,,,,,,,,,,,,,,,,,,,,,,,,
,,,,924726,001,2023-05-02_17h16.24.986,fluency,2022.2.5,Win32,64.55361177,,,,,,,,,,,,,,,,,,,,,,,7,3,img/B03_07.jpg,GCNB,Press J if the face is NONBINARY and K if the face is GENDER-CONFORMING,Gender-conforming means that the face appears to be a typical example of its gender. Nonbinary means that the face does not conform to any particular gender norms.,KJ,,,,,,,,,,,,,,,,,,,,,,,,,,,,,,,,,,,,,,,7,1.7707,,,,,,,,,,,,,,,,,,,,,space,0.4702,0,68,68,29,1,,,,,,,,,,,,,,,,,,,,,,,,,,,,,,,,,,,,,,,,,,,,,,,,,,,,,,,,,,,,
,,,,924726,001,2023-05-02_17h16.24.986,fluency,2022.2.5,Win32,64.55361177,,,,,,,,,,,,,,,,,,,,,,,,,,,,,,,,,,,,,,,,,,,,,,,,,,,,,,0,,,,,,,,,,,,,,,,,,,,,,,,,,,,j,2.0203,"[""7"",""space"",""j""]",0,0,0,0,1,,,,,,,,,,,,,,,,,,,,,,,,,,,,,,,,,,,,,,,,,,,,,,,,,,,,,,,,,,,,,,,,,,,
,,,,924726,001,2023-05-02_17h16.24.986,fluency,2022.2.5,Win32,64.55361177,,,,,,,,,,,,,,,,,,,,,,,9,7,img/B07_09.jpg,GCNB,Press J if the face is NONBINARY and K if the face is GENDER-CONFORMING,Gender-conforming means that the face appears to be a typical example of its gender. Nonbinary means that the face does not conform to any particular gender norms.,KJ,,,,,,,,,,,,,,,,,,,,,,,,,,,,,,,,,,,,,,,7,2.7409,,,,,,,,,,,,,,,,,,,,,space,4.5011,0,69,69,75,1,,,,,,,,,,,,,,,,,,,,,,,,,,,,,,,,,,,,,,,,,,,,,,,,,,,,,,,,,,,,
,,,,924726,001,2023-05-02_17h16.24.986,fluency,2022.2.5,Win32,64.55361177,,,,,,,,,,,,,,,,,,,,,,,,,,,,,,,,,,,,,,,,,,,,,,,,,,,,,,0,,,,,,,,,,,,,,,,,,,,,,,,,,,,k,0.9889,"[""7"",""space"",""k""]",0,0,0,0,1,,,,,,,,,,,,,,,,,,,,,,,,,,,,,,,,,,,,,,,,,,,,,,,,,,,,,,,,,,,,,,,,,,,
,,,,924726,001,2023-05-02_17h16.24.986,fluency,2022.2.5,Win32,64.55361177,,,,,,,,,,,,,,,,,,,,,,,6,9,img/B09_06.jpg,GCNB,Press J if the face is NONBINARY and K if the face is GENDER-CONFORMING,Gender-conforming means that the face appears to be a typical example of its gender. Nonbinary means that the face does not conform to any particular gender norms.,KJ,,,,,,,,,,,,,,,,,,,,,,,,,,,,,,,,,,,,,,,6,1.2851,,,,,,,,,,,,,,,,,,,,,space,0.4503,0,70,70,94,1,,,,,,,,,,,,,,,,,,,,,,,,,,,,,,,,,,,,,,,,,,,,,,,,,,,,,,,,,,,,
,,,,924726,001,2023-05-02_17h16.24.986,fluency,2022.2.5,Win32,64.55361177,,,,,,,,,,,,,,,,,,,,,,,,,,,,,,,,,,,,,,,,,,,,,,,,,,,,,,0,,,,,,,,,,,,,,,,,,,,,,,,,,,,k,1.8251,"[""6"",""space"",""k""]",0,0,0,0,1,,,,,,,,,,,,,,,,,,,,,,,,,,,,,,,,,,,,,,,,,,,,,,,,,,,,,,,,,,,,,,,,,,,
,,,,924726,001,2023-05-02_17h16.24.986,fluency,2022.2.5,Win32,64.55361177,,,,,,,,,,,,,,,,,,,,,,,4,3,img/B03_04.jpg,GCNB,Press J if the face is NONBINARY and K if the face is GENDER-CONFORMING,Gender-conforming means that the face appears to be a typical example of its gender. Nonbinary means that the face does not conform to any particular gender norms.,KJ,,,,,,,,,,,,,,,,,,,,,,,,,,,,,,,,,,,,,,,8,1.7442,,,,,,,,,,,,,,,,,,,,,space,0.3183,0,71,71,26,1,,,,,,,,,,,,,,,,,,,,,,,,,,,,,,,,,,,,,,,,,,,,,,,,,,,,,,,,,,,,
,,,,924726,001,2023-05-02_17h16.24.986,fluency,2022.2.5,Win32,64.55361177,,,,,,,,,,,,,,,,,,,,,,,,,,,,,,,,,,,,,,,,,,,,,,,,,,,,,,0,,,,,,,,,,,,,,,,,,,,,,,,,,,,k,2.0912,"[""8"",""space"",""k""]",0,0,0,0,1,,,,,,,,,,,,,,,,,,,,,,,,,,,,,,,,,,,,,,,,,,,,,,,,,,,,,,,,,,,,,,,,,,,
,,,,924726,001,2023-05-02_17h16.24.986,fluency,2022.2.5,Win32,64.55361177,,,,,,,,,,,,,,,,,,,,,,,10,3,img/B03_10.jpg,GCNB,Press J if the face is NONBINARY and K if the face is GENDER-CONFORMING,Gender-conforming means that the face appears to be a typical example of its gender. Nonbinary means that the face does not conform to any particular gender norms.,KJ,,,,,,,,,,,,,,,,,,,,,,,,,,,,,,,,,,,,,,,7,1.8956,,,,,,,,,,,,,,,,,,,,,space,0.3348,0,72,72,32,1,,,,,,,,,,,,,,,,,,,,,,,,,,,,,,,,,,,,,,,,,,,,,,,,,,,,,,,,,,,,
,,,,924726,001,2023-05-02_17h16.24.986,fluency,2022.2.5,Win32,64.55361177,,,,,,,,,,,,,,,,,,,,,,,,,,,,,,,,,,,,,,,,,,,,,,,,,,,,,,0,,,,,,,,,,,,,,,,,,,,,,,,,,,,k,1.0924,"[""7"",""space"",""k""]",0,0,0,0,1,,,,,,,,,,,,,,,,,,,,,,,,,,,,,,,,,,,,,,,,,,,,,,,,,,,,,,,,,,,,,,,,,,,
,,,,924726,001,2023-05-02_17h16.24.986,fluency,2022.2.5,Win32,64.55361177,,,,,,,,,,,,,,,,,,,,,,,3,4,img/B04_03.jpg,GCNB,Press J if the face is NONBINARY and K if the face is GENDER-CONFORMING,Gender-conforming means that the face appears to be a typical example of its gender. Nonbinary means that the face does not conform to any particular gender norms.,KJ,,,,,,,,,,,,,,,,,,,,,,,,,,,,,,,,,,,,,,,6,0.5496,,,,,,,,,,,,,,,,,,,,,space,0.3185,0,73,73,36,1,,,,,,,,,,,,,,,,,,,,,,,,,,,,,,,,,,,,,,,,,,,,,,,,,,,,,,,,,,,,
,,,,924726,001,2023-05-02_17h16.24.986,fluency,2022.2.5,Win32,64.55361177,,,,,,,,,,,,,,,,,,,,,,,,,,,,,,,,,,,,,,,,,,,,,,,,,,,,,,0,,,,,,,,,,,,,,,,,,,,,,,,,,,,k,2.7657,"[""6"",""space"",""k""]",0,0,0,0,1,,,,,,,,,,,,,,,,,,,,,,,,,,,,,,,,,,,,,,,,,,,,,,,,,,,,,,,,,,,,,,,,,,,
,,,,924726,001,2023-05-02_17h16.24.986,fluency,2022.2.5,Win32,64.55361177,,,,,,,,,,,,,,,,,,,,,,,7,2,img/B02_07.jpg,GCNB,Press J if the face is NONBINARY and K if the face is GENDER-CONFORMING,Gender-conforming means that the face appears to be a typical example of its gender. Nonbinary means that the face does not conform to any particular gender norms.,KJ,,,,,,,,,,,,,,,,,,,,,,,,,,,,,,,,,,,,,,,6,1.7096,,,,,,,,,,,,,,,,,,,,,space,0.3012,0,74,74,18,1,,,,,,,,,,,,,,,,,,,,,,,,,,,,,,,,,,,,,,,,,,,,,,,,,,,,,,,,,,,,
,,,,924726,001,2023-05-02_17h16.24.986,fluency,2022.2.5,Win32,64.55361177,,,,,,,,,,,,,,,,,,,,,,,,,,,,,,,,,,,,,,,,,,,,,,,,,,,,,,0,,,,,,,,,,,,,,,,,,,,,,,,,,,,k,0.8723,"[""6"",""space"",""k""]",0,0,0,0,1,,,,,,,,,,,,,,,,,,,,,,,,,,,,,,,,,,,,,,,,,,,,,,,,,,,,,,,,,,,,,,,,,,,
,,,,924726,001,2023-05-02_17h16.24.986,fluency,2022.2.5,Win32,64.55361177,,,,,,,,,,,,,,,,,,,,,,,9,8,img/B08_09.jpg,GCNB,Press J if the face is NONBINARY and K if the face is GENDER-CONFORMING,Gender-conforming means that the face appears to be a typical example of its gender. Nonbinary means that the face does not conform to any particular gender norms.,KJ,,,,,,,,,,,,,,,,,,,,,,,,,,,,,,,,,,,,,,,5,0.404,,,,,,,,,,,,,,,,,,,,,space,0.2502,0,75,75,86,1,,,,,,,,,,,,,,,,,,,,,,,,,,,,,,,,,,,,,,,,,,,,,,,,,,,,,,,,,,,,
,,,,924726,001,2023-05-02_17h16.24.986,fluency,2022.2.5,Win32,64.55361177,,,,,,,,,,,,,,,,,,,,,,,,,,,,,,,,,,,,,,,,,,,,,,,,,,,,,,0,,,,,,,,,,,,,,,,,,,,,,,,,,,,j,1.4047,"[""5"",""space"",""j""]",0,0,0,0,1,,,,,,,,,,,,,,,,,,,,,,,,,,,,,,,,,,,,,,,,,,,,,,,,,,,,,,,,,,,,,,,,,,,
,,,,924726,001,2023-05-02_17h16.24.986,fluency,2022.2.5,Win32,64.55361177,,,,,,,,,,,,,,,,,,,,,,,6,4,img/B04_06.jpg,GCNB,Press J if the face is NONBINARY and K if the face is GENDER-CONFORMING,Gender-conforming means that the face appears to be a typical example of its gender. Nonbinary means that the face does not conform to any particular gender norms.,KJ,,,,,,,,,,,,,,,,,,,,,,,,,,,,,,,,,,,,,,,8,1.5418,,,,,,,,,,,,,,,,,,,,,space,0.4178,0,76,76,39,1,,,,,,,,,,,,,,,,,,,,,,,,,,,,,,,,,,,,,,,,,,,,,,,,,,,,,,,,,,,,
,,,,924726,001,2023-05-02_17h16.24.986,fluency,2022.2.5,Win32,64.55361177,,,,,,,,,,,,,,,,,,,,,,,,,,,,,,,,,,,,,,,,,,,,,,,,,,,,,,0,,,,,,,,,,,,,,,,,,,,,,,,,,,,k,1.7702,"[""8"",""space"",""k""]",0,0,0,0,1,,,,,,,,,,,,,,,,,,,,,,,,,,,,,,,,,,,,,,,,,,,,,,,,,,,,,,,,,,,,,,,,,,,
,,,,924726,001,2023-05-02_17h16.24.986,fluency,2022.2.5,Win32,64.55361177,,,,,,,,,,,,,,,,,,,,,,,10,4,img/B04_10.jpg,GCNB,Press J if the face is NONBINARY and K if the face is GENDER-CONFORMING,Gender-conforming means that the face appears to be a typical example of its gender. Nonbinary means that the face does not conform to any particular gender norms.,KJ,,,,,,,,,,,,,,,,,,,,,,,,,,,,,,,,,,,,,,,6,0.7255,,,,,,,,,,,,,,,,,,,,,space,0.3007,0,77,77,43,1,,,,,,,,,,,,,,,,,,,,,,,,,,,,,,,,,,,,,,,,,,,,,,,,,,,,,,,,,,,,
,,,,924726,001,2023-05-02_17h16.24.986,fluency,2022.2.5,Win32,64.55361177,,,,,,,,,,,,,,,,,,,,,,,,,,,,,,,,,,,,,,,,,,,,,,,,,,,,,,0,,,,,,,,,,,,,,,,,,,,,,,,,,,,k,1.5889,"[""6"",""space"",""k""]",0,0,0,0,1,,,,,,,,,,,,,,,,,,,,,,,,,,,,,,,,,,,,,,,,,,,,,,,,,,,,,,,,,,,,,,,,,,,
,,,,924726,001,2023-05-02_17h16.24.986,fluency,2022.2.5,Win32,64.55361177,,,,,,,,,,,,,,,,,,,,,,,3,3,img/B03_03.jpg,GCNB,Press J if the face is NONBINARY and K if the face is GENDER-CONFORMING,Gender-conforming means that the face appears to be a typical example of its gender. Nonbinary means that the face does not conform to any particular gender norms.,KJ,,,,,,,,,,,,,,,,,,,,,,,,,,,,,,,,,,,,,,,8,0.7551,,,,,,,,,,,,,,,,,,,,,space,0.5009,0,78,78,25,1,,,,,,,,,,,,,,,,,,,,,,,,,,,,,,,,,,,,,,,,,,,,,,,,,,,,,,,,,,,,
,,,,924726,001,2023-05-02_17h16.24.986,fluency,2022.2.5,Win32,64.55361177,,,,,,,,,,,,,,,,,,,,,,,,,,,,,,,,,,,,,,,,,,,,,,,,,,,,,,0,,,,,,,,,,,,,,,,,,,,,,,,,,,,k,1.4643,"[""8"",""space"",""k""]",0,0,0,0,1,,,,,,,,,,,,,,,,,,,,,,,,,,,,,,,,,,,,,,,,,,,,,,,,,,,,,,,,,,,,,,,,,,,
,,,,924726,001,2023-05-02_17h16.24.986,fluency,2022.2.5,Win32,64.55361177,,,,,,,,,,,,,,,,,,,,,,,2,8,img/B08_02.jpg,GCNB,Press J if the face is NONBINARY and K if the face is GENDER-CONFORMING,Gender-conforming means that the face appears to be a typical example of its gender. Nonbinary means that the face does not conform to any particular gender norms.,KJ,,,,,,,,,,,,,,,,,,,,,,,,,,,,,,,,,,,,,,,6,7.9481,,,,,,,,,,,,,,,,,,,,,space,1.9185,0,79,79,79,1,,,,,,,,,,,,,,,,,,,,,,,,,,,,,,,,,,,,,,,,,,,,,,,,,,,,,,,,,,,,
,,,,924726,001,2023-05-02_17h16.24.986,fluency,2022.2.5,Win32,64.55361177,,,,,,,,,,,,,,,,,,,,,,,,,,,,,,,,,,,,,,,,,,,,,,,,,,,,,,0,,,,,,,,,,,,,,,,,,,,,,,,,,,,k,0.8888,"[""6"",""space"",""k""]",0,0,0,0,1,,,,,,,,,,,,,,,,,,,,,,,,,,,,,,,,,,,,,,,,,,,,,,,,,,,,,,,,,,,,,,,,,,,
,,,,924726,001,2023-05-02_17h16.24.986,fluency,2022.2.5,Win32,64.55361177,,,,,,,,,,,,,,,,,,,,,,,2,4,img/B04_02.jpg,GCNB,Press J if the face is NONBINARY and K if the face is GENDER-CONFORMING,Gender-conforming means that the face appears to be a typical example of its gender. Nonbinary means that the face does not conform to any particular gender norms.,KJ,,,,,,,,,,,,,,,,,,,,,,,,,,,,,,,,,,,,,,,7,1.3397,,,,,,,,,,,,,,,,,,,,,space,0.3367,0,80,80,35,1,,,,,,,,,,,,,,,,,,,,,,,,,,,,,,,,,,,,,,,,,,,,,,,,,,,,,,,,,,,,
,,,,924726,001,2023-05-02_17h16.24.986,fluency,2022.2.5,Win32,64.55361177,,,,,,,,,,,,,,,,,,,,,,,,,,,,,,,,,,,,,,,,,,,,,,,,,,,,,,0,,,,,,,,,,,,,,,,,,,,,,,,,,,,k,0.9725,"[""7"",""space"",""k""]",0,0,0,0,1,,,,,,,,,,,,,,,,,,,,,,,,,,,,,,,,,,,,,,,,,,,,,,,,,,,,,,,,,,,,,,,,,,,
,,,,924726,001,2023-05-02_17h16.24.986,fluency,2022.2.5,Win32,64.55361177,,,,,,,,,,,,,,,,,,,,,,,1,2,img/B02_01.jpg,GCNB,Press J if the face is NONBINARY and K if the face is GENDER-CONFORMING,Gender-conforming means that the face appears to be a typical example of its gender. Nonbinary means that the face does not conform to any particular gender norms.,KJ,,,,,,,,,,,,,,,,,,,,,,,,,,,,,,,,,,,,,,,5,0.8054,,,,,,,,,,,,,,,,,,,,,space,0.3041,0,81,81,12,1,,,,,,,,,,,,,,,,,,,,,,,,,,,,,,,,,,,,,,,,,,,,,,,,,,,,,,,,,,,,
,,,,924726,001,2023-05-02_17h16.24.986,fluency,2022.2.5,Win32,64.55361177,,,,,,,,,,,,,,,,,,,,,,,,,,,,,,,,,,,,,,,,,,,,,,,,,,,,,,0,,,,,,,,,,,,,,,,,,,,,,,,,,,,k,0.823,"[""5"",""space"",""k""]",0,0,0,0,1,,,,,,,,,,,,,,,,,,,,,,,,,,,,,,,,,,,,,,,,,,,,,,,,,,,,,,,,,,,,,,,,,,,
,,,,924726,001,2023-05-02_17h16.24.986,fluency,2022.2.5,Win32,64.55361177,,,,,,,,,,,,,,,,,,,,,,,2,10,img/B10_02.jpg,GCNB,Press J if the face is NONBINARY and K if the face is GENDER-CONFORMING,Gender-conforming means that the face appears to be a typical example of its gender. Nonbinary means that the face does not conform to any particular gender norms.,KJ,,,,,,,,,,,,,,,,,,,,,,,,,,,,,,,,,,,,,,,7,0.4466,,,,,,,,,,,,,,,,,,,,,space,0.2349,0,82,82,101,1,,,,,,,,,,,,,,,,,,,,,,,,,,,,,,,,,,,,,,,,,,,,,,,,,,,,,,,,,,,,
,,,,924726,001,2023-05-02_17h16.24.986,fluency,2022.2.5,Win32,64.55361177,,,,,,,,,,,,,,,,,,,,,,,,,,,,,,,,,,,,,,,,,,,,,,,,,,,,,,0,,,,,,,,,,,,,,,,,,,,,,,,,,,,j,1.5797,"[""7"",""space"",""j""]",0,0,0,0,1,,,,,,,,,,,,,,,,,,,,,,,,,,,,,,,,,,,,,,,,,,,,,,,,,,,,,,,,,,,,,,,,,,,
,,,,924726,001,2023-05-02_17h16.24.986,fluency,2022.2.5,Win32,64.55361177,,,,,,,,,,,,,,,,,,,,,,,5,1,img/B01_05.jpg,GCNB,Press J if the face is NONBINARY and K if the face is GENDER-CONFORMING,Gender-conforming means that the face appears to be a typical example of its gender. Nonbinary means that the face does not conform to any particular gender norms.,KJ,,,,,,,,,,,,,,,,,,,,,,,,,,,,,,,,,,,,,,,6,2.042,,,,,,,,,,,,,,,,,,,,,space,0.268,0,83,83,5,1,,,,,,,,,,,,,,,,,,,,,,,,,,,,,,,,,,,,,,,,,,,,,,,,,,,,,,,,,,,,
,,,,924726,001,2023-05-02_17h16.24.986,fluency,2022.2.5,Win32,64.55361177,,,,,,,,,,,,,,,,,,,,,,,,,,,,,,,,,,,,,,,,,,,,,,,,,,,,,,0,,,,,,,,,,,,,,,,,,,,,,,,,,,,k,0.8554,"[""6"",""space"",""k""]",0,0,0,0,1,,,,,,,,,,,,,,,,,,,,,,,,,,,,,,,,,,,,,,,,,,,,,,,,,,,,,,,,,,,,,,,,,,,
,,,,924726,001,2023-05-02_17h16.24.986,fluency,2022.2.5,Win32,64.55361177,,,,,,,,,,,,,,,,,,,,,,,2,7,img/B07_02.jpg,GCNB,Press J if the face is NONBINARY and K if the face is GENDER-CONFORMING,Gender-conforming means that the face appears to be a typical example of its gender. Nonbinary means that the face does not conform to any particular gender norms.,KJ,,,,,,,,,,,,,,,,,,,,,,,,,,,,,,,,,,,,,,,5,0.5923,,,,,,,,,,,,,,,,,,,,,space,0.3185,0,84,84,68,1,,,,,,,,,,,,,,,,,,,,,,,,,,,,,,,,,,,,,,,,,,,,,,,,,,,,,,,,,,,,
,,,,924726,001,2023-05-02_17h16.24.986,fluency,2022.2.5,Win32,64.55361177,,,,,,,,,,,,,,,,,,,,,,,,,,,,,,,,,,,,,,,,,,,,,,,,,,,,,,0,,,,,,,,,,,,,,,,,,,,,,,,,,,,k,0.7889,"[""5"",""space"",""k""]",0,0,0,0,1,,,,,,,,,,,,,,,,,,,,,,,,,,,,,,,,,,,,,,,,,,,,,,,,,,,,,,,,,,,,,,,,,,,
,,,,924726,001,2023-05-02_17h16.24.986,fluency,2022.2.5,Win32,64.55361177,,,,,,,,,,,,,,,,,,,,,,,2,3,img/B03_02.jpg,GCNB,Press J if the face is NONBINARY and K if the face is GENDER-CONFORMING,Gender-conforming means that the face appears to be a typical example of its gender. Nonbinary means that the face does not conform to any particular gender norms.,KJ,,,,,,,,,,,,,,,,,,,,,,,,,,,,,,,,,,,,,,,9,1.3025,,,,,,,,,,,,,,,,,,,,,space,0.3009,0,85,85,24,1,,,,,,,,,,,,,,,,,,,,,,,,,,,,,,,,,,,,,,,,,,,,,,,,,,,,,,,,,,,,
,,,,924726,001,2023-05-02_17h16.24.986,fluency,2022.2.5,Win32,64.55361177,,,,,,,,,,,,,,,,,,,,,,,,,,,,,,,,,,,,,,,,,,,,,,,,,,,,,,0,,,,,,,,,,,,,,,,,,,,,,,,,,,,k,1.0978,"[""9"",""space"",""k""]",0,0,0,0,1,,,,,,,,,,,,,,,,,,,,,,,,,,,,,,,,,,,,,,,,,,,,,,,,,,,,,,,,,,,,,,,,,,,
,,,,924726,001,2023-05-02_17h16.24.986,fluency,2022.2.5,Win32,64.55361177,,,,,,,,,,,,,,,,,,,,,,,0,10,img/B10_00.jpg,GCNB,Press J if the face is NONBINARY and K if the face is GENDER-CONFORMING,Gender-conforming means that the face appears to be a typical example of its gender. Nonbinary means that the face does not conform to any particular gender norms.,KJ,,,,,,,,,,,,,,,,,,,,,,,,,,,,,,,,,,,,,,,7,0.4598,,,,,,,,,,,,,,,,,,,,,space,0.2515,0,86,86,99,1,,,,,,,,,,,,,,,,,,,,,,,,,,,,,,,,,,,,,,,,,,,,,,,,,,,,,,,,,,,,
,,,,924726,001,2023-05-02_17h16.24.986,fluency,2022.2.5,Win32,64.55361177,,,,,,,,,,,,,,,,,,,,,,,,,,,,,,,,,,,,,,,,,,,,,,,,,,,,,,0,,,,,,,,,,,,,,,,,,,,,,,,,,,,k,0.6606,"[""7"",""space"",""k""]",0,0,0,0,1,,,,,,,,,,,,,,,,,,,,,,,,,,,,,,,,,,,,,,,,,,,,,,,,,,,,,,,,,,,,,,,,,,,
,,,,924726,001,2023-05-02_17h16.24.986,fluency,2022.2.5,Win32,64.55361177,,,,,,,,,,,,,,,,,,,,,,,1,10,img/B10_01.jpg,GCNB,Press J if the face is NONBINARY and K if the face is GENDER-CONFORMING,Gender-conforming means that the face appears to be a typical example of its gender. Nonbinary means that the face does not conform to any particular gender norms.,KJ,,,,,,,,,,,,,,,,,,,,,,,,,,,,,,,,,,,,,,,7,0.4312,,,,,,,,,,,,,,,,,,,,,space,0.6686,0,87,87,100,1,,,,,,,,,,,,,,,,,,,,,,,,,,,,,,,,,,,,,,,,,,,,,,,,,,,,,,,,,,,,
,,,,924726,001,2023-05-02_17h16.24.986,fluency,2022.2.5,Win32,64.55361177,,,,,,,,,,,,,,,,,,,,,,,,,,,,,,,,,,,,,,,,,,,,,,,,,,,,,,0,,,,,,,,,,,,,,,,,,,,,,,,,,,,j,1.2453,"[""7"",""space"",""j""]",0,0,0,0,1,,,,,,,,,,,,,,,,,,,,,,,,,,,,,,,,,,,,,,,,,,,,,,,,,,,,,,,,,,,,,,,,,,,
,,,,924726,001,2023-05-02_17h16.24.986,fluency,2022.2.5,Win32,64.55361177,,,,,,,,,,,,,,,,,,,,,,,4,2,img/B02_04.jpg,GCNB,Press J if the face is NONBINARY and K if the face is GENDER-CONFORMING,Gender-conforming means that the face appears to be a typical example of its gender. Nonbinary means that the face does not conform to any particular gender norms.,KJ,,,,,,,,,,,,,,,,,,,,,,,,,,,,,,,,,,,,,,,5,0.3681,,,,,,,,,,,,,,,,,,,,,space,0.285,0,88,88,15,1,,,,,,,,,,,,,,,,,,,,,,,,,,,,,,,,,,,,,,,,,,,,,,,,,,,,,,,,,,,,
,,,,924726,001,2023-05-02_17h16.24.986,fluency,2022.2.5,Win32,64.55361177,,,,,,,,,,,,,,,,,,,,,,,,,,,,,,,,,,,,,,,,,,,,,,,,,,,,,,0,,,,,,,,,,,,,,,,,,,,,,,,,,,,k,0.8994,"[""5"",""space"",""k""]",0,0,0,0,1,,,,,,,,,,,,,,,,,,,,,,,,,,,,,,,,,,,,,,,,,,,,,,,,,,,,,,,,,,,,,,,,,,,
,,,,924726,001,2023-05-02_17h16.24.986,fluency,2022.2.5,Win32,64.55361177,,,,,,,,,,,,,,,,,,,,,,,1,7,img/B07_01.jpg,GCNB,Press J if the face is NONBINARY and K if the face is GENDER-CONFORMING,Gender-conforming means that the face appears to be a typical example of its gender. Nonbinary means that the face does not conform to any particular gender norms.,KJ,,,,,,,,,,,,,,,,,,,,,,,,,,,,,,,,,,,,,,,5,0.3626,,,,,,,,,,,,,,,,,,,,,space,0.3346,0,89,89,67,1,,,,,,,,,,,,,,,,,,,,,,,,,,,,,,,,,,,,,,,,,,,,,,,,,,,,,,,,,,,,
,,,,924726,001,2023-05-02_17h16.24.986,fluency,2022.2.5,Win32,64.55361177,,,,,,,,,,,,,,,,,,,,,,,,,,,,,,,,,,,,,,,,,,,,,,,,,,,,,,0,,,,,,,,,,,,,,,,,,,,,,,,,,,,j,1.5792,"[""5"",""space"",""j""]",0,0,0,0,1,,,,,,,,,,,,,,,,,,,,,,,,,,,,,,,,,,,,,,,,,,,,,,,,,,,,,,,,,,,,,,,,,,,
,,,,924726,001,2023-05-02_17h16.24.986,fluency,2022.2.5,Win32,64.55361177,,,,,,,,,,,,,,,,,,,,,,,5,4,img/B04_05.jpg,GCNB,Press J if the face is NONBINARY and K if the face is GENDER-CONFORMING,Gender-conforming means that the face appears to be a typical example of its gender. Nonbinary means that the face does not conform to any particular gender norms.,KJ,,,,,,,,,,,,,,,,,,,,,,,,,,,,,,,,,,,,,,,8,0.7107,,,,,,,,,,,,,,,,,,,,,space,0.2683,0,90,90,38,1,,,,,,,,,,,,,,,,,,,,,,,,,,,,,,,,,,,,,,,,,,,,,,,,,,,,,,,,,,,,
,,,,924726,001,2023-05-02_17h16.24.986,fluency,2022.2.5,Win32,64.55361177,,,,,,,,,,,,,,,,,,,,,,,,,,,,,,,,,,,,,,,,,,,,,,,,,,,,,,0,,,,,,,,,,,,,,,,,,,,,,,,,,,,j,1.1553,"[""8"",""space"",""j""]",0,0,0,0,1,,,,,,,,,,,,,,,,,,,,,,,,,,,,,,,,,,,,,,,,,,,,,,,,,,,,,,,,,,,,,,,,,,,
,,,,924726,001,2023-05-02_17h16.24.986,fluency,2022.2.5,Win32,64.55361177,,,,,,,,,,,,,,,,,,,,,,,6,1,img/B01_06.jpg,GCNB,Press J if the face is NONBINARY and K if the face is GENDER-CONFORMING,Gender-conforming means that the face appears to be a typical example of its gender. Nonbinary means that the face does not conform to any particular gender norms.,KJ,,,,,,,,,,,,,,,,,,,,,,,,,,,,,,,,,,,,,,,5,0.3219,,,,,,,,,,,,,,,,,,,,,space,0.4182,0,91,91,6,1,,,,,,,,,,,,,,,,,,,,,,,,,,,,,,,,,,,,,,,,,,,,,,,,,,,,,,,,,,,,
,,,,924726,001,2023-05-02_17h16.24.986,fluency,2022.2.5,Win32,64.55361177,,,,,,,,,,,,,,,,,,,,,,,,,,,,,,,,,,,,,,,,,,,,,,,,,,,,,,0,,,,,,,,,,,,,,,,,,,,,,,,,,,,k,0.9896,"[""5"",""space"",""k""]",0,0,0,0,1,,,,,,,,,,,,,,,,,,,,,,,,,,,,,,,,,,,,,,,,,,,,,,,,,,,,,,,,,,,,,,,,,,,
,,,,924726,001,2023-05-02_17h16.24.986,fluency,2022.2.5,Win32,64.55361177,,,,,,,,,,,,,,,,,,,,,,,0,3,img/B03_00.jpg,GCNB,Press J if the face is NONBINARY and K if the face is GENDER-CONFORMING,Gender-conforming means that the face appears to be a typical example of its gender. Nonbinary means that the face does not conform to any particular gender norms.,KJ,,,,,,,,,,,,,,,,,,,,,,,,,,,,,,,,,,,,,,,7,0.3259,,,,,,,,,,,,,,,,,,,,,space,0.3202,0,92,92,22,1,,,,,,,,,,,,,,,,,,,,,,,,,,,,,,,,,,,,,,,,,,,,,,,,,,,,,,,,,,,,
,,,,924726,001,2023-05-02_17h16.24.986,fluency,2022.2.5,Win32,64.55361177,,,,,,,,,,,,,,,,,,,,,,,,,,,,,,,,,,,,,,,,,,,,,,,,,,,,,,0,,,,,,,,,,,,,,,,,,,,,,,,,,,,j,1.2154,"[""7"",""space"",""j""]",0,0,0,0,1,,,,,,,,,,,,,,,,,,,,,,,,,,,,,,,,,,,,,,,,,,,,,,,,,,,,,,,,,,,,,,,,,,,
,,,,924726,001,2023-05-02_17h16.24.986,fluency,2022.2.5,Win32,64.55361177,,,,,,,,,,,,,,,,,,,,,,,3,5,img/B05_03.jpg,GCNB,Press J if the face is NONBINARY and K if the face is GENDER-CONFORMING,Gender-conforming means that the face appears to be a typical example of its gender. Nonbinary means that the face does not conform to any particular gender norms.,KJ,,,,,,,,,,,,,,,,,,,,,,,,,,,,,,,,,,,,,,,7,2.2023,,,,,,,,,,,,,,,,,,,,,space,0.3178,0,93,93,47,1,,,,,,,,,,,,,,,,,,,,,,,,,,,,,,,,,,,,,,,,,,,,,,,,,,,,,,,,,,,,
,,,,924726,001,2023-05-02_17h16.24.986,fluency,2022.2.5,Win32,64.55361177,,,,,,,,,,,,,,,,,,,,,,,,,,,,,,,,,,,,,,,,,,,,,,,,,,,,,,0,,,,,,,,,,,,,,,,,,,,,,,,,,,,k,1.5601,"[""7"",""space"",""k""]",0,0,0,0,1,,,,,,,,,,,,,,,,,,,,,,,,,,,,,,,,,,,,,,,,,,,,,,,,,,,,,,,,,,,,,,,,,,,
,,,,924726,001,2023-05-02_17h16.24.986,fluency,2022.2.5,Win32,64.55361177,,,,,,,,,,,,,,,,,,,,,,,7,5,img/B05_07.jpg,GCNB,Press J if the face is NONBINARY and K if the face is GENDER-CONFORMING,Gender-conforming means that the face appears to be a typical example of its gender. Nonbinary means that the face does not conform to any particular gender norms.,KJ,,,,,,,,,,,,,,,,,,,,,,,,,,,,,,,,,,,,,,,5,0.8115,,,,,,,,,,,,,,,,,,,,,space,0.267,0,94,94,51,1,,,,,,,,,,,,,,,,,,,,,,,,,,,,,,,,,,,,,,,,,,,,,,,,,,,,,,,,,,,,
,,,,924726,001,2023-05-02_17h16.24.986,fluency,2022.2.5,Win32,64.55361177,,,,,,,,,,,,,,,,,,,,,,,,,,,,,,,,,,,,,,,,,,,,,,,,,,,,,,0,,,,,,,,,,,,,,,,,,,,,,,,,,,,j,0.9453,"[""5"",""space"",""j""]",0,0,0,0,1,,,,,,,,,,,,,,,,,,,,,,,,,,,,,,,,,,,,,,,,,,,,,,,,,,,,,,,,,,,,,,,,,,,
,,,,924726,001,2023-05-02_17h16.24.986,fluency,2022.2.5,Win32,64.55361177,,,,,,,,,,,,,,,,,,,,,,,10,6,img/B06_10.jpg,GCNB,Press J if the face is NONBINARY and K if the face is GENDER-CONFORMING,Gender-conforming means that the face appears to be a typical example of its gender. Nonbinary means that the face does not conform to any particular gender norms.,KJ,,,,,,,,,,,,,,,,,,,,,,,,,,,,,,,,,,,,,,,7,0.9379,,,,,,,,,,,,,,,,,,,,,space,0.4509,0,95,95,65,1,,,,,,,,,,,,,,,,,,,,,,,,,,,,,,,,,,,,,,,,,,,,,,,,,,,,,,,,,,,,
,,,,924726,001,2023-05-02_17h16.24.986,fluency,2022.2.5,Win32,64.55361177,,,,,,,,,,,,,,,,,,,,,,,,,,,,,,,,,,,,,,,,,,,,,,,,,,,,,,0,,,,,,,,,,,,,,,,,,,,,,,,,,,,j,1.022,"[""7"",""space"",""j""]",0,0,0,0,1,,,,,,,,,,,,,,,,,,,,,,,,,,,,,,,,,,,,,,,,,,,,,,,,,,,,,,,,,,,,,,,,,,,
,,,,924726,001,2023-05-02_17h16.24.986,fluency,2022.2.5,Win32,64.55361177,,,,,,,,,,,,,,,,,,,,,,,6,7,img/B07_06.jpg,GCNB,Press J if the face is NONBINARY and K if the face is GENDER-CONFORMING,Gender-conforming means that the face appears to be a typical example of its gender. Nonbinary means that the face does not conform to any particular gender norms.,KJ,,,,,,,,,,,,,,,,,,,,,,,,,,,,,,,,,,,,,,,5,0.6106,,,,,,,,,,,,,,,,,,,,,space,0.3346,0,96,96,72,1,,,,,,,,,,,,,,,,,,,,,,,,,,,,,,,,,,,,,,,,,,,,,,,,,,,,,,,,,,,,
,,,,924726,001,2023-05-02_17h16.24.986,fluency,2022.2.5,Win32,64.55361177,,,,,,,,,,,,,,,,,,,,,,,,,,,,,,,,,,,,,,,,,,,,,,,,,,,,,,0,,,,,,,,,,,,,,,,,,,,,,,,,,,,j,1.4223,"[""5"",""space"",""j""]",0,0,0,0,1,,,,,,,,,,,,,,,,,,,,,,,,,,,,,,,,,,,,,,,,,,,,,,,,,,,,,,,,,,,,,,,,,,,
,,,,924726,001,2023-05-02_17h16.24.986,fluency,2022.2.5,Win32,64.55361177,,,,,,,,,,,,,,,,,,,,,,,4,5,img/B05_04.jpg,GCNB,Press J if the face is NONBINARY and K if the face is GENDER-CONFORMING,Gender-conforming means that the face appears to be a typical example of its gender. Nonbinary means that the face does not conform to any particular gender norms.,KJ,,,,,,,,,,,,,,,,,,,,,,,,,,,,,,,,,,,,,,,7,0.4817,,,,,,,,,,,,,,,,,,,,,space,0.2694,0,97,97,48,1,,,,,,,,,,,,,,,,,,,,,,,,,,,,,,,,,,,,,,,,,,,,,,,,,,,,,,,,,,,,
,,,,924726,001,2023-05-02_17h16.24.986,fluency,2022.2.5,Win32,64.55361177,,,,,,,,,,,,,,,,,,,,,,,,,,,,,,,,,,,,,,,,,,,,,,,,,,,,,,0,,,,,,,,,,,,,,,,,,,,,,,,,,,,k,1.165,"[""7"",""space"",""k""]",0,0,0,0,1,,,,,,,,,,,,,,,,,,,,,,,,,,,,,,,,,,,,,,,,,,,,,,,,,,,,,,,,,,,,,,,,,,,
,,,,924726,001,2023-05-02_17h16.24.986,fluency,2022.2.5,Win32,64.55361177,,,,,,,,,,,,,,,,,,,,,,,1,9,img/B09_01.jpg,GCNB,Press J if the face is NONBINARY and K if the face is GENDER-CONFORMING,Gender-conforming means that the face appears to be a typical example of its gender. Nonbinary means that the face does not conform to any particular gender norms.,KJ,,,,,,,,,,,,,,,,,,,,,,,,,,,,,,,,,,,,,,,5,0.6275,,,,,,,,,,,,,,,,,,,,,space,0.4011,0,98,98,89,1,,,,,,,,,,,,,,,,,,,,,,,,,,,,,,,,,,,,,,,,,,,,,,,,,,,,,,,,,,,,
,,,,924726,001,2023-05-02_17h16.24.986,fluency,2022.2.5,Win32,64.55361177,,,,,,,,,,,,,,,,,,,,,,,,,,,,,,,,,,,,,,,,,,,,,,,,,,,,,,0,,,,,,,,,,,,,,,,,,,,,,,,,,,,k,1.3553,"[""5"",""space"",""k""]",0,0,0,0,1,,,,,,,,,,,,,,,,,,,,,,,,,,,,,,,,,,,,,,,,,,,,,,,,,,,,,,,,,,,,,,,,,,,
,,,,924726,001,2023-05-02_17h16.24.986,fluency,2022.2.5,Win32,64.55361177,,,,,,,,,,,,,,,,,,,,,,,10,1,img/B01_10.jpg,GCNB,Press J if the face is NONBINARY and K if the face is GENDER-CONFORMING,Gender-conforming means that the face appears to be a typical example of its gender. Nonbinary means that the face does not conform to any particular gender norms.,KJ,,,,,,,,,,,,,,,,,,,,,,,,,,,,,,,,,,,,,,,6,0.3918,,,,,,,,,,,,,,,,,,,,,space,0.3545,0,99,99,10,1,,,,,,,,,,,,,,,,,,,,,,,,,,,,,,,,,,,,,,,,,,,,,,,,,,,,,,,,,,,,
,,,,924726,001,2023-05-02_17h16.24.986,fluency,2022.2.5,Win32,64.55361177,,,,,,,,,,,,,,,,,,,,,,,,,,,,,,,,,,,,,,,,,,,,,,,,,,,,,,0,,,,,,,,,,,,,,,,,,,,,,,,,,,,k,0.9833,"[""6"",""space"",""k""]",0,0,0,0,1,,,,,,,,,,,,,,,,,,,,,,,,,,,,,,,,,,,,,,,,,,,,,,,,,,,,,,,,,,,,,,,,,,,
,,,,924726,001,2023-05-02_17h16.24.986,fluency,2022.2.5,Win32,64.55361177,,,,,,,,,,,,,,,,,,,,,,,8,2,img/B02_08.jpg,GCNB,Press J if the face is NONBINARY and K if the face is GENDER-CONFORMING,Gender-conforming means that the face appears to be a typical example of its gender. Nonbinary means that the face does not conform to any particular gender norms.,KJ,,,,,,,,,,,,,,,,,,,,,,,,,,,,,,,,,,,,,,,6,0.386,,,,,,,,,,,,,,,,,,,,,space,0.5178,0,100,100,19,1,,,,,,,,,,,,,,,,,,,,,,,,,,,,,,,,,,,,,,,,,,,,,,,,,,,,,,,,,,,,
,,,,924726,001,2023-05-02_17h16.24.986,fluency,2022.2.5,Win32,64.55361177,,,,,,,,,,,,,,,,,,,,,,,,,,,,,,,,,,,,,,,,,,,,,,,,,,,,,,0,,,,,,,,,,,,,,,,,,,,,,,,,,,,k,0.8059,"[""6"",""space"",""k""]",0,0,0,0,1,,,,,,,,,,,,,,,,,,,,,,,,,,,,,,,,,,,,,,,,,,,,,,,,,,,,,,,,,,,,,,,,,,,
,,,,924726,001,2023-05-02_17h16.24.986,fluency,2022.2.5,Win32,64.55361177,,,,,,,,,,,,,,,,,,,,,,,9,6,img/B06_09.jpg,GCNB,Press J if the face is NONBINARY and K if the face is GENDER-CONFORMING,Gender-conforming means that the face appears to be a typical example of its gender. Nonbinary means that the face does not conform to any particular gender norms.,KJ,,,,,,,,,,,,,,,,,,,,,,,,,,,,,,,,,,,,,,,6,0.673,,,,,,,,,,,,,,,,,,,,,space,0.3083,0,101,101,64,1,,,,,,,,,,,,,,,,,,,,,,,,,,,,,,,,,,,,,,,,,,,,,,,,,,,,,,,,,,,,
,,,,924726,001,2023-05-02_17h16.24.986,fluency,2022.2.5,Win32,64.55361177,,,,,,,,,,,,,,,,,,,,,,,,,,,,,,,,,,,,,,,,,,,,,,,,,,,,,,0,,,,,,,,,,,,,,,,,,,,,,,,,,,,j,1.0728,"[""6"",""space"",""j""]",0,0,0,0,1,,,,,,,,,,,,,,,,,,,,,,,,,,,,,,,,,,,,,,,,,,,,,,,,,,,,,,,,,,,,,,,,,,,
,,,,924726,001,2023-05-02_17h16.24.986,fluency,2022.2.5,Win32,64.55361177,,,,,,,,,,,,,,,,,,,,,,,4,8,img/B08_04.jpg,GCNB,Press J if the face is NONBINARY and K if the face is GENDER-CONFORMING,Gender-conforming means that the face appears to be a typical example of its gender. Nonbinary means that the face does not conform to any particular gender norms.,KJ,,,,,,,,,,,,,,,,,,,,,,,,,,,,,,,,,,,,,,,7,1.0794,,,,,,,,,,,,,,,,,,,,,space,0.2687,0,102,102,81,1,,,,,,,,,,,,,,,,,,,,,,,,,,,,,,,,,,,,,,,,,,,,,,,,,,,,,,,,,,,,
,,,,924726,001,2023-05-02_17h16.24.986,fluency,2022.2.5,Win32,64.55361177,,,,,,,,,,,,,,,,,,,,,,,,,,,,,,,,,,,,,,,,,,,,,,,,,,,,,,0,,,,,,,,,,,,,,,,,,,,,,,,,,,,k,2.1144,"[""7"",""space"",""k""]",0,0,0,0,1,,,,,,,,,,,,,,,,,,,,,,,,,,,,,,,,,,,,,,,,,,,,,,,,,,,,,,,,,,,,,,,,,,,
,,,,924726,001,2023-05-02_17h16.24.986,fluency,2022.2.5,Win32,64.55361177,,,,,,,,,,,,,,,,,,,,,,,4,4,img/B04_04.jpg,GCNB,Press J if the face is NONBINARY and K if the face is GENDER-CONFORMING,Gender-conforming means that the face appears to be a typical example of its gender. Nonbinary means that the face does not conform to any particular gender norms.,KJ,,,,,,,,,,,,,,,,,,,,,,,,,,,,,,,,,,,,,,,7,0.9099,,,,,,,,,,,,,,,,,,,,,space,0.3505,0,103,103,37,1,,,,,,,,,,,,,,,,,,,,,,,,,,,,,,,,,,,,,,,,,,,,,,,,,,,,,,,,,,,,
,,,,924726,001,2023-05-02_17h16.24.986,fluency,2022.2.5,Win32,64.55361177,,,,,,,,,,,,,,,,,,,,,,,,,,,,,,,,,,,,,,,,,,,,,,,,,,,,,,0,,,,,,,,,,,,,,,,,,,,,,,,,,,,j,1.5448,"[""7"",""space"",""j""]",0,0,0,0,1,,,,,,,,,,,,,,,,,,,,,,,,,,,,,,,,,,,,,,,,,,,,,,,,,,,,,,,,,,,,,,,,,,,
,,,,924726,001,2023-05-02_17h16.24.986,fluency,2022.2.5,Win32,64.55361177,,,,,,,,,,,,,,,,,,,,,,,4,6,img/B06_04.jpg,GCNB,Press J if the face is NONBINARY and K if the face is GENDER-CONFORMING,Gender-conforming means that the face appears to be a typical example of its gender. Nonbinary means that the face does not conform to any particular gender norms.,KJ,,,,,,,,,,,,,,,,,,,,,,,,,,,,,,,,,,,,,,,7,1.2274,,,,,,,,,,,,,,,,,,,,,space,0.2844,0,104,104,59,1,,,,,,,,,,,,,,,,,,,,,,,,,,,,,,,,,,,,,,,,,,,,,,,,,,,,,,,,,,,,
,,,,924726,001,2023-05-02_17h16.24.986,fluency,2022.2.5,Win32,64.55361177,,,,,,,,,,,,,,,,,,,,,,,,,,,,,,,,,,,,,,,,,,,,,,,,,,,,,,0,,,,,,,,,,,,,,,,,,,,,,,,,,,,k,2.081,"[""7"",""space"",""k""]",0,0,0,0,1,,,,,,,,,,,,,,,,,,,,,,,,,,,,,,,,,,,,,,,,,,,,,,,,,,,,,,,,,,,,,,,,,,,
,,,,924726,001,2023-05-02_17h16.24.986,fluency,2022.2.5,Win32,64.55361177,,,,,,,,,,,,,,,,,,,,,,,4,7,img/B07_04.jpg,GCNB,Press J if the face is NONBINARY and K if the face is GENDER-CONFORMING,Gender-conforming means that the face appears to be a typical example of its gender. Nonbinary means that the face does not conform to any particular gender norms.,KJ,,,,,,,,,,,,,,,,,,,,,,,,,,,,,,,,,,,,,,,6,0.5438,,,,,,,,,,,,,,,,,,,,,space,0.3172,0,105,105,70,1,,,,,,,,,,,,,,,,,,,,,,,,,,,,,,,,,,,,,,,,,,,,,,,,,,,,,,,,,,,,
,,,,924726,001,2023-05-02_17h16.24.986,fluency,2022.2.5,Win32,64.55361177,,,,,,,,,,,,,,,,,,,,,,,,,,,,,,,,,,,,,,,,,,,,,,,,,,,,,,0,,,,,,,,,,,,,,,,,,,,,,,,,,,,j,1.0248,"[""6"",""space"",""j""]",0,0,0,0,1,,,,,,,,,,,,,,,,,,,,,,,,,,,,,,,,,,,,,,,,,,,,,,,,,,,,,,,,,,,,,,,,,,,
,,,,924726,001,2023-05-02_17h16.24.986,fluency,2022.2.5,Win32,64.55361177,,,,,,,,,,,,,,,,,,,,,,,5,8,img/B08_05.jpg,GCNB,Press J if the face is NONBINARY and K if the face is GENDER-CONFORMING,Gender-conforming means that the face appears to be a typical example of its gender. Nonbinary means that the face does not conform to any particular gender norms.,KJ,,,,,,,,,,,,,,,,,,,,,,,,,,,,,,,,,,,,,,,7,0.3748,,,,,,,,,,,,,,,,,,,,,space,0.3516,0,106,106,82,1,,,,,,,,,,,,,,,,,,,,,,,,,,,,,,,,,,,,,,,,,,,,,,,,,,,,,,,,,,,,
,,,,924726,001,2023-05-02_17h16.24.986,fluency,2022.2.5,Win32,64.55361177,,,,,,,,,,,,,,,,,,,,,,,,,,,,,,,,,,,,,,,,,,,,,,,,,,,,,,0,,,,,,,,,,,,,,,,,,,,,,,,,,,,k,2.0387,"[""7"",""space"",""k""]",0,0,0,0,1,,,,,,,,,,,,,,,,,,,,,,,,,,,,,,,,,,,,,,,,,,,,,,,,,,,,,,,,,,,,,,,,,,,
,,,,924726,001,2023-05-02_17h16.24.986,fluency,2022.2.5,Win32,64.55361177,,,,,,,,,,,,,,,,,,,,,,,1,1,img/B01_01.jpg,GCNB,Press J if the face is NONBINARY and K if the face is GENDER-CONFORMING,Gender-conforming means that the face appears to be a typical example of its gender. Nonbinary means that the face does not conform to any particular gender norms.,KJ,,,,,,,,,,,,,,,,,,,,,,,,,,,,,,,,,,,,,,,4,0.4774,,,,,,,,,,,,,,,,,,,,,space,0.3345,0,107,107,1,1,,,,,,,,,,,,,,,,,,,,,,,,,,,,,,,,,,,,,,,,,,,,,,,,,,,,,,,,,,,,
,,,,924726,001,2023-05-02_17h16.24.986,fluency,2022.2.5,Win32,64.55361177,,,,,,,,,,,,,,,,,,,,,,,,,,,,,,,,,,,,,,,,,,,,,,,,,,,,,,0,,,,,,,,,,,,,,,,,,,,,,,,,,,,k,1.123,"[""4"",""space"",""k""]",0,0,0,0,1,,,,,,,,,,,,,,,,,,,,,,,,,,,,,,,,,,,,,,,,,,,,,,,,,,,,,,,,,,,,,,,,,,,
,,,,924726,001,2023-05-02_17h16.24.986,fluency,2022.2.5,Win32,64.55361177,,,,,,,,,,,,,,,,,,,,,,,3,9,img/B09_03.jpg,GCNB,Press J if the face is NONBINARY and K if the face is GENDER-CONFORMING,Gender-conforming means that the face appears to be a typical example of its gender. Nonbinary means that the face does not conform to any particular gender norms.,KJ,,,,,,,,,,,,,,,,,,,,,,,,,,,,,,,,,,,,,,,5,1.2208,,,,,,,,,,,,,,,,,,,,,space,13.0521,0,108,108,91,1,,,,,,,,,,,,,,,,,,,,,,,,,,,,,,,,,,,,,,,,,,,,,,,,,,,,,,,,,,,,
,,,,924726,001,2023-05-02_17h16.24.986,fluency,2022.2.5,Win32,64.55361177,,,,,,,,,,,,,,,,,,,,,,,,,,,,,,,,,,,,,,,,,,,,,,,,,,,,,,0,,,,,,,,,,,,,,,,,,,,,,,,,,,,k,0.9619,"[""5"",""space"",""k""]",0,0,0,0,1,,,,,,,,,,,,,,,,,,,,,,,,,,,,,,,,,,,,,,,,,,,,,,,,,,,,,,,,,,,,,,,,,,,
,,,,924726,001,2023-05-02_17h16.24.986,fluency,2022.2.5,Win32,64.55361177,,,,,,,,,,,,,,,,,,,,,,,0,6,img/B06_00.jpg,GCNB,Press J if the face is NONBINARY and K if the face is GENDER-CONFORMING,Gender-conforming means that the face appears to be a typical example of its gender. Nonbinary means that the face does not conform to any particular gender norms.,KJ,,,,,,,,,,,,,,,,,,,,,,,,,,,,,,,,,,,,,,,5,0.5323,,,,,,,,,,,,,,,,,,,,,space,0.4001,0,109,109,55,1,,,,,,,,,,,,,,,,,,,,,,,,,,,,,,,,,,,,,,,,,,,,,,,,,,,,,,,,,,,,
,,,,924726,001,2023-05-02_17h16.24.986,fluency,2022.2.5,Win32,64.55361177,,,,,,,,,,,,,,,,,,,,,,,,,,,,,,,,,,,,,,,,,,,,,,,,,,,,,,,,,,,,,,,,,,,,,,,,,,,,,,,,,,,,,,,,,,,,,,,,,space,5.5933,,,,,,,,,,,,,,,,,,,,,,,,,,,,,,,,,,,,,,,,,,,,,,,,,,,,,,,,,,
,,,,924726,001,2023-05-02_17h16.24.986,fluency,2022.2.5,Win32,64.55361177,,,,,,,,,,,,,,,,,,,,,,,,,,,,,,,,,,,,,,,,,,,,,,,,,,,,,,,,,,,,,,,,,,,,,,,,,,,,,,,,,,,,,,,,,,,,,,,,,,,5,14.1572,3,17.8573,6,24.5888,4,29.4714,1,[0.9883000000006632],[0.9884000000022297],,,,,,,,,,,,,,,,,,,,,,,,,,,,,,,,,,,,,,,,,,,,,,,
,,,,924726,001,2023-05-02_17h16.24.986,fluency,2022.2.5,Win32,64.55361177,,,,,,,,,,,,,,,,,,,,,,,,,,,,,,,,,,,,,,,,,,,,,,,,,,,,,,,,,,,,,,,,,,,,,,,,,,,,,,,,,,,,,,,,,,,,,,,,,,,,,,,,,,,,,,4,6.8773,6,11.8755,4,15.7831,5,20.6932,1,[0.8195000000000618],[0.819599999997763],,,,,,,,,,,,,,,,,,,,,,,,,,,,,,,,,,,,
,,,,924726,001,2023-05-02_17h16.24.986,fluency,2022.2.5,Win32,64.55361177,,,,,,,,,,,,,,,,,,,,,,,,,,,,,,,,,,,,,,,,,,,,,,,,,,,,,,,,,,,,,,,,,,,,,,,,,,,,,,,,,,,,,,,,,,,,,,,,,,,,,,,,,,,,,,,,,,,,,,,,,5,4.8538,4,10.7055,2,14.7724,5,18.6884,1,[0.6953999999984717],[0.695800000000645],,,,,,,,,,,,,,,,,,,,,,,,,
,,,,924726,001,2023-05-02_17h16.24.986,fluency,2022.2.5,Win32,64.55361177,,,,,,,,,,,,,,,,,,,,,,,,,,,,,,,,,,,,,,,,,,,,,,,,,,,,,,,,,,,,,,,,,,,,,,,,,,,,,,,,,,,,,,,,,,,,,,,,,,,,,,,,,,,,,,,,,,,,,,,,,,,,,,,,,,,,6,4.5588,3,8.7427,5,11.6586,1,[0.8716000000015356],[0.8716000000015356],,,,,,,,,,,,,,,,
,,,,924726,001,2023-05-02_17h16.24.986,fluency,2022.2.5,Win32,64.55361177,,,,,,,,,,,,,,,,,,,,,,,,,,,,,,,,,,,,,,,,,,,,,,,,,,,,,,,,,,,,,,,,,,,,,,,,,,,,,,,,,,,,,,,,,,,,,,,,,,,,,,,,,,,,,,,,,,,,,,,,,,,,,,,,,,,,,,,,,,,,,3,3.7586,5,5.9905,,1,[2.1351000000015574],[2.1351999999992586],,,,,,,,
,,,,924726,001,2023-05-02_17h16.24.986,fluency,2022.2.5,Win32,64.55361177,,,,,,,,,,,,,,,,,,,,,,,,,,,,,,,,,,,,,,,,,,,,,,,,,,,,,,,,,,,,,,,,,,,,,,,,,,,,,,,,,,,,,,,,,,,,,,,,,,,,,,,,,,,,,,,,,,,,,,,,,,,,,,,,,,,,,,,,,,,,,,,,,,,,,"I just paid a lot of attention, it was interesting!",1,[47.93599999999992],[47.93599999999992],,,,
,,,,924726,001,2023-05-02_17h16.24.986,fluency,2022.2.5,Win32,64.55361177,,,,,,,,,,,,,,,,,,,,,,,,,,,,,,,,,,,,,,,,,,,,,,,,,,,,,,,,,,,,,,,,,,,,,,,,,,,,,,,,,,,,,,,,,,,,,,,,,,,,,,,,,,,,,,,,,,,,,,,,,,,,,,,,,,,,,,,,,,,,,,,,,,,,,,,,,space,23.4813,,
,,,,924726,001,2023-05-02_17h16.24.986,fluency,2022.2.5,Win32,64.55361177,,,,,,,,,,,,,,,,,,,,,,,,,,,,,,,,,,,,,,,,,,,,,,,,,,,,,,,,,,,,,,,,,,,,,,,,,,,,,,,,,,,,,,,,,,,,,,,,,,,,,,,,,,,,,,,,,,,,,,,,,,,,,,,,,,,,,,,,,,,,,,,,,,,,,,,,,,,tab,46.4563
